File: data/02-SI/Figures_S9_S11_RDE/15btmapaq-rde/1mkcl-15btmapaq-nitrogen-1000mvpers.DTA
EXPLAIN
TAG	CV
TITLE	LABEL	Cyclic Voltammetry	Test &Identifier
DATE	LABEL	1/31/2023	Date
TIME	LABEL	18:20:40	Time
NOTES	NOTES	1	&Notes...

PSTAT	PSTAT	REF3000-21108	Potentiostat
VINIT	POTEN	5.00000E-001	F	Initial &E (V)
VLIMIT1	POTEN	-1.00000E+000	F	Scan Limit &1 (V)
VLIMIT2	POTEN	5.00000E-001	F	Scan Limit &2 (V)
VFINAL	POTEN	5.00000E-001	F	Final &E (V)
SCANRATE	QUANT	9.99998E+002	&Scan Rate (mV/s)
STEPSIZE	QUANT	1.00000E+000	St&ep Size (mV)
CYCLES	IQUANT	1	C&ycles (#)
IMODE	SELECTOR	1	I/E Range &Mode
IRANGE	QUANT	1.00000E+001	&Max Current (mA)
AREA	QUANT	1.00000E+000	Electrode &Area (cm^2)
ELECTRODETYPE	SELECTOR	0	Electrode Type
STRIPPING	TOGGLE	F	Used for Stripping
POLARITY	TOGGLE	F	Signal Polarity
CONDIT	TWOPARAM	F	1.50000E+001	0.00000E+000	Conditionin&g	Time(s)	E(V)
DELAY	TWOPARAM	F	5.00000E+000	0.00000E+000	Init. De&lay	Time(s)	Stab.(mV/s)
EQDELAY	QUANT	0.00000E+000	Equil. &Time (s)
IRCOMP	SELECTOR	0	IRCom&p
PFCOR	QUANT	5.00000E+001	PF Corr. (ohm)
SAMPLINGMODE	SELECTOR	1	Sampling &Mode
EOC	QUANT	0	Open Circuit (V)
PSTATMODEL	IQUANT	5	Pstat Model
PSTATSECTION	LABEL	REF3000-21108	Pstat Section
PSTATSERIALNO	LABEL	21108	Pstat Serial Number
CTRLMODE	IQUANT	1	Control Mode
ELECTROMETER	IQUANT	0	RE=0 or CS=1
IESTAB	IQUANT	2	I/E Stability
CASPEED	IQUANT	4	Control Amp Speed
CONVENTION	IQUANT	1	Current Convention
ICHRANGE	IQUANT	2	Ich Range
ICHRANGEMODE	TOGGLE	F	Ich Auto Range
ICHOFFSETENABLE	TOGGLE	F	Ich Offset Enable
ICHOFFSET	QUANT	0	Ich Offset (V)
ICHFILTER	IQUANT	1	Ich Filter
VCHRANGE	IQUANT	2	Vch Range
VCHRANGEMODE	TOGGLE	F	Vch Auto Range
VCHOFFSETENABLE	TOGGLE	F	Vch Offset Enable
VCHOFFSET	QUANT	0	Vch Offset (V)
VCHFILTER	IQUANT	1	Vch Filter
ACHRANGE	IQUANT	2	Ach Range
ACHOFFSETENABLE	TOGGLE	F	Ach Offset Enable
ACHOFFSET	QUANT	0	Ach Offset (V)
ACHFILTER	IQUANT	0	Ach Filter
IERANGELOWERLIMIT	IQUANT	2	I/E Range Lower Limit
IERANGEMODE	TOGGLE	F	I/E AutoRange
IERANGE	IQUANT	10	I/E Range
POSFEEDENABLE	TOGGLE	F	Positive Feedback IR Comp
POSFEEDRESISTANCE	QUANT	0	Positive Feedback Resistance (ohm)
ACHSELECT	IQUANT	0	Ach Select
SENSECABLEID	IQUANT	14	Sense Cable ID
PWRCABLEID	IQUANT	7	Power Cable ID
DCCALDATE	LABEL	11/9/2022	DC Calibration Date
ACCALDATE	LABEL	11/9/2022	AC Calibration Date
THERMOSELECT	IQUANT	1	Thermo Select
FRAMEWORKVERSION	LABEL	7.8.2	Framework Version
INSTRUMENTVERSION	LABEL	4.40	Instrument Version
COMPLIANCEVOLTAGE	IQUANT	0	Compliance Voltage
CURVE1	TABLE
	Pt	T	Vf	Im	Vu	Sig	Ach	IERange	Over	Temp
	#	s	V vs. Ref.	A	V	V	V	#	bits	deg C
	0	0.001	4.98741E-001	6.12903E-005	0.00000E+000	5.00000E-001	-8.79272E-004	10	..........a	-327.74
	7	0.008	4.91624E-001	5.10972E-005	0.00000E+000	4.93000E-001	-7.95939E-004	10	..........a	-327.74
	14	0.015	4.84633E-001	4.54994E-005	0.00000E+000	4.86000E-001	-8.29272E-004	10	..........a	-327.74
	21	0.022	4.77699E-001	4.14890E-005	0.00000E+000	4.79000E-001	-8.79272E-004	10	..........a	-327.74
	28	0.029	4.70733E-001	3.78129E-005	0.00000E+000	4.72000E-001	-8.95939E-004	10	..........a	-327.74
	35	0.036	4.63666E-001	3.50557E-005	0.00000E+000	4.65000E-001	-8.12605E-004	10	..........a	-327.74
	42	0.043	4.56691E-001	3.07947E-005	0.00000E+000	4.58000E-001	-8.29272E-004	10	..........a	-327.74
	49	0.05	4.49741E-001	3.01263E-005	0.00000E+000	4.51000E-001	-8.45939E-004	10	..........a	-327.74
	56	0.057	4.42716E-001	2.87060E-005	0.00000E+000	4.44000E-001	-8.45939E-004	10	..........a	-327.74
	63	0.064	4.35674E-001	2.58653E-005	0.00000E+000	4.37000E-001	-8.29272E-004	10	..........a	-327.74
	70	0.071	4.28799E-001	2.52804E-005	0.00000E+000	4.30000E-001	-8.12605E-004	10	..........a	-327.74
	77	0.078	4.21666E-001	2.45285E-005	0.00000E+000	4.23000E-001	-9.45939E-004	10	..........a	-327.74
	84	0.085	4.14716E-001	2.18549E-005	0.00000E+000	4.16000E-001	-8.79272E-004	10	..........a	-327.74
	91	0.092	4.07683E-001	2.04346E-005	0.00000E+000	4.09000E-001	-8.29272E-004	10	..........a	-327.74
	98	0.099	4.00674E-001	2.05181E-005	0.00000E+000	4.02000E-001	-8.29272E-004	10	..........a	-327.74
	105	0.106	3.93774E-001	1.73432E-005	0.00000E+000	3.95000E-001	-8.45939E-004	10	..........a	-327.74
	112	0.113	3.86766E-001	1.60900E-005	0.00000E+000	3.88000E-001	-8.62605E-004	10	..........a	-327.74
	119	0.12	3.79633E-001	1.47532E-005	0.00000E+000	3.81000E-001	-8.12605E-004	10	..........a	-327.74
	126	0.127	3.72899E-001	1.50874E-005	0.00000E+000	3.74000E-001	-8.29272E-004	10	..........a	-327.74
	133	0.134	3.65699E-001	1.40848E-005	0.00000E+000	3.67000E-001	-8.79272E-004	10	..........a	-327.74
	140	0.141	3.58741E-001	1.35835E-005	0.00000E+000	3.60000E-001	-9.62605E-004	10	..........a	-327.74
	147	0.148	3.51741E-001	1.30822E-005	0.00000E+000	3.53000E-001	-8.62605E-004	10	..........a	-327.74
	154	0.155	3.44708E-001	1.14948E-005	0.00000E+000	3.46000E-001	-7.95939E-004	10	..........a	-327.74
	161	0.162	3.37758E-001	1.19961E-005	0.00000E+000	3.39000E-001	-8.95939E-004	10	..........a	-327.74
	168	0.169	3.30791E-001	1.21632E-005	0.00000E+000	3.32000E-001	-8.29272E-004	10	..........a	-327.74
	175	0.176	3.23649E-001	1.04086E-005	0.00000E+000	3.25000E-001	-8.45939E-004	10	..........a	-327.74
	182	0.183	3.16708E-001	9.65668E-006	0.00000E+000	3.18000E-001	-8.62605E-004	10	..........a	-327.74
	189	0.19	3.09699E-001	9.40604E-006	0.00000E+000	3.11000E-001	-8.95939E-004	10	..........a	-327.74
	196	0.197	3.02741E-001	6.39825E-006	0.00000E+000	3.04000E-001	-8.12605E-004	10	..........a	-327.74
	203	0.204	2.95958E-001	8.57054E-006	0.00000E+000	2.97000E-001	-7.95939E-004	10	..........a	-327.74
	210	0.211	2.88741E-001	8.23634E-006	0.00000E+000	2.90000E-001	-8.29272E-004	10	..........a	-327.74
	217	0.218	2.81799E-001	5.14501E-006	0.00000E+000	2.83000E-001	-8.29272E-004	10	..........a	-327.74
	224	0.225	2.74858E-001	7.06665E-006	0.00000E+000	2.76000E-001	-7.95939E-004	10	..........a	-327.74
	231	0.232	2.67733E-001	5.06146E-006	0.00000E+000	2.69000E-001	-8.12605E-004	10	..........a	-327.74
	238	0.239	2.60816E-001	6.89955E-006	0.00000E+000	2.62000E-001	-7.95939E-004	10	..........a	-327.74
	245	0.246	2.53791E-001	2.13723E-006	0.00000E+000	2.55000E-001	-8.45939E-004	10	..........a	-327.74
	252	0.253	2.46758E-001	2.97272E-006	0.00000E+000	2.48000E-001	-7.95939E-004	10	..........a	-327.74
	259	0.26	2.39683E-001	2.15591E-007	0.00000E+000	2.41000E-001	-7.45939E-004	10	..........a	-327.74
	266	0.267	2.32708E-001	7.16888E-007	0.00000E+000	2.34000E-001	-7.45939E-004	10	..........a	-327.74
	273	0.274	2.25791E-001	-2.85706E-007	0.00000E+000	2.27000E-001	-8.45939E-004	10	..........a	-327.74
	280	0.281	2.18816E-001	-2.37444E-006	0.00000E+000	2.20000E-001	-8.29272E-004	10	..........a	-327.74
	287	0.288	2.11699E-001	-1.87315E-006	0.00000E+000	2.13000E-001	-7.79272E-004	10	..........a	-327.74
	294	0.295	2.04966E-001	-2.04025E-006	0.00000E+000	2.06000E-001	-8.95939E-004	10	..........a	-327.74
	301	0.302	1.97783E-001	-3.54414E-006	0.00000E+000	1.99000E-001	-7.95939E-004	10	..........a	-327.74
	308	0.309	1.90774E-001	-2.29089E-006	0.00000E+000	1.92000E-001	-7.79272E-004	10	..........a	-327.74
	315	0.316	1.83699E-001	-3.46059E-006	0.00000E+000	1.85000E-001	-8.95939E-004	10	..........a	-327.74
	322	0.323	1.76816E-001	-3.04284E-006	0.00000E+000	1.78000E-001	-8.45939E-004	10	..........a	-327.74
	329	0.33	1.69866E-001	-4.21253E-006	0.00000E+000	1.71000E-001	-8.62605E-004	10	..........a	-327.74
	336	0.337	1.62799E-001	-3.29349E-006	0.00000E+000	1.64000E-001	-7.45939E-004	10	..........a	-327.74
	343	0.344	1.55741E-001	-5.71642E-006	0.00000E+000	1.57000E-001	-8.12605E-004	10	..........a	-327.74
	350	0.351	1.48941E-001	-5.13158E-006	0.00000E+000	1.50000E-001	-7.45939E-004	10	..........a	-327.74
	357	0.358	1.41816E-001	-4.63028E-006	0.00000E+000	1.43000E-001	-7.79272E-004	10	..........a	-327.74
	364	0.365	1.34816E-001	-5.71642E-006	0.00000E+000	1.36000E-001	-7.95939E-004	10	..........a	-327.74
	371	0.372	1.27783E-001	-5.88352E-006	0.00000E+000	1.29000E-001	-8.29272E-004	10	..........a	-327.74
	378	0.379	1.20833E-001	-5.29868E-006	0.00000E+000	1.22000E-001	-8.29272E-004	10	..........a	-327.74
	385	0.386	1.13833E-001	-6.30127E-006	0.00000E+000	1.15000E-001	-8.12605E-004	10	..........a	-327.74
	392	0.393	1.06816E-001	-6.55192E-006	0.00000E+000	1.08000E-001	-7.95939E-004	10	..........a	-327.74
	399	0.4	9.97993E-002	-6.63547E-006	0.00000E+000	1.01000E-001	-8.12605E-004	10	..........a	-327.74
	406	0.407	9.29577E-002	-7.30386E-006	0.00000E+000	9.40000E-002	-7.79272E-004	10	..........a	-327.74
	413	0.414	8.57993E-002	-6.80257E-006	0.00000E+000	8.70000E-002	-8.79272E-004	10	..........a	-327.74
	420	0.421	7.87743E-002	-6.80257E-006	0.00000E+000	8.00000E-002	-8.29272E-004	10	..........a	-327.74
	427	0.428	7.18827E-002	-5.96707E-006	0.00000E+000	7.30000E-002	-8.29272E-004	10	..........a	-327.74
	434	0.435	6.48577E-002	-7.22031E-006	0.00000E+000	6.60000E-002	-8.45939E-004	10	..........a	-327.74
	441	0.442	5.78243E-002	-6.88612E-006	0.00000E+000	5.90000E-002	-8.12605E-004	10	..........a	-327.74
	448	0.449	5.07993E-002	-7.05322E-006	0.00000E+000	5.20000E-002	-8.62605E-004	10	..........a	-327.74
	455	0.456	4.38077E-002	-7.72161E-006	0.00000E+000	4.50000E-002	-7.79272E-004	10	..........a	-327.74
	462	0.463	3.69077E-002	-8.39001E-006	0.00000E+000	3.80000E-002	-7.95939E-004	10	..........a	-327.74
	469	0.47	2.98493E-002	-7.88871E-006	0.00000E+000	3.10000E-002	-7.79272E-004	10	..........a	-327.74
	476	0.477	2.28243E-002	-8.72421E-006	0.00000E+000	2.40000E-002	-8.29272E-004	10	..........a	-327.74
	483	0.484	1.59910E-002	-6.55192E-006	0.00000E+000	1.70000E-002	-8.29272E-004	10	..........a	-327.74
	490	0.491	8.84100E-003	-8.22291E-006	0.00000E+000	9.99999E-003	-7.79272E-004	10	..........a	-327.74
	497	0.498	1.83267E-003	-9.97745E-006	0.00000E+000	2.99999E-003	-8.29272E-004	10	..........a	-327.74
	504	0.505	-5.20900E-003	-9.14195E-006	0.00000E+000	-4.00001E-003	-7.79272E-004	10	..........a	-327.74
	511	0.512	-1.22173E-002	-9.22550E-006	0.00000E+000	-1.10000E-002	-7.95939E-004	10	..........a	-327.74
	518	0.519	-1.91340E-002	-9.89390E-006	0.00000E+000	-1.80000E-002	-7.79272E-004	10	..........a	-327.74
	525	0.526	-2.61007E-002	-9.39260E-006	0.00000E+000	-2.50000E-002	-8.29272E-004	10	..........a	-327.74
	532	0.533	-3.31673E-002	-8.22291E-006	0.00000E+000	-3.20000E-002	-7.29272E-004	10	..........a	-327.74
	539	0.54	-4.02007E-002	-9.22550E-006	0.00000E+000	-3.90000E-002	-8.29272E-004	10	..........a	-327.74
	546	0.547	-4.71673E-002	-1.04787E-005	0.00000E+000	-4.60000E-002	-8.29272E-004	10	..........a	-327.74
	553	0.554	-5.40840E-002	-9.30905E-006	0.00000E+000	-5.30000E-002	-7.79272E-004	10	..........a	-327.74
	560	0.561	-6.11173E-002	-1.03952E-005	0.00000E+000	-6.00000E-002	-7.95939E-004	10	..........a	-327.74
	567	0.568	-6.81590E-002	-1.06458E-005	0.00000E+000	-6.70000E-002	-7.95939E-004	10	..........a	-327.74
	574	0.575	-7.50090E-002	-1.01445E-005	0.00000E+000	-7.40000E-002	-8.29272E-004	10	..........a	-327.74
	581	0.582	-8.21090E-002	-1.05623E-005	0.00000E+000	-8.10000E-002	-7.79272E-004	10	..........a	-327.74
	588	0.589	-8.91507E-002	-1.08965E-005	0.00000E+000	-8.80000E-002	-7.45939E-004	10	..........a	-327.74
	595	0.596	-9.61257E-002	-1.12307E-005	0.00000E+000	-9.50000E-002	-7.45939E-004	10	..........a	-327.74
	602	0.603	-1.03134E-001	-1.29852E-005	0.00000E+000	-1.02000E-001	-8.29272E-004	10	..........a	-327.74
	609	0.61	-1.10059E-001	-1.30688E-005	0.00000E+000	-1.09000E-001	-7.45939E-004	10	..........a	-327.74
	616	0.617	-1.17142E-001	-1.02281E-005	0.00000E+000	-1.16000E-001	-7.79272E-004	10	..........a	-327.74
	623	0.624	-1.24092E-001	-1.09800E-005	0.00000E+000	-1.23000E-001	-7.29272E-004	10	..........a	-327.74
	630	0.631	-1.31009E-001	-1.23168E-005	0.00000E+000	-1.30000E-001	-8.45939E-004	10	..........a	-327.74
	637	0.638	-1.38034E-001	-1.24839E-005	0.00000E+000	-1.37000E-001	-8.29272E-004	10	..........a	-327.74
	644	0.645	-1.45192E-001	-1.24004E-005	0.00000E+000	-1.44000E-001	-8.12605E-004	10	..........a	-327.74
	651	0.652	-1.52142E-001	-1.35701E-005	0.00000E+000	-1.51000E-001	-8.12605E-004	10	..........a	-327.74
	658	0.659	-1.59009E-001	-1.45727E-005	0.00000E+000	-1.58000E-001	-7.95939E-004	10	..........a	-327.74
	665	0.666	-1.66034E-001	-1.46562E-005	0.00000E+000	-1.65000E-001	-8.29272E-004	10	..........a	-327.74
	672	0.673	-1.73142E-001	-1.44056E-005	0.00000E+000	-1.72000E-001	-8.12605E-004	10	..........a	-327.74
	679	0.68	-1.80109E-001	-1.43220E-005	0.00000E+000	-1.79000E-001	-8.29272E-004	10	..........a	-327.74
	686	0.687	-1.86942E-001	-1.67450E-005	0.00000E+000	-1.86000E-001	-7.79272E-004	10	..........a	-327.74
	693	0.694	-1.94076E-001	-1.61601E-005	0.00000E+000	-1.93000E-001	-7.62605E-004	10	..........a	-327.74
	700	0.701	-2.01101E-001	-1.60766E-005	0.00000E+000	-2.00000E-001	-7.95939E-004	10	..........a	-327.74
	707	0.708	-2.07984E-001	-1.64943E-005	0.00000E+000	-2.07000E-001	-8.29272E-004	10	..........a	-327.74
	714	0.715	-2.15084E-001	-1.78311E-005	0.00000E+000	-2.14000E-001	-7.95939E-004	10	..........a	-327.74
	721	0.722	-2.22026E-001	-1.77476E-005	0.00000E+000	-2.21000E-001	-8.12605E-004	10	..........a	-327.74
	728	0.729	-2.29151E-001	-1.92514E-005	0.00000E+000	-2.28000E-001	-8.45939E-004	10	..........a	-327.74
	735	0.736	-2.36067E-001	-1.89172E-005	0.00000E+000	-2.35000E-001	-7.95939E-004	10	..........a	-327.74
	742	0.743	-2.42976E-001	-2.00869E-005	0.00000E+000	-2.42000E-001	-7.95939E-004	10	..........a	-327.74
	749	0.75	-2.50026E-001	-1.97527E-005	0.00000E+000	-2.49000E-001	-7.62605E-004	10	..........a	-327.74
	756	0.757	-2.57117E-001	-2.05882E-005	0.00000E+000	-2.56000E-001	-8.29272E-004	10	..........a	-327.74
	763	0.764	-2.63842E-001	-2.11731E-005	0.00000E+000	-2.63000E-001	-8.12605E-004	10	..........a	-327.74
	770	0.771	-2.71084E-001	-2.01705E-005	0.00000E+000	-2.70000E-001	-7.79272E-004	10	..........a	-327.74
	777	0.778	-2.78042E-001	-2.29276E-005	0.00000E+000	-2.77000E-001	-8.45939E-004	10	..........a	-327.74
	784	0.785	-2.85017E-001	-2.21757E-005	0.00000E+000	-2.84000E-001	-7.79272E-004	10	..........a	-327.74
	791	0.792	-2.92167E-001	-2.19250E-005	0.00000E+000	-2.91000E-001	-8.29272E-004	10	..........a	-327.74
	798	0.799	-2.99026E-001	-2.18415E-005	0.00000E+000	-2.98000E-001	-9.12605E-004	10	..........a	-327.74
	805	0.806	-3.06017E-001	-2.35125E-005	0.00000E+000	-3.05000E-001	-8.45939E-004	10	..........a	-327.74
	812	0.813	-3.13076E-001	-2.41809E-005	0.00000E+000	-3.12000E-001	-7.79272E-004	10	..........a	-327.74
	819	0.82	-3.20059E-001	-2.49328E-005	0.00000E+000	-3.19000E-001	-8.79272E-004	10	..........a	-327.74
	826	0.827	-3.27026E-001	-2.58519E-005	0.00000E+000	-3.26000E-001	-8.12605E-004	10	..........a	-327.74
	833	0.834	-3.33992E-001	-2.56012E-005	0.00000E+000	-3.33000E-001	-8.12605E-004	10	..........a	-327.74
	840	0.841	-3.40926E-001	-2.90267E-005	0.00000E+000	-3.40000E-001	-8.29272E-004	10	..........a	-327.74
	847	0.848	-3.48034E-001	-2.76064E-005	0.00000E+000	-3.47000E-001	-8.29272E-004	10	..........a	-327.74
	854	0.855	-3.54992E-001	-2.91103E-005	0.00000E+000	-3.54000E-001	-7.79272E-004	10	..........a	-327.74
	861	0.862	-3.61984E-001	-3.15332E-005	0.00000E+000	-3.61000E-001	-8.29272E-004	10	..........a	-327.74
	868	0.869	-3.69151E-001	-3.29536E-005	0.00000E+000	-3.68000E-001	-8.79272E-004	10	..........a	-327.74
	875	0.876	-3.75992E-001	-3.36220E-005	0.00000E+000	-3.75000E-001	-8.45939E-004	10	..........a	-327.74
	882	0.883	-3.83026E-001	-3.41233E-005	0.00000E+000	-3.82000E-001	-6.95939E-004	10	..........a	-327.74
	889	0.89	-3.90009E-001	-3.78830E-005	0.00000E+000	-3.89000E-001	-7.79272E-004	10	..........a	-327.74
	896	0.897	-3.97067E-001	-4.08908E-005	0.00000E+000	-3.96000E-001	-7.45939E-004	10	..........a	-327.74
	903	0.904	-4.04009E-001	-4.64886E-005	0.00000E+000	-4.03000E-001	-7.95939E-004	10	..........a	-327.74
	910	0.911	-4.10909E-001	-5.10003E-005	0.00000E+000	-4.10000E-001	-8.62605E-004	10	..........a	-327.74
	917	0.918	-4.18017E-001	-5.55955E-005	0.00000E+000	-4.17000E-001	-7.62605E-004	10	..........a	-327.74
	924	0.925	-4.25017E-001	-6.66240E-005	0.00000E+000	-4.24000E-001	-8.45939E-004	10	..........a	-327.74
	931	0.932	-4.31892E-001	-7.64829E-005	0.00000E+000	-4.31000E-001	-8.12605E-004	10	..........a	-327.74
	938	0.939	-4.39084E-001	-8.55062E-005	0.00000E+000	-4.38000E-001	-8.45939E-004	10	..........a	-327.74
	945	0.946	-4.45976E-001	-9.76209E-005	0.00000E+000	-4.45000E-001	-8.95939E-004	10	..........a	-327.74
	952	0.953	-4.52992E-001	-1.09067E-004	0.00000E+000	-4.52000E-001	-8.29272E-004	10	..........a	-327.74
	959	0.96	-4.59967E-001	-1.20346E-004	0.00000E+000	-4.59000E-001	-7.62605E-004	10	..........a	-327.74
	966	0.967	-4.66917E-001	-1.31124E-004	0.00000E+000	-4.66000E-001	-8.95939E-004	10	..........a	-327.74
	973	0.974	-4.74017E-001	-1.45328E-004	0.00000E+000	-4.73000E-001	-8.62605E-004	10	..........a	-327.74
	980	0.981	-4.80984E-001	-1.53599E-004	0.00000E+000	-4.80000E-001	-8.12605E-004	10	..........a	-327.74
	987	0.988	-4.87842E-001	-1.65797E-004	0.00000E+000	-4.87000E-001	-8.12605E-004	10	..........a	-327.74
	994	0.995	-4.94859E-001	-1.79165E-004	0.00000E+000	-4.94000E-001	-8.29272E-004	10	..........a	-327.74
	1001	1.002	-5.01959E-001	-1.92032E-004	0.00000E+000	-5.01000E-001	-7.95939E-004	10	..........a	-327.74
	1008	1.009	-5.09001E-001	-2.09828E-004	0.00000E+000	-5.08000E-001	-8.12605E-004	10	..........a	-327.74
	1015	1.016	-5.15951E-001	-2.27707E-004	0.00000E+000	-5.15000E-001	-8.12605E-004	10	..........a	-327.74
	1022	1.023	-5.22884E-001	-2.52020E-004	0.00000E+000	-5.22000E-001	-8.62605E-004	10	..........a	-327.74
	1029	1.03	-5.29976E-001	-2.75832E-004	0.00000E+000	-5.29000E-001	-8.62605E-004	10	..........a	-327.74
	1036	1.037	-5.36942E-001	-3.05158E-004	0.00000E+000	-5.36000E-001	-8.62605E-004	10	..........a	-327.74
	1043	1.044	-5.43826E-001	-3.36071E-004	0.00000E+000	-5.43000E-001	-8.62605E-004	10	..........a	-327.74
	1050	1.051	-5.50951E-001	-3.68071E-004	0.00000E+000	-5.50000E-001	-8.29272E-004	10	..........a	-327.74
	1057	1.058	-5.57967E-001	-4.01323E-004	0.00000E+000	-5.57000E-001	-7.95939E-004	10	..........a	-327.74
	1064	1.065	-5.64951E-001	-4.31735E-004	0.00000E+000	-5.64000E-001	-8.12605E-004	10	..........a	-327.74
	1071	1.072	-5.71942E-001	-4.54210E-004	0.00000E+000	-5.71000E-001	-8.45939E-004	10	..........a	-327.74
	1078	1.079	-5.78959E-001	-4.73594E-004	0.00000E+000	-5.78000E-001	-7.62605E-004	10	..........a	-327.74
	1085	1.086	-5.85976E-001	-4.86794E-004	0.00000E+000	-5.85000E-001	-9.29272E-004	10	..........a	-327.74
	1092	1.093	-5.93017E-001	-4.98575E-004	0.00000E+000	-5.92000E-001	-8.29272E-004	10	..........a	-327.74
	1099	1.1	-5.99851E-001	-5.01917E-004	0.00000E+000	-5.99000E-001	-7.79272E-004	10	..........a	-327.74
	1106	1.107	-6.06992E-001	-5.01248E-004	0.00000E+000	-6.06000E-001	-8.12605E-004	10	..........a	-327.74
	1113	1.114	-6.13959E-001	-4.97656E-004	0.00000E+000	-6.13000E-001	-9.12605E-004	10	..........a	-327.74
	1120	1.121	-6.20859E-001	-4.87797E-004	0.00000E+000	-6.20000E-001	-7.79272E-004	10	..........a	-327.74
	1127	1.128	-6.27917E-001	-4.77353E-004	0.00000E+000	-6.27000E-001	-8.29272E-004	10	..........a	-327.74
	1134	1.135	-6.34909E-001	-4.66492E-004	0.00000E+000	-6.34000E-001	-8.62605E-004	10	..........a	-327.74
	1141	1.142	-6.41951E-001	-4.54210E-004	0.00000E+000	-6.41000E-001	-7.95939E-004	10	..........a	-327.74
	1148	1.149	-6.48934E-001	-4.41594E-004	0.00000E+000	-6.48000E-001	-8.45939E-004	10	..........a	-327.74
	1155	1.156	-6.55826E-001	-4.31902E-004	0.00000E+000	-6.55000E-001	-8.45939E-004	10	..........a	-327.74
	1162	1.163	-6.62851E-001	-4.20373E-004	0.00000E+000	-6.62000E-001	-8.12605E-004	10	..........a	-327.74
	1169	1.17	-6.69934E-001	-4.08425E-004	0.00000E+000	-6.69000E-001	-5.95939E-004	10	..........a	-327.74
	1176	1.177	-6.76776E-001	-3.99736E-004	0.00000E+000	-6.76000E-001	-7.79272E-004	10	..........a	-327.74
	1183	1.184	-6.83876E-001	-3.87705E-004	0.00000E+000	-6.83000E-001	-8.62605E-004	10	..........a	-327.74
	1190	1.191	-6.90942E-001	-3.78932E-004	0.00000E+000	-6.90000E-001	-7.95939E-004	10	..........a	-327.74
	1197	1.198	-6.97959E-001	-3.70828E-004	0.00000E+000	-6.97000E-001	-8.29272E-004	10	..........a	-327.74
	1204	1.205	-7.04867E-001	-3.62306E-004	0.00000E+000	-7.04000E-001	-8.12605E-004	10	..........a	-327.74
	1211	1.212	-7.11842E-001	-3.56039E-004	0.00000E+000	-7.11000E-001	-8.62605E-004	10	..........a	-327.74
	1218	1.219	-7.18851E-001	-3.48186E-004	0.00000E+000	-7.18000E-001	-8.62605E-004	10	..........a	-327.74
	1225	1.226	-7.25876E-001	-3.41418E-004	0.00000E+000	-7.25000E-001	-7.12606E-004	10	..........a	-327.74
	1232	1.233	-7.32942E-001	-3.34818E-004	0.00000E+000	-7.32000E-001	-8.62605E-004	10	..........a	-327.74
	1239	1.24	-7.39926E-001	-3.30557E-004	0.00000E+000	-7.39000E-001	-7.12606E-004	10	..........a	-327.74
	1246	1.247	-7.46826E-001	-3.26379E-004	0.00000E+000	-7.46000E-001	-7.62605E-004	10	..........a	-327.74
	1253	1.254	-7.53776E-001	-3.20280E-004	0.00000E+000	-7.53000E-001	-8.12605E-004	10	..........a	-327.74
	1260	1.261	-7.60892E-001	-3.14348E-004	0.00000E+000	-7.60000E-001	-8.29272E-004	10	..........a	-327.74
	1267	1.268	-7.67776E-001	-3.11424E-004	0.00000E+000	-7.67000E-001	-9.12605E-004	10	..........a	-327.74
	1274	1.275	-7.74867E-001	-3.05241E-004	0.00000E+000	-7.74000E-001	-8.45939E-004	10	..........a	-327.74
	1281	1.282	-7.81909E-001	-3.00061E-004	0.00000E+000	-7.81000E-001	-8.45939E-004	10	..........a	-327.74
	1288	1.289	-7.88817E-001	-2.96970E-004	0.00000E+000	-7.88000E-001	-8.45939E-004	10	..........a	-327.74
	1295	1.296	-7.95842E-001	-2.92458E-004	0.00000E+000	-7.95000E-001	-8.62605E-004	10	..........a	-327.74
	1302	1.303	-8.02817E-001	-2.89952E-004	0.00000E+000	-8.02000E-001	-7.79272E-004	10	..........a	-327.74
	1309	1.31	-8.09884E-001	-2.85106E-004	0.00000E+000	-8.09000E-001	-8.45939E-004	10	..........a	-327.74
	1316	1.317	-8.16901E-001	-2.81263E-004	0.00000E+000	-8.16000E-001	-8.12605E-004	10	..........a	-327.74
	1323	1.324	-8.23726E-001	-2.77837E-004	0.00000E+000	-8.23000E-001	-7.79272E-004	10	..........a	-327.74
	1330	1.331	-8.30776E-001	-2.76166E-004	0.00000E+000	-8.30000E-001	-8.79272E-004	10	..........a	-327.74
	1337	1.338	-8.37834E-001	-2.73660E-004	0.00000E+000	-8.37000E-001	-8.45939E-004	10	..........a	-327.74
	1344	1.345	-8.44742E-001	-2.71487E-004	0.00000E+000	-8.44000E-001	-8.95939E-004	10	..........a	-327.74
	1351	1.352	-8.51751E-001	-2.65305E-004	0.00000E+000	-8.51000E-001	-7.29272E-004	10	..........a	-327.74
	1358	1.359	-8.58792E-001	-2.63717E-004	0.00000E+000	-8.58000E-001	-8.62605E-004	10	..........a	-327.74
	1365	1.366	-8.65809E-001	-2.62380E-004	0.00000E+000	-8.65000E-001	-7.95939E-004	10	..........a	-327.74
	1372	1.373	-8.72751E-001	-2.59540E-004	0.00000E+000	-8.72000E-001	-8.12605E-004	10	..........a	-327.74
	1379	1.38	-8.79667E-001	-2.56365E-004	0.00000E+000	-8.79000E-001	-7.95939E-004	10	..........a	-327.74
	1386	1.387	-8.86784E-001	-2.55195E-004	0.00000E+000	-8.86000E-001	-7.62605E-004	10	..........a	-327.74
	1393	1.394	-8.93909E-001	-2.52104E-004	0.00000E+000	-8.93000E-001	-8.12605E-004	10	..........a	-327.74
	1400	1.401	-9.00676E-001	-2.47759E-004	0.00000E+000	-9.00000E-001	-7.29272E-004	10	..........a	-327.74
	1407	1.408	-9.07784E-001	-2.46590E-004	0.00000E+000	-9.07000E-001	-7.79272E-004	10	..........a	-327.74
	1414	1.415	-9.14784E-001	-2.45671E-004	0.00000E+000	-9.14000E-001	-7.79272E-004	10	..........a	-327.74
	1421	1.422	-9.21776E-001	-2.43582E-004	0.00000E+000	-9.21000E-001	-6.95939E-004	10	..........a	-327.74
	1428	1.429	-9.28776E-001	-2.42663E-004	0.00000E+000	-9.28000E-001	-8.12605E-004	10	..........a	-327.74
	1435	1.436	-9.35734E-001	-2.40908E-004	0.00000E+000	-9.35000E-001	-8.29272E-004	10	..........a	-327.74
	1442	1.443	-9.42759E-001	-2.39070E-004	0.00000E+000	-9.42000E-001	-7.62605E-004	10	..........a	-327.74
	1449	1.45	-9.49792E-001	-2.36731E-004	0.00000E+000	-9.49000E-001	-8.79272E-004	10	..........a	-327.74
	1456	1.457	-9.56651E-001	-2.34391E-004	0.00000E+000	-9.56000E-001	-7.95939E-004	10	..........a	-327.74
	1463	1.464	-9.63709E-001	-2.31551E-004	0.00000E+000	-9.63000E-001	-8.12605E-004	10	..........a	-327.74
	1470	1.471	-9.70767E-001	-2.30715E-004	0.00000E+000	-9.70000E-001	-7.12606E-004	10	..........a	-327.74
	1477	1.478	-9.77584E-001	-2.29295E-004	0.00000E+000	-9.77000E-001	-8.12605E-004	10	..........a	-327.74
	1484	1.485	-9.84759E-001	-2.28543E-004	0.00000E+000	-9.84000E-001	-8.62605E-004	10	..........a	-327.74
	1491	1.492	-9.91717E-001	-2.27123E-004	0.00000E+000	-9.91000E-001	-8.12605E-004	10	..........a	-327.74
	1498	1.499	-9.98717E-001	-2.26036E-004	0.00000E+000	-9.98000E-001	-7.79272E-004	10	..........a	-327.74
	1505	1.506	-9.95776E-001	-2.13755E-004	0.00000E+000	-9.95000E-001	-8.12605E-004	10	..........a	-327.74
	1512	1.513	-9.88742E-001	-2.06737E-004	0.00000E+000	-9.88000E-001	-8.29272E-004	10	..........a	-327.74
	1519	1.52	-9.81801E-001	-2.00972E-004	0.00000E+000	-9.81000E-001	-8.45939E-004	10	..........a	-327.74
	1526	1.527	-9.74734E-001	-1.96042E-004	0.00000E+000	-9.74000E-001	-7.79272E-004	10	..........a	-327.74
	1533	1.534	-9.67767E-001	-1.93034E-004	0.00000E+000	-9.67000E-001	-8.29272E-004	10	..........a	-327.74
	1540	1.541	-9.60801E-001	-1.90779E-004	0.00000E+000	-9.60000E-001	-7.62605E-004	10	..........a	-327.74
	1547	1.548	-9.53667E-001	-1.87019E-004	0.00000E+000	-9.53000E-001	-8.45939E-004	10	..........a	-327.74
	1554	1.555	-9.46767E-001	-1.81922E-004	0.00000E+000	-9.46000E-001	-8.12605E-004	10	..........a	-327.74
	1561	1.562	-9.39734E-001	-1.80168E-004	0.00000E+000	-9.39000E-001	-7.45939E-004	10	..........a	-327.74
	1568	1.569	-9.32667E-001	-1.79332E-004	0.00000E+000	-9.32000E-001	-8.12605E-004	10	..........a	-327.74
	1575	1.576	-9.25884E-001	-1.77160E-004	0.00000E+000	-9.25000E-001	-8.79272E-004	10	..........a	-327.74
	1582	1.583	-9.18792E-001	-1.75990E-004	0.00000E+000	-9.18000E-001	-8.29272E-004	10	..........a	-327.74
	1589	1.59	-9.11742E-001	-1.75071E-004	0.00000E+000	-9.11000E-001	-8.45939E-004	10	..........a	-327.74
	1596	1.597	-9.04784E-001	-1.72231E-004	0.00000E+000	-9.04000E-001	-7.12606E-004	10	..........a	-327.74
	1603	1.604	-8.97701E-001	-1.67970E-004	0.00000E+000	-8.97000E-001	-7.79272E-004	10	..........a	-327.74
	1610	1.611	-8.90767E-001	-1.66466E-004	0.00000E+000	-8.90000E-001	-8.29272E-004	10	..........a	-327.74
	1617	1.618	-8.83792E-001	-1.65380E-004	0.00000E+000	-8.83000E-001	-8.29272E-004	10	..........a	-327.74
	1624	1.625	-8.76642E-001	-1.65463E-004	0.00000E+000	-8.76000E-001	-7.45939E-004	10	..........a	-327.74
	1631	1.632	-8.69759E-001	-1.63458E-004	0.00000E+000	-8.69000E-001	-8.12605E-004	10	..........a	-327.74
	1638	1.639	-8.62801E-001	-1.62957E-004	0.00000E+000	-8.62000E-001	-7.95939E-004	10	..........a	-327.74
	1645	1.646	-8.55709E-001	-1.60283E-004	0.00000E+000	-8.55000E-001	-7.95939E-004	10	..........a	-327.74
	1652	1.653	-8.48759E-001	-1.58278E-004	0.00000E+000	-8.48000E-001	-8.12605E-004	10	..........a	-327.74
	1659	1.66	-8.41809E-001	-1.59615E-004	0.00000E+000	-8.41000E-001	-7.79272E-004	10	..........a	-327.74
	1666	1.667	-8.34817E-001	-1.58612E-004	0.00000E+000	-8.34000E-001	-8.12605E-004	10	..........a	-327.74
	1673	1.674	-8.27792E-001	-1.56356E-004	0.00000E+000	-8.27000E-001	-8.62605E-004	10	..........a	-327.74
	1680	1.681	-8.20676E-001	-1.51594E-004	0.00000E+000	-8.20000E-001	-8.29272E-004	10	..........a	-327.74
	1687	1.688	-8.13917E-001	-1.52012E-004	0.00000E+000	-8.13000E-001	-8.62605E-004	10	..........a	-327.74
	1694	1.695	-8.06859E-001	-1.51009E-004	0.00000E+000	-8.06000E-001	-8.79272E-004	10	..........a	-327.74
	1701	1.702	-7.99792E-001	-1.48586E-004	0.00000E+000	-7.99000E-001	-8.12605E-004	10	..........a	-327.74
	1708	1.709	-7.92901E-001	-1.47751E-004	0.00000E+000	-7.92000E-001	-8.45939E-004	10	..........a	-327.74
	1715	1.716	-7.85892E-001	-1.46664E-004	0.00000E+000	-7.85000E-001	-7.62605E-004	10	..........a	-327.74
	1722	1.723	-7.78859E-001	-1.46581E-004	0.00000E+000	-7.78000E-001	-8.62605E-004	10	..........a	-327.74
	1729	1.73	-7.71826E-001	-1.45495E-004	0.00000E+000	-7.71000E-001	-8.29272E-004	10	..........a	-327.74
	1736	1.737	-7.64792E-001	-1.44659E-004	0.00000E+000	-7.64000E-001	-8.29272E-004	10	..........a	-327.74
	1743	1.744	-7.57917E-001	-1.42403E-004	0.00000E+000	-7.57000E-001	-8.12605E-004	10	..........a	-327.74
	1750	1.751	-7.50842E-001	-1.41401E-004	0.00000E+000	-7.50000E-001	-8.79272E-004	10	..........a	-327.74
	1757	1.758	-7.43834E-001	-1.37808E-004	0.00000E+000	-7.43000E-001	-7.45939E-004	10	..........a	-327.74
	1764	1.765	-7.36851E-001	-1.36722E-004	0.00000E+000	-7.36000E-001	-8.29272E-004	10	..........a	-327.74
	1771	1.772	-7.29926E-001	-1.36054E-004	0.00000E+000	-7.29000E-001	-8.12605E-004	10	..........a	-327.74
	1778	1.779	-7.22901E-001	-1.33464E-004	0.00000E+000	-7.22000E-001	-8.45939E-004	10	..........a	-327.74
	1785	1.786	-7.15909E-001	-1.32628E-004	0.00000E+000	-7.15000E-001	-8.12605E-004	10	..........a	-327.74
	1792	1.793	-7.08892E-001	-1.31626E-004	0.00000E+000	-7.08000E-001	-8.45939E-004	10	..........a	-327.74
	1799	1.8	-7.01909E-001	-1.28116E-004	0.00000E+000	-7.01000E-001	-7.79272E-004	10	..........a	-327.74
	1806	1.807	-6.94817E-001	-1.27197E-004	0.00000E+000	-6.94000E-001	-8.12605E-004	10	..........a	-327.74
	1813	1.814	-6.87842E-001	-1.24524E-004	0.00000E+000	-6.87000E-001	-8.45939E-004	10	..........a	-327.74
	1820	1.821	-6.80876E-001	-1.23020E-004	0.00000E+000	-6.80000E-001	-7.95939E-004	10	..........a	-327.74
	1827	1.828	-6.73551E-001	-1.21265E-004	0.00000E+000	-6.73000E-001	-7.62605E-004	10	..........a	-327.74
	1834	1.835	-6.66859E-001	-1.18258E-004	0.00000E+000	-6.66000E-001	-7.29272E-004	10	..........a	-327.74
	1841	1.842	-6.59909E-001	-1.15166E-004	0.00000E+000	-6.59000E-001	-8.29272E-004	10	..........a	-327.74
	1848	1.849	-6.52901E-001	-1.11239E-004	0.00000E+000	-6.52000E-001	-8.95939E-004	10	..........a	-327.74
	1855	1.856	-6.45926E-001	-1.10070E-004	0.00000E+000	-6.45000E-001	-8.12605E-004	10	..........a	-327.74
	1862	1.863	-6.38842E-001	-1.05391E-004	0.00000E+000	-6.38000E-001	-8.12605E-004	10	..........a	-327.74
	1869	1.87	-6.31851E-001	-1.00545E-004	0.00000E+000	-6.31000E-001	-7.79272E-004	10	..........a	-327.74
	1876	1.877	-6.24984E-001	-9.44460E-005	0.00000E+000	-6.24000E-001	-7.95939E-004	10	..........a	-327.74
	1883	1.884	-6.17901E-001	-8.82633E-005	0.00000E+000	-6.17000E-001	-7.79272E-004	10	..........a	-327.74
	1890	1.891	-6.10951E-001	-8.02426E-005	0.00000E+000	-6.10000E-001	-7.79272E-004	10	..........a	-327.74
	1897	1.898	-6.03959E-001	-7.23889E-005	0.00000E+000	-6.03000E-001	-8.45939E-004	10	..........a	-327.74
	1904	1.905	-5.96759E-001	-6.39504E-005	0.00000E+000	-5.96000E-001	-7.95939E-004	10	..........a	-327.74
	1911	1.912	-5.89976E-001	-5.14180E-005	0.00000E+000	-5.89000E-001	-8.29272E-004	10	..........a	-327.74
	1918	1.919	-5.82926E-001	-3.97211E-005	0.00000E+000	-5.82000E-001	-8.29272E-004	10	..........a	-327.74
	1925	1.926	-5.75984E-001	-2.93609E-005	0.00000E+000	-5.75000E-001	-7.79272E-004	10	..........a	-327.74
	1932	1.933	-5.69042E-001	-1.33194E-005	0.00000E+000	-5.68000E-001	-8.12605E-004	10	..........a	-327.74
	1939	1.94	-5.61967E-001	3.72467E-006	0.00000E+000	-5.61000E-001	-8.29272E-004	10	..........a	-327.74
	1946	1.947	-5.54951E-001	2.21056E-005	0.00000E+000	-5.54000E-001	-8.62605E-004	10	..........a	-327.74
	1953	1.954	-5.48009E-001	3.82306E-005	0.00000E+000	-5.47000E-001	-8.95939E-004	10	..........a	-327.74
	1960	1.961	-5.40884E-001	5.54418E-005	0.00000E+000	-5.40000E-001	-8.29272E-004	10	..........a	-327.74
	1967	1.968	-5.34034E-001	7.18175E-005	0.00000E+000	-5.33000E-001	-8.29272E-004	10	..........a	-327.74
	1974	1.975	-5.26926E-001	8.90287E-005	0.00000E+000	-5.26000E-001	-8.29272E-004	10	..........a	-327.74
	1981	1.982	-5.19792E-001	1.04485E-004	0.00000E+000	-5.19000E-001	-7.62605E-004	10	..........a	-327.74
	1988	1.989	-5.13017E-001	1.19691E-004	0.00000E+000	-5.12000E-001	-8.45939E-004	10	..........a	-327.74
	1995	1.996	-5.06034E-001	1.37320E-004	0.00000E+000	-5.05000E-001	-8.29272E-004	10	..........a	-327.74
	2002	2.003	-4.98909E-001	1.52693E-004	0.00000E+000	-4.98000E-001	-8.79272E-004	10	..........a	-327.74
	2009	2.01	-4.92017E-001	1.66813E-004	0.00000E+000	-4.91000E-001	-8.29272E-004	10	..........a	-327.74
	2016	2.017	-4.85059E-001	1.79513E-004	0.00000E+000	-4.84000E-001	-8.29272E-004	10	..........a	-327.74
	2023	2.024	-4.77976E-001	1.91795E-004	0.00000E+000	-4.77000E-001	-9.29272E-004	10	..........a	-327.74
	2030	2.031	-4.71042E-001	2.02740E-004	0.00000E+000	-4.70000E-001	-8.62605E-004	10	..........a	-327.74
	2037	2.038	-4.63817E-001	2.12431E-004	0.00000E+000	-4.63000E-001	-8.45939E-004	10	..........a	-327.74
	2044	2.045	-4.57009E-001	2.20034E-004	0.00000E+000	-4.56000E-001	-8.62605E-004	10	..........a	-327.74
	2051	2.052	-4.50009E-001	2.24964E-004	0.00000E+000	-4.49000E-001	-7.95939E-004	10	..........a	-327.74
	2058	2.059	-4.42934E-001	2.29058E-004	0.00000E+000	-4.42000E-001	-8.29272E-004	10	..........a	-327.74
	2065	2.066	-4.36001E-001	2.30562E-004	0.00000E+000	-4.35000E-001	-8.12605E-004	10	..........a	-327.74
	2072	2.073	-4.29051E-001	2.28974E-004	0.00000E+000	-4.28000E-001	-7.95939E-004	10	..........a	-327.74
	2079	2.08	-4.21992E-001	2.28723E-004	0.00000E+000	-4.21000E-001	-8.29272E-004	10	..........a	-327.74
	2086	2.087	-4.14909E-001	2.24630E-004	0.00000E+000	-4.14000E-001	-8.95939E-004	10	..........a	-327.74
	2093	2.094	-4.07926E-001	2.20536E-004	0.00000E+000	-4.07000E-001	-8.79272E-004	10	..........a	-327.74
	2100	2.101	-4.01009E-001	2.17862E-004	0.00000E+000	-4.00000E-001	-7.12606E-004	10	..........a	-327.74
	2107	2.108	-3.94001E-001	2.12849E-004	0.00000E+000	-3.93000E-001	-8.79272E-004	10	..........a	-327.74
	2114	2.115	-3.86984E-001	2.10175E-004	0.00000E+000	-3.86000E-001	-8.29272E-004	10	..........a	-327.74
	2121	2.122	-3.80017E-001	2.03492E-004	0.00000E+000	-3.79000E-001	-8.62605E-004	10	..........a	-327.74
	2128	2.129	-3.73001E-001	2.00985E-004	0.00000E+000	-3.72000E-001	-8.45939E-004	10	..........a	-327.74
	2135	2.136	-3.66042E-001	1.96808E-004	0.00000E+000	-3.65000E-001	-8.79272E-004	10	..........a	-327.74
	2142	2.143	-3.58984E-001	1.91795E-004	0.00000E+000	-3.58000E-001	-8.29272E-004	10	..........a	-327.74
	2149	2.15	-3.51959E-001	1.88536E-004	0.00000E+000	-3.51000E-001	-8.62605E-004	10	..........a	-327.74
	2156	2.157	-3.45067E-001	1.86615E-004	0.00000E+000	-3.44000E-001	-8.45939E-004	10	..........a	-327.74
	2163	2.164	-3.38026E-001	1.83356E-004	0.00000E+000	-3.37000E-001	-8.79272E-004	10	..........a	-327.74
	2170	2.171	-3.30984E-001	1.80098E-004	0.00000E+000	-3.30000E-001	-8.95939E-004	10	..........a	-327.74
	2177	2.178	-3.24034E-001	1.78427E-004	0.00000E+000	-3.23000E-001	-8.45939E-004	10	..........a	-327.74
	2184	2.185	-3.16984E-001	1.75670E-004	0.00000E+000	-3.16000E-001	-8.29272E-004	10	..........a	-327.74
	2191	2.192	-3.10009E-001	1.71993E-004	0.00000E+000	-3.09000E-001	-7.79272E-004	10	..........a	-327.74
	2198	2.199	-3.02992E-001	1.72244E-004	0.00000E+000	-3.02000E-001	-8.95939E-004	10	..........a	-327.74
	2205	2.206	-2.96009E-001	1.69320E-004	0.00000E+000	-2.95000E-001	-8.29272E-004	10	..........a	-327.74
	2212	2.213	-2.89067E-001	1.68986E-004	0.00000E+000	-2.88000E-001	-8.45939E-004	10	..........a	-327.74
	2219	2.22	-2.82026E-001	1.65560E-004	0.00000E+000	-2.81000E-001	-9.12605E-004	10	..........a	-327.74
	2226	2.227	-2.75017E-001	1.63388E-004	0.00000E+000	-2.74000E-001	-8.62605E-004	10	..........a	-327.74
	2233	2.234	-2.68109E-001	1.62302E-004	0.00000E+000	-2.67000E-001	-8.29272E-004	10	..........a	-327.74
	2240	2.241	-2.61059E-001	1.60464E-004	0.00000E+000	-2.60000E-001	-8.45939E-004	10	..........a	-327.74
	2247	2.248	-2.54067E-001	1.58041E-004	0.00000E+000	-2.53000E-001	-8.45939E-004	10	..........a	-327.74
	2254	2.255	-2.47084E-001	1.56620E-004	0.00000E+000	-2.46000E-001	-8.29272E-004	10	..........a	-327.74
	2261	2.262	-2.39851E-001	1.54699E-004	0.00000E+000	-2.39000E-001	-7.79272E-004	10	..........a	-327.74
	2268	2.269	-2.33159E-001	1.52526E-004	0.00000E+000	-2.32000E-001	-7.95939E-004	10	..........a	-327.74
	2275	2.276	-2.26059E-001	1.50939E-004	0.00000E+000	-2.25000E-001	-8.29272E-004	10	..........a	-327.74
	2282	2.283	-2.19026E-001	1.47848E-004	0.00000E+000	-2.18000E-001	-8.79272E-004	10	..........a	-327.74
	2289	2.29	-2.12001E-001	1.46845E-004	0.00000E+000	-2.11000E-001	-8.62605E-004	10	..........a	-327.74
	2296	2.297	-2.05034E-001	1.43837E-004	0.00000E+000	-2.04000E-001	-8.62605E-004	10	..........a	-327.74
	2303	2.304	-1.98101E-001	1.43252E-004	0.00000E+000	-1.97000E-001	-9.45939E-004	10	..........a	-327.74
	2310	2.311	-1.91026E-001	1.40996E-004	0.00000E+000	-1.90000E-001	-7.45939E-004	10	..........a	-327.74
	2317	2.318	-1.84042E-001	1.39409E-004	0.00000E+000	-1.83000E-001	-8.62605E-004	10	..........a	-327.74
	2324	2.325	-1.77109E-001	1.37822E-004	0.00000E+000	-1.76000E-001	-8.29272E-004	10	..........a	-327.74
	2331	2.332	-1.70084E-001	1.34396E-004	0.00000E+000	-1.69000E-001	-8.45939E-004	10	..........a	-327.74
	2338	2.339	-1.62992E-001	1.33143E-004	0.00000E+000	-1.62000E-001	-8.12605E-004	10	..........a	-327.74
	2345	2.346	-1.56067E-001	1.30052E-004	0.00000E+000	-1.55000E-001	-7.95939E-004	10	..........a	-327.74
	2352	2.353	-1.49151E-001	1.27211E-004	0.00000E+000	-1.48000E-001	-8.45939E-004	10	..........a	-327.74
	2359	2.36	-1.42059E-001	1.26459E-004	0.00000E+000	-1.41000E-001	-8.12605E-004	10	..........a	-327.74
	2366	2.367	-1.35092E-001	1.24704E-004	0.00000E+000	-1.34000E-001	-8.29272E-004	10	..........a	-327.74
	2373	2.374	-1.28134E-001	1.21195E-004	0.00000E+000	-1.27000E-001	-8.79272E-004	10	..........a	-327.74
	2380	2.381	-1.21159E-001	1.17686E-004	0.00000E+000	-1.20000E-001	-8.45939E-004	10	..........a	-327.74
	2387	2.388	-1.14067E-001	1.18020E-004	0.00000E+000	-1.13000E-001	-8.45939E-004	10	..........a	-327.74
	2394	2.395	-1.07009E-001	1.14762E-004	0.00000E+000	-1.06000E-001	-8.62605E-004	10	..........a	-327.74
	2401	2.402	-1.00234E-001	1.11504E-004	0.00000E+000	-9.90000E-002	-9.12605E-004	10	..........a	-327.74
	2408	2.409	-9.31757E-002	1.12005E-004	0.00000E+000	-9.20000E-002	-8.29272E-004	10	..........a	-327.74
	2415	2.416	-8.60423E-002	1.11169E-004	0.00000E+000	-8.50000E-002	-8.29272E-004	10	..........a	-327.74
	2422	2.423	-7.91423E-002	1.10835E-004	0.00000E+000	-7.80000E-002	-8.62605E-004	10	..........a	-327.74
	2429	2.43	-7.20923E-002	1.08496E-004	0.00000E+000	-7.10000E-002	-8.12605E-004	10	..........a	-327.74
	2436	2.437	-6.50923E-002	1.07242E-004	0.00000E+000	-6.40000E-002	-8.62605E-004	10	..........a	-327.74
	2443	2.444	-5.81840E-002	1.07242E-004	0.00000E+000	-5.70000E-002	-8.79272E-004	10	..........a	-327.74
	2450	2.451	-5.10173E-002	1.06073E-004	0.00000E+000	-5.00000E-002	-8.29272E-004	10	..........a	-327.74
	2457	2.458	-4.42090E-002	1.04736E-004	0.00000E+000	-4.30000E-002	-8.62605E-004	10	..........a	-327.74
	2464	2.465	-3.71257E-002	1.03149E-004	0.00000E+000	-3.60000E-002	-8.29272E-004	10	..........a	-327.74
	2471	2.472	-3.01423E-002	1.01561E-004	0.00000E+000	-2.90000E-002	-7.95939E-004	10	..........a	-327.74
	2478	2.479	-2.31340E-002	9.95559E-005	0.00000E+000	-2.20000E-002	-7.95939E-004	10	..........a	-327.74
	2485	2.486	-1.61173E-002	9.72166E-005	0.00000E+000	-1.50000E-002	-7.95939E-004	10	..........a	-327.74
	2492	2.493	-9.18400E-003	9.63811E-005	0.00000E+000	-8.00000E-003	-8.12605E-004	10	..........a	-327.74
	2499	2.5	-2.08400E-003	9.73837E-005	0.00000E+000	-1.00000E-003	-7.62605E-004	10	..........a	-327.74
	2506	2.507	4.93267E-003	9.65482E-005	0.00000E+000	5.99998E-003	-7.95939E-004	10	..........a	-327.74
	2513	2.514	1.17743E-002	9.59633E-005	0.00000E+000	1.30000E-002	-8.45939E-004	10	..........a	-327.74
	2520	2.521	1.88577E-002	9.49607E-005	0.00000E+000	2.00000E-002	-9.12605E-004	10	..........a	-327.74
	2527	2.528	2.58827E-002	9.45430E-005	0.00000E+000	2.70000E-002	-8.29272E-004	10	..........a	-327.74
	2534	2.535	3.28493E-002	9.40417E-005	0.00000E+000	3.40000E-002	-8.95939E-004	10	..........a	-327.74
	2541	2.542	4.00243E-002	9.35404E-005	0.00000E+000	4.10000E-002	-7.95939E-004	10	..........a	-327.74
	2548	2.549	4.67910E-002	9.32897E-005	0.00000E+000	4.80000E-002	-8.79272E-004	10	..........a	-327.74
	2555	2.556	5.38827E-002	9.30391E-005	0.00000E+000	5.50000E-002	-8.62605E-004	10	..........a	-327.74
	2562	2.563	6.09077E-002	9.28720E-005	0.00000E+000	6.20000E-002	-8.45939E-004	10	..........a	-327.74
	2569	2.57	6.77160E-002	9.26213E-005	0.00000E+000	6.90000E-002	-8.45939E-004	10	..........a	-327.74
	2576	2.577	7.49077E-002	9.17858E-005	0.00000E+000	7.60000E-002	-7.95939E-004	10	..........a	-327.74
	2583	2.584	8.18493E-002	9.21200E-005	0.00000E+000	8.30000E-002	-8.95939E-004	10	..........a	-327.74
	2590	2.591	8.87743E-002	9.16187E-005	0.00000E+000	9.00000E-002	-7.95939E-004	10	..........a	-327.74
	2597	2.598	9.59660E-002	9.20365E-005	0.00000E+000	9.70000E-002	-7.95939E-004	10	..........a	-327.74
	2604	2.605	1.02783E-001	9.10339E-005	0.00000E+000	1.04000E-001	-8.45939E-004	10	..........a	-327.74
	2611	2.612	1.09808E-001	9.10339E-005	0.00000E+000	1.11000E-001	-8.62605E-004	10	..........a	-327.74
	2618	2.619	1.16974E-001	9.17023E-005	0.00000E+000	1.18000E-001	-7.95939E-004	10	..........a	-327.74
	2625	2.626	1.23791E-001	9.10339E-005	0.00000E+000	1.25000E-001	-7.62605E-004	10	..........a	-327.74
	2632	2.633	1.30799E-001	8.98642E-005	0.00000E+000	1.32000E-001	-8.45939E-004	10	..........a	-327.74
	2639	2.64	1.37808E-001	8.90287E-005	0.00000E+000	1.39000E-001	-8.79272E-004	10	..........a	-327.74
	2646	2.647	1.44816E-001	9.06162E-005	0.00000E+000	1.46000E-001	-7.62605E-004	10	..........a	-327.74
	2653	2.654	1.51799E-001	9.07832E-005	0.00000E+000	1.53000E-001	-8.62605E-004	10	..........a	-327.74
	2660	2.661	1.58808E-001	9.02820E-005	0.00000E+000	1.60000E-001	-7.79272E-004	10	..........a	-327.74
	2667	2.668	1.65816E-001	8.82768E-005	0.00000E+000	1.67000E-001	-7.62605E-004	10	..........a	-327.74
	2674	2.675	1.72991E-001	8.91958E-005	0.00000E+000	1.74000E-001	-7.95939E-004	10	..........a	-327.74
	2681	2.682	1.79733E-001	9.10339E-005	0.00000E+000	1.81000E-001	-8.29272E-004	10	..........a	-327.74
	2688	2.689	1.86741E-001	9.01149E-005	0.00000E+000	1.88000E-001	-7.62605E-004	10	..........a	-327.74
	2695	2.696	1.93783E-001	8.91958E-005	0.00000E+000	1.95000E-001	-7.95939E-004	10	..........a	-327.74
	2702	2.703	2.00766E-001	8.99477E-005	0.00000E+000	2.02000E-001	-7.95939E-004	10	..........a	-327.74
	2709	2.71	2.07791E-001	8.89452E-005	0.00000E+000	2.09000E-001	-7.45939E-004	10	..........a	-327.74
	2716	2.717	2.14749E-001	8.83603E-005	0.00000E+000	2.16000E-001	-8.12605E-004	10	..........a	-327.74
	2723	2.724	2.21791E-001	8.55196E-005	0.00000E+000	2.23000E-001	-8.45939E-004	10	..........a	-327.74
	2730	2.731	2.28958E-001	8.81097E-005	0.00000E+000	2.30000E-001	-7.79272E-004	10	..........a	-327.74
	2737	2.738	2.35741E-001	8.67729E-005	0.00000E+000	2.37000E-001	-9.12605E-004	10	..........a	-327.74
	2744	2.745	2.42774E-001	8.59374E-005	0.00000E+000	2.44000E-001	-8.95939E-004	10	..........a	-327.74
	2751	2.752	2.49791E-001	8.48512E-005	0.00000E+000	2.51000E-001	-8.29272E-004	10	..........a	-327.74
	2758	2.759	2.56699E-001	8.25118E-005	0.00000E+000	2.58000E-001	-8.12605E-004	10	..........a	-327.74
	2765	2.766	2.63749E-001	8.33473E-005	0.00000E+000	2.65000E-001	-7.95939E-004	10	..........a	-327.74
	2772	2.773	2.70666E-001	8.20941E-005	0.00000E+000	2.72000E-001	-8.62605E-004	10	..........a	-327.74
	2779	2.78	2.77783E-001	8.04231E-005	0.00000E+000	2.79000E-001	-8.45939E-004	10	..........a	-327.74
	2786	2.787	2.84799E-001	8.00889E-005	0.00000E+000	2.86000E-001	-8.29272E-004	10	..........a	-327.74
	2793	2.794	2.91741E-001	7.93370E-005	0.00000E+000	2.93000E-001	-8.95939E-004	10	..........a	-327.74
	2800	2.801	2.98841E-001	7.97547E-005	0.00000E+000	3.00000E-001	-8.62605E-004	10	..........a	-327.74
	2807	2.808	3.05833E-001	7.74153E-005	0.00000E+000	3.07000E-001	-8.12605E-004	10	..........a	-327.74
	2814	2.815	3.12633E-001	7.84179E-005	0.00000E+000	3.14000E-001	-8.62605E-004	10	..........a	-327.74
	2821	2.822	3.19783E-001	7.65798E-005	0.00000E+000	3.21000E-001	-7.79272E-004	10	..........a	-327.74
	2828	2.829	3.26758E-001	7.54101E-005	0.00000E+000	3.28000E-001	-7.95939E-004	10	..........a	-327.74
	2835	2.836	3.33724E-001	7.60785E-005	0.00000E+000	3.35000E-001	-8.79272E-004	10	..........a	-327.74
	2842	2.843	3.40649E-001	7.59114E-005	0.00000E+000	3.42000E-001	-8.29272E-004	10	..........a	-327.74
	2849	2.85	3.47716E-001	7.44075E-005	0.00000E+000	3.49000E-001	-8.29272E-004	10	..........a	-327.74
	2856	2.857	3.54758E-001	7.54101E-005	0.00000E+000	3.56000E-001	-8.95939E-004	10	..........a	-327.74
	2863	2.864	3.61791E-001	7.39062E-005	0.00000E+000	3.63000E-001	-6.45939E-004	10	..........a	-327.74
	2870	2.871	3.68708E-001	7.13998E-005	0.00000E+000	3.70000E-001	-8.62605E-004	10	..........a	-327.74
	2877	2.878	3.75874E-001	7.24023E-005	0.00000E+000	3.77000E-001	-8.29272E-004	10	..........a	-327.74
	2884	2.885	3.82658E-001	7.02301E-005	0.00000E+000	3.84000E-001	-7.95939E-004	10	..........a	-327.74
	2891	2.892	3.89666E-001	6.93110E-005	0.00000E+000	3.91000E-001	-8.29272E-004	10	..........a	-327.74
	2898	2.899	3.96691E-001	6.94781E-005	0.00000E+000	3.98000E-001	-7.79272E-004	10	..........a	-327.74
	2905	2.906	4.03674E-001	6.87262E-005	0.00000E+000	4.05000E-001	-8.79272E-004	10	..........a	-327.74
	2912	2.913	4.10741E-001	6.78907E-005	0.00000E+000	4.12000E-001	-7.95939E-004	10	..........a	-327.74
	2919	2.92	4.17749E-001	6.68881E-005	0.00000E+000	4.19000E-001	-8.29272E-004	10	..........a	-327.74
	2926	2.927	4.24641E-001	6.53007E-005	0.00000E+000	4.26000E-001	-8.12605E-004	10	..........a	-327.74
	2933	2.934	4.31716E-001	6.70552E-005	0.00000E+000	4.33000E-001	-8.12605E-004	10	..........a	-327.74
	2940	2.941	4.38691E-001	6.71387E-005	0.00000E+000	4.40000E-001	-8.62605E-004	10	..........a	-327.74
	2947	2.948	4.45658E-001	6.49665E-005	0.00000E+000	4.47000E-001	-8.62605E-004	10	..........a	-327.74
	2954	2.955	4.52933E-001	6.56348E-005	0.00000E+000	4.54000E-001	-9.12605E-004	10	..........a	-327.74
	2961	2.962	4.59691E-001	6.32955E-005	0.00000E+000	4.61000E-001	-8.79272E-004	10	..........a	-327.74
	2968	2.969	4.66749E-001	6.30448E-005	0.00000E+000	4.68000E-001	-8.95939E-004	10	..........a	-327.74
	2975	2.976	4.73758E-001	6.27106E-005	0.00000E+000	4.75000E-001	-8.79272E-004	10	..........a	-327.74
	2982	2.983	4.80541E-001	6.16245E-005	0.00000E+000	4.82000E-001	-8.79272E-004	10	..........a	-327.74
	2989	2.99	4.87658E-001	6.20422E-005	0.00000E+000	4.89000E-001	-8.45939E-004	10	..........a	-327.74
	2996	2.997	4.94683E-001	6.17080E-005	0.00000E+000	4.96000E-001	-8.29272E-004	10	..........a	-327.74
	3000	3.001	4.98633E-001	6.10396E-005	0.00000E+000	5.00000E-001	-8.79272E-004	10	..........a	-327.74
CURVE2	TABLE
	Pt	T	Vf	Im	Vu	Sig	Ach	IERange	Over	Temp
	#	s	V vs. Ref.	A	V	V	V	#	bits	deg C
	3001	3.002	4.98708E-001	6.03712E-005	0.00000E+000	5.00000E-001	-8.45939E-004	10	..........a	-327.74