File: data/02-SI/Figures_S9_S11_RDE/15btmapaq-rde/1mkcl-15btmapaq-nitrogen-2000mvpers.DTA
EXPLAIN
TAG	CV
TITLE	LABEL	Cyclic Voltammetry	Test &Identifier
DATE	LABEL	1/31/2023	Date
TIME	LABEL	18:20:57	Time
NOTES	NOTES	1	&Notes...

PSTAT	PSTAT	REF3000-21108	Potentiostat
VINIT	POTEN	5.00000E-001	F	Initial &E (V)
VLIMIT1	POTEN	-1.00000E+000	F	Scan Limit &1 (V)
VLIMIT2	POTEN	5.00000E-001	F	Scan Limit &2 (V)
VFINAL	POTEN	5.00000E-001	F	Final &E (V)
SCANRATE	QUANT	2.00000E+003	&Scan Rate (mV/s)
STEPSIZE	QUANT	1.00000E+000	St&ep Size (mV)
CYCLES	IQUANT	1	C&ycles (#)
IMODE	SELECTOR	1	I/E Range &Mode
IRANGE	QUANT	1.00000E+001	&Max Current (mA)
AREA	QUANT	1.00000E+000	Electrode &Area (cm^2)
ELECTRODETYPE	SELECTOR	0	Electrode Type
STRIPPING	TOGGLE	F	Used for Stripping
POLARITY	TOGGLE	F	Signal Polarity
CONDIT	TWOPARAM	F	1.50000E+001	0.00000E+000	Conditionin&g	Time(s)	E(V)
DELAY	TWOPARAM	F	5.00000E+000	0.00000E+000	Init. De&lay	Time(s)	Stab.(mV/s)
EQDELAY	QUANT	0.00000E+000	Equil. &Time (s)
IRCOMP	SELECTOR	0	IRCom&p
PFCOR	QUANT	5.00000E+001	PF Corr. (ohm)
SAMPLINGMODE	SELECTOR	1	Sampling &Mode
EOC	QUANT	0	Open Circuit (V)
PSTATMODEL	IQUANT	5	Pstat Model
PSTATSECTION	LABEL	REF3000-21108	Pstat Section
PSTATSERIALNO	LABEL	21108	Pstat Serial Number
CTRLMODE	IQUANT	1	Control Mode
ELECTROMETER	IQUANT	0	RE=0 or CS=1
IESTAB	IQUANT	2	I/E Stability
CASPEED	IQUANT	4	Control Amp Speed
CONVENTION	IQUANT	1	Current Convention
ICHRANGE	IQUANT	2	Ich Range
ICHRANGEMODE	TOGGLE	F	Ich Auto Range
ICHOFFSETENABLE	TOGGLE	F	Ich Offset Enable
ICHOFFSET	QUANT	0	Ich Offset (V)
ICHFILTER	IQUANT	1	Ich Filter
VCHRANGE	IQUANT	2	Vch Range
VCHRANGEMODE	TOGGLE	F	Vch Auto Range
VCHOFFSETENABLE	TOGGLE	F	Vch Offset Enable
VCHOFFSET	QUANT	0	Vch Offset (V)
VCHFILTER	IQUANT	1	Vch Filter
ACHRANGE	IQUANT	2	Ach Range
ACHOFFSETENABLE	TOGGLE	F	Ach Offset Enable
ACHOFFSET	QUANT	0	Ach Offset (V)
ACHFILTER	IQUANT	0	Ach Filter
IERANGELOWERLIMIT	IQUANT	2	I/E Range Lower Limit
IERANGEMODE	TOGGLE	F	I/E AutoRange
IERANGE	IQUANT	10	I/E Range
POSFEEDENABLE	TOGGLE	F	Positive Feedback IR Comp
POSFEEDRESISTANCE	QUANT	0	Positive Feedback Resistance (ohm)
ACHSELECT	IQUANT	0	Ach Select
SENSECABLEID	IQUANT	14	Sense Cable ID
PWRCABLEID	IQUANT	7	Power Cable ID
DCCALDATE	LABEL	11/9/2022	DC Calibration Date
ACCALDATE	LABEL	11/9/2022	AC Calibration Date
THERMOSELECT	IQUANT	1	Thermo Select
FRAMEWORKVERSION	LABEL	7.8.2	Framework Version
INSTRUMENTVERSION	LABEL	4.40	Instrument Version
COMPLIANCEVOLTAGE	IQUANT	0	Compliance Voltage
CURVE1	TABLE
	Pt	T	Vf	Im	Vu	Sig	Ach	IERange	Over	Temp
	#	s	V vs. Ref.	A	V	V	V	#	bits	deg C
	0	0.0005	4.98808E-001	6.37132E-005	0.00000E+000	5.00000E-001	-7.95939E-004	10	..........a	-327.74
	7	0.004	4.91774E-001	5.25176E-005	0.00000E+000	4.93000E-001	-9.62605E-004	10	..........a	-327.74
	14	0.0075	4.84724E-001	4.65020E-005	0.00000E+000	4.86000E-001	-8.95939E-004	10	..........a	-327.74
	21	0.011	4.77858E-001	4.29929E-005	0.00000E+000	4.79000E-001	-7.95939E-004	10	..........a	-327.74
	28	0.0145	4.70708E-001	3.94839E-005	0.00000E+000	4.72000E-001	-8.29272E-004	10	..........a	-327.74
	35	0.018	4.63741E-001	3.56406E-005	0.00000E+000	4.65000E-001	-7.62605E-004	10	..........a	-327.74
	42	0.0215	4.56724E-001	3.21315E-005	0.00000E+000	4.58000E-001	-8.62605E-004	10	..........a	-327.74
	49	0.025	4.49724E-001	3.11289E-005	0.00000E+000	4.51000E-001	-9.62605E-004	10	..........a	-327.74
	56	0.0285	4.42758E-001	2.64501E-005	0.00000E+000	4.44000E-001	-8.62605E-004	10	..........a	-327.74
	63	0.032	4.35791E-001	2.69514E-005	0.00000E+000	4.37000E-001	-8.29272E-004	10	..........a	-327.74
	70	0.0355	4.28658E-001	2.59488E-005	0.00000E+000	4.30000E-001	-8.95939E-004	10	..........a	-327.74
	77	0.039	4.21791E-001	2.44449E-005	0.00000E+000	4.23000E-001	-8.62605E-004	10	..........a	-327.74
	84	0.0425	4.14741E-001	2.12701E-005	0.00000E+000	4.16000E-001	-9.29272E-004	10	..........a	-327.74
	91	0.046	4.07758E-001	2.06017E-005	0.00000E+000	4.09000E-001	-9.62605E-004	10	..........a	-327.74
	98	0.0495	4.00674E-001	1.89307E-005	0.00000E+000	4.02000E-001	-8.29272E-004	10	..........a	-327.74
	105	0.053	3.93791E-001	1.72597E-005	0.00000E+000	3.95000E-001	-9.29272E-004	10	..........a	-327.74
	112	0.0565	3.86808E-001	1.77610E-005	0.00000E+000	3.88000E-001	-7.95939E-004	10	..........a	-327.74
	119	0.06	3.79824E-001	1.57558E-005	0.00000E+000	3.81000E-001	-9.29272E-004	10	..........a	-327.74
	126	0.0635	3.72691E-001	1.40848E-005	0.00000E+000	3.74000E-001	-8.62605E-004	10	..........a	-327.74
	133	0.067	3.65758E-001	1.34164E-005	0.00000E+000	3.67000E-001	-7.95939E-004	10	..........a	-327.74
	140	0.0705	3.58774E-001	1.22467E-005	0.00000E+000	3.60000E-001	-8.95939E-004	10	..........a	-327.74
	147	0.074	3.51741E-001	9.74023E-006	0.00000E+000	3.53000E-001	-8.62605E-004	10	..........a	-327.74
	154	0.0775	3.44774E-001	1.14112E-005	0.00000E+000	3.46000E-001	-9.29272E-004	10	..........a	-327.74
	161	0.081	3.37774E-001	1.05757E-005	0.00000E+000	3.39000E-001	-8.95939E-004	10	..........a	-327.74
	168	0.0845	3.30758E-001	8.57054E-006	0.00000E+000	3.32000E-001	-8.95939E-004	10	..........a	-327.74
	175	0.088	3.23741E-001	6.39825E-006	0.00000E+000	3.25000E-001	-9.62605E-004	10	..........a	-327.74
	182	0.0915	3.16741E-001	6.23115E-006	0.00000E+000	3.18000E-001	-9.29272E-004	10	..........a	-327.74
	189	0.095	3.09858E-001	5.06146E-006	0.00000E+000	3.11000E-001	-9.29272E-004	10	..........a	-327.74
	196	0.0985	3.02841E-001	6.23115E-006	0.00000E+000	3.04000E-001	-8.29272E-004	10	..........a	-327.74
	203	0.102	2.95741E-001	5.72986E-006	0.00000E+000	2.97000E-001	-8.62605E-004	10	..........a	-327.74
	210	0.1055	2.88774E-001	5.06146E-006	0.00000E+000	2.90000E-001	-8.62605E-004	10	..........a	-327.74
	217	0.109	2.81808E-001	4.89436E-006	0.00000E+000	2.83000E-001	-8.95939E-004	10	..........a	-327.74
	224	0.1125	2.74791E-001	1.55238E-006	0.00000E+000	2.76000E-001	-8.95939E-004	10	..........a	-327.74
	231	0.116	2.67791E-001	2.38788E-006	0.00000E+000	2.69000E-001	-8.29272E-004	10	..........a	-327.74
	238	0.1195	2.60841E-001	2.22078E-006	0.00000E+000	2.62000E-001	-8.62605E-004	10	..........a	-327.74
	245	0.123	2.53841E-001	7.16888E-007	0.00000E+000	2.55000E-001	-7.29272E-004	10	..........a	-327.74
	252	0.1265	2.46791E-001	-2.95929E-006	0.00000E+000	2.48000E-001	-9.29272E-004	10	..........a	-327.74
	259	0.13	2.39891E-001	-1.78960E-006	0.00000E+000	2.41000E-001	-6.62606E-004	10	..........a	-327.74
	266	0.1335	2.32824E-001	-1.95670E-006	0.00000E+000	2.34000E-001	-8.95939E-004	10	..........a	-327.74
	273	0.137	2.25741E-001	-4.79738E-006	0.00000E+000	2.27000E-001	-8.95939E-004	10	..........a	-327.74
	280	0.1405	2.18841E-001	-2.95929E-006	0.00000E+000	2.20000E-001	-9.29272E-004	10	..........a	-327.74
	287	0.144	2.11858E-001	-3.46059E-006	0.00000E+000	2.13000E-001	-9.29272E-004	10	..........a	-327.74
	294	0.1475	2.04841E-001	-2.62509E-006	0.00000E+000	2.06000E-001	-8.62605E-004	10	..........a	-327.74
	301	0.151	1.97858E-001	-6.30127E-006	0.00000E+000	1.99000E-001	-8.62605E-004	10	..........a	-327.74
	308	0.1545	1.90824E-001	-5.96707E-006	0.00000E+000	1.92000E-001	-8.29272E-004	10	..........a	-327.74
	315	0.158	1.83891E-001	-6.96967E-006	0.00000E+000	1.85000E-001	-9.29272E-004	10	..........a	-327.74
	322	0.1615	1.76841E-001	-7.30386E-006	0.00000E+000	1.78000E-001	-8.62605E-004	10	..........a	-327.74
	329	0.165	1.69824E-001	-6.96967E-006	0.00000E+000	1.71000E-001	-8.95939E-004	10	..........a	-327.74
	336	0.1685	1.62841E-001	-9.97745E-006	0.00000E+000	1.64000E-001	-7.95939E-004	10	..........a	-327.74
	343	0.172	1.55891E-001	-1.06458E-005	0.00000E+000	1.57000E-001	-8.62605E-004	10	..........a	-327.74
	350	0.1755	1.48824E-001	-8.30646E-006	0.00000E+000	1.50000E-001	-8.95939E-004	10	..........a	-327.74
	357	0.179	1.41908E-001	-1.04787E-005	0.00000E+000	1.43000E-001	-7.62605E-004	10	..........a	-327.74
	364	0.1825	1.34824E-001	-1.11471E-005	0.00000E+000	1.36000E-001	-8.62605E-004	10	..........a	-327.74
	371	0.186	1.27874E-001	-1.21497E-005	0.00000E+000	1.29000E-001	-9.29272E-004	10	..........a	-327.74
	378	0.1895	1.21024E-001	-1.28181E-005	0.00000E+000	1.22000E-001	-7.62605E-004	10	..........a	-327.74
	385	0.193	1.13891E-001	-1.33194E-005	0.00000E+000	1.15000E-001	-8.95939E-004	10	..........a	-327.74
	392	0.1965	1.06858E-001	-1.18155E-005	0.00000E+000	1.08000E-001	-8.62605E-004	10	..........a	-327.74
	399	0.2	9.97910E-002	-1.38207E-005	0.00000E+000	1.01000E-001	-8.62605E-004	10	..........a	-327.74
	406	0.2035	9.28743E-002	-1.28181E-005	0.00000E+000	9.40000E-002	-7.62605E-004	10	..........a	-327.74
	413	0.207	8.58910E-002	-1.01445E-005	0.00000E+000	8.70000E-002	-7.62605E-004	10	..........a	-327.74
	420	0.2105	7.88577E-002	-1.28181E-005	0.00000E+000	8.00000E-002	-8.62605E-004	10	..........a	-327.74
	427	0.214	7.18910E-002	-1.29852E-005	0.00000E+000	7.30000E-002	-8.29272E-004	10	..........a	-327.74
	434	0.2175	6.49910E-002	-1.44891E-005	0.00000E+000	6.60000E-002	-8.95939E-004	10	..........a	-327.74
	441	0.221	5.78743E-002	-1.33194E-005	0.00000E+000	5.90000E-002	-8.62605E-004	10	..........a	-327.74
	448	0.2245	5.09077E-002	-1.38207E-005	0.00000E+000	5.20000E-002	-8.62605E-004	10	..........a	-327.74
	455	0.228	4.38243E-002	-1.28181E-005	0.00000E+000	4.50000E-002	-8.95939E-004	10	..........a	-327.74
	462	0.2315	3.68743E-002	-1.38207E-005	0.00000E+000	3.80000E-002	-8.95939E-004	10	..........a	-327.74
	469	0.235	2.98743E-002	-1.51575E-005	0.00000E+000	3.10000E-002	-7.95939E-004	10	..........a	-327.74
	476	0.2385	2.29577E-002	-1.58259E-005	0.00000E+000	2.40000E-002	-9.29272E-004	10	..........a	-327.74
	483	0.242	1.57077E-002	-1.41549E-005	0.00000E+000	1.70000E-002	-7.62605E-004	10	..........a	-327.74
	490	0.2455	8.82434E-003	-1.39878E-005	0.00000E+000	9.99999E-003	-9.29272E-004	10	..........a	-327.74
	497	0.249	1.99100E-003	-1.31523E-005	0.00000E+000	2.99999E-003	-9.29272E-004	10	..........a	-327.74
	504	0.2525	-5.10900E-003	-1.33194E-005	0.00000E+000	-4.00001E-003	-7.29272E-004	10	..........a	-327.74
	511	0.256	-1.21923E-002	-1.48233E-005	0.00000E+000	-1.10000E-002	-8.95939E-004	10	..........a	-327.74
	518	0.2595	-1.91590E-002	-1.71627E-005	0.00000E+000	-1.80000E-002	-8.95939E-004	10	..........a	-327.74
	525	0.263	-2.61590E-002	-1.76640E-005	0.00000E+000	-2.50000E-002	-8.29272E-004	10	..........a	-327.74
	532	0.2665	-3.31090E-002	-1.56588E-005	0.00000E+000	-3.20000E-002	-9.29272E-004	10	..........a	-327.74
	539	0.27	-3.99757E-002	-1.59930E-005	0.00000E+000	-3.90000E-002	-9.29272E-004	10	..........a	-327.74
	546	0.2735	-4.70257E-002	-1.63272E-005	0.00000E+000	-4.60000E-002	-7.62605E-004	10	..........a	-327.74
	553	0.277	-5.40923E-002	-1.71627E-005	0.00000E+000	-5.30000E-002	-8.95939E-004	10	..........a	-327.74
	560	0.2805	-6.10757E-002	-1.73298E-005	0.00000E+000	-6.00000E-002	-8.29272E-004	10	..........a	-327.74
	567	0.284	-6.80757E-002	-1.84995E-005	0.00000E+000	-6.70000E-002	-8.29272E-004	10	..........a	-327.74
	574	0.2875	-7.50590E-002	-1.58259E-005	0.00000E+000	-7.40000E-002	-8.29272E-004	10	..........a	-327.74
	581	0.291	-8.21257E-002	-1.58259E-005	0.00000E+000	-8.10000E-002	-8.62605E-004	10	..........a	-327.74
	588	0.2945	-8.90257E-002	-1.69956E-005	0.00000E+000	-8.80000E-002	-7.95939E-004	10	..........a	-327.74
	595	0.298	-9.61090E-002	-1.69956E-005	0.00000E+000	-9.50000E-002	-8.29272E-004	10	..........a	-327.74
	602	0.3015	-1.03009E-001	-1.81653E-005	0.00000E+000	-1.02000E-001	-8.95939E-004	10	..........a	-327.74
	609	0.305	-1.10042E-001	-1.68285E-005	0.00000E+000	-1.09000E-001	-7.95939E-004	10	..........a	-327.74
	616	0.3085	-1.17092E-001	-2.01705E-005	0.00000E+000	-1.16000E-001	-8.62605E-004	10	..........a	-327.74
	623	0.312	-1.24126E-001	-1.76640E-005	0.00000E+000	-1.23000E-001	-8.62605E-004	10	..........a	-327.74
	630	0.3155	-1.31142E-001	-1.88337E-005	0.00000E+000	-1.30000E-001	-8.62605E-004	10	..........a	-327.74
	637	0.319	-1.38059E-001	-1.96692E-005	0.00000E+000	-1.37000E-001	-8.95939E-004	10	..........a	-327.74
	644	0.3225	-1.45092E-001	-2.05047E-005	0.00000E+000	-1.44000E-001	-8.29272E-004	10	..........a	-327.74
	651	0.326	-1.52092E-001	-2.00034E-005	0.00000E+000	-1.51000E-001	-9.29272E-004	10	..........a	-327.74
	658	0.3295	-1.59009E-001	-2.21757E-005	0.00000E+000	-1.58000E-001	-7.95939E-004	10	..........a	-327.74
	665	0.333	-1.66009E-001	-2.06718E-005	0.00000E+000	-1.65000E-001	-8.29272E-004	10	..........a	-327.74
	672	0.3365	-1.72959E-001	-2.13402E-005	0.00000E+000	-1.72000E-001	-9.62605E-004	10	..........a	-327.74
	679	0.34	-1.80059E-001	-2.26770E-005	0.00000E+000	-1.79000E-001	-8.62605E-004	10	..........a	-327.74
	686	0.3435	-1.87109E-001	-2.41809E-005	0.00000E+000	-1.86000E-001	-8.62605E-004	10	..........a	-327.74
	693	0.347	-1.94009E-001	-2.51835E-005	0.00000E+000	-1.93000E-001	-8.95939E-004	10	..........a	-327.74
	700	0.3505	-2.01059E-001	-2.36796E-005	0.00000E+000	-2.00000E-001	-8.95939E-004	10	..........a	-327.74
	707	0.354	-2.08026E-001	-2.56848E-005	0.00000E+000	-2.07000E-001	-6.95939E-004	10	..........a	-327.74
	714	0.3575	-2.14892E-001	-2.38467E-005	0.00000E+000	-2.14000E-001	-7.95939E-004	10	..........a	-327.74
	721	0.361	-2.21992E-001	-2.56848E-005	0.00000E+000	-2.21000E-001	-7.62605E-004	10	..........a	-327.74
	728	0.3645	-2.29092E-001	-2.73557E-005	0.00000E+000	-2.28000E-001	-6.95939E-004	10	..........a	-327.74
	735	0.368	-2.36009E-001	-2.81912E-005	0.00000E+000	-2.35000E-001	-9.62605E-004	10	..........a	-327.74
	742	0.3715	-2.42926E-001	-2.83583E-005	0.00000E+000	-2.42000E-001	-9.62605E-004	10	..........a	-327.74
	749	0.375	-2.49992E-001	-2.93609E-005	0.00000E+000	-2.49000E-001	-7.95939E-004	10	..........a	-327.74
	756	0.3785	-2.57059E-001	-3.08648E-005	0.00000E+000	-2.56000E-001	-7.29272E-004	10	..........a	-327.74
	763	0.382	-2.64009E-001	-3.10319E-005	0.00000E+000	-2.63000E-001	-9.29272E-004	10	..........a	-327.74
	770	0.3855	-2.70909E-001	-3.25358E-005	0.00000E+000	-2.70000E-001	-8.95939E-004	10	..........a	-327.74
	777	0.389	-2.78042E-001	-3.38726E-005	0.00000E+000	-2.77000E-001	-9.29272E-004	10	..........a	-327.74
	784	0.3925	-2.84942E-001	-3.50423E-005	0.00000E+000	-2.84000E-001	-8.62605E-004	10	..........a	-327.74
	791	0.396	-2.92026E-001	-3.42068E-005	0.00000E+000	-2.91000E-001	-7.95939E-004	10	..........a	-327.74
	798	0.3995	-2.98992E-001	-3.40397E-005	0.00000E+000	-2.98000E-001	-9.29272E-004	10	..........a	-327.74
	805	0.403	-3.05976E-001	-3.62120E-005	0.00000E+000	-3.05000E-001	-8.95939E-004	10	..........a	-327.74
	812	0.4065	-3.13092E-001	-3.87185E-005	0.00000E+000	-3.12000E-001	-8.95939E-004	10	..........a	-327.74
	819	0.41	-3.20009E-001	-3.93869E-005	0.00000E+000	-3.19000E-001	-8.95939E-004	10	..........a	-327.74
	826	0.4135	-3.26859E-001	-4.07237E-005	0.00000E+000	-3.26000E-001	-8.62605E-004	10	..........a	-327.74
	833	0.417	-3.33926E-001	-4.20605E-005	0.00000E+000	-3.33000E-001	-8.29272E-004	10	..........a	-327.74
	840	0.4205	-3.40992E-001	-4.17263E-005	0.00000E+000	-3.40000E-001	-7.95939E-004	10	..........a	-327.74
	847	0.424	-3.47959E-001	-4.27289E-005	0.00000E+000	-3.47000E-001	-8.62605E-004	10	..........a	-327.74
	854	0.4275	-3.55042E-001	-4.47340E-005	0.00000E+000	-3.54000E-001	-8.29272E-004	10	..........a	-327.74
	861	0.431	-3.61926E-001	-4.59037E-005	0.00000E+000	-3.61000E-001	-7.62605E-004	10	..........a	-327.74
	868	0.4345	-3.68842E-001	-4.59037E-005	0.00000E+000	-3.68000E-001	-8.29272E-004	10	..........a	-327.74
	875	0.438	-3.75959E-001	-4.89115E-005	0.00000E+000	-3.75000E-001	-7.95939E-004	10	..........a	-327.74
	882	0.4415	-3.82992E-001	-5.12509E-005	0.00000E+000	-3.82000E-001	-9.29272E-004	10	..........a	-327.74
	889	0.445	-3.89976E-001	-5.25877E-005	0.00000E+000	-3.89000E-001	-8.62605E-004	10	..........a	-327.74
	896	0.4485	-3.96909E-001	-6.06084E-005	0.00000E+000	-3.96000E-001	-8.62605E-004	10	..........a	-327.74
	903	0.452	-4.03926E-001	-6.44517E-005	0.00000E+000	-4.03000E-001	-7.29272E-004	10	..........a	-327.74
	910	0.4555	-4.11042E-001	-7.24725E-005	0.00000E+000	-4.10000E-001	-7.95939E-004	10	..........a	-327.74
	917	0.459	-4.17909E-001	-7.88222E-005	0.00000E+000	-4.17000E-001	-8.62605E-004	10	..........a	-327.74
	924	0.4625	-4.24976E-001	-8.76785E-005	0.00000E+000	-4.24000E-001	-7.62605E-004	10	..........a	-327.74
	931	0.466	-4.31942E-001	-1.00211E-004	0.00000E+000	-4.31000E-001	-8.29272E-004	10	..........a	-327.74
	938	0.4695	-4.38926E-001	-1.14414E-004	0.00000E+000	-4.38000E-001	-7.62605E-004	10	..........a	-327.74
	945	0.473	-4.46009E-001	-1.29286E-004	0.00000E+000	-4.45000E-001	-9.29272E-004	10	..........a	-327.74
	952	0.4765	-4.52892E-001	-1.43657E-004	0.00000E+000	-4.52000E-001	-8.62605E-004	10	..........a	-327.74
	959	0.48	-4.59792E-001	-1.59698E-004	0.00000E+000	-4.59000E-001	-7.95939E-004	10	..........a	-327.74
	966	0.4835	-4.66926E-001	-1.75071E-004	0.00000E+000	-4.66000E-001	-9.29272E-004	10	..........a	-327.74
	973	0.487	-4.73909E-001	-1.90946E-004	0.00000E+000	-4.73000E-001	-9.29272E-004	10	..........a	-327.74
	980	0.4905	-4.80892E-001	-2.06987E-004	0.00000E+000	-4.80000E-001	-8.29272E-004	10	..........a	-327.74
	987	0.494	-4.87876E-001	-2.23864E-004	0.00000E+000	-4.87000E-001	-7.29272E-004	10	..........a	-327.74
	994	0.4975	-4.94909E-001	-2.39571E-004	0.00000E+000	-4.94000E-001	-7.62605E-004	10	..........a	-327.74
	1001	0.501	-5.01942E-001	-2.55780E-004	0.00000E+000	-5.01000E-001	-8.95939E-004	10	..........a	-327.74
	1008	0.5045	-5.08792E-001	-2.77336E-004	0.00000E+000	-5.08000E-001	-8.95939E-004	10	..........a	-327.74
	1015	0.508	-5.15842E-001	-3.00563E-004	0.00000E+000	-5.15000E-001	-7.29272E-004	10	..........a	-327.74
	1022	0.5115	-5.23009E-001	-3.26964E-004	0.00000E+000	-5.22000E-001	-7.62605E-004	10	..........a	-327.74
	1029	0.515	-5.29909E-001	-3.62389E-004	0.00000E+000	-5.29000E-001	-8.95939E-004	10	..........a	-327.74
	1036	0.5185	-5.36942E-001	-4.00154E-004	0.00000E+000	-5.36000E-001	-8.62605E-004	10	..........a	-327.74
	1043	0.522	-5.43942E-001	-4.42597E-004	0.00000E+000	-5.43000E-001	-8.29272E-004	10	..........a	-327.74
	1050	0.5255	-5.50909E-001	-4.87546E-004	0.00000E+000	-5.50000E-001	-9.29272E-004	10	..........a	-327.74
	1057	0.529	-5.57909E-001	-5.31828E-004	0.00000E+000	-5.57000E-001	-8.62605E-004	10	..........a	-327.74
	1064	0.5325	-5.64859E-001	-5.74939E-004	0.00000E+000	-5.64000E-001	-8.62605E-004	10	..........a	-327.74
	1071	0.536	-5.71892E-001	-6.15043E-004	0.00000E+000	-5.71000E-001	-6.95939E-004	10	..........a	-327.74
	1078	0.5395	-5.78942E-001	-6.47961E-004	0.00000E+000	-5.78000E-001	-8.62605E-004	10	..........a	-327.74
	1085	0.543	-5.85892E-001	-6.74029E-004	0.00000E+000	-5.85000E-001	-9.29272E-004	10	..........a	-327.74
	1092	0.5465	-5.92892E-001	-6.92243E-004	0.00000E+000	-5.92000E-001	-8.29272E-004	10	..........a	-327.74
	1099	0.55	-6.00042E-001	-7.04775E-004	0.00000E+000	-5.99000E-001	-7.95939E-004	10	..........a	-327.74
	1106	0.5535	-6.06859E-001	-7.11292E-004	0.00000E+000	-6.06000E-001	-8.95939E-004	10	..........a	-327.74
	1113	0.557	-6.13926E-001	-7.09287E-004	0.00000E+000	-6.13000E-001	-9.29272E-004	10	..........a	-327.74
	1120	0.5605	-6.20842E-001	-7.00598E-004	0.00000E+000	-6.20000E-001	-8.62605E-004	10	..........a	-327.74
	1127	0.564	-6.27826E-001	-6.93914E-004	0.00000E+000	-6.27000E-001	-7.62605E-004	10	..........a	-327.74
	1134	0.5675	-6.34876E-001	-6.81214E-004	0.00000E+000	-6.34000E-001	-8.29272E-004	10	..........a	-327.74
	1141	0.571	-6.41759E-001	-6.64170E-004	0.00000E+000	-6.41000E-001	-7.29272E-004	10	..........a	-327.74
	1148	0.5745	-6.48826E-001	-6.49131E-004	0.00000E+000	-6.48000E-001	-8.62605E-004	10	..........a	-327.74
	1155	0.578	-6.55926E-001	-6.33257E-004	0.00000E+000	-6.55000E-001	-7.95939E-004	10	..........a	-327.74
	1162	0.5815	-6.62826E-001	-6.20390E-004	0.00000E+000	-6.62000E-001	-7.62605E-004	10	..........a	-327.74
	1169	0.585	-6.69926E-001	-6.02343E-004	0.00000E+000	-6.69000E-001	-8.62605E-004	10	..........a	-327.74
	1176	0.5885	-6.76859E-001	-5.89644E-004	0.00000E+000	-6.76000E-001	-8.29272E-004	10	..........a	-327.74
	1183	0.592	-6.83776E-001	-5.76276E-004	0.00000E+000	-6.83000E-001	-7.62605E-004	10	..........a	-327.74
	1190	0.5955	-6.90842E-001	-5.60067E-004	0.00000E+000	-6.90000E-001	-8.29272E-004	10	..........a	-327.74
	1197	0.599	-6.97892E-001	-5.50041E-004	0.00000E+000	-6.97000E-001	-8.29272E-004	10	..........a	-327.74
	1204	0.6025	-7.04859E-001	-5.40350E-004	0.00000E+000	-7.04000E-001	-7.95939E-004	10	..........a	-327.74
	1211	0.606	-7.11842E-001	-5.27149E-004	0.00000E+000	-7.11000E-001	-8.29272E-004	10	..........a	-327.74
	1218	0.6095	-7.18742E-001	-5.16287E-004	0.00000E+000	-7.18000E-001	-9.29272E-004	10	..........a	-327.74
	1225	0.613	-7.25909E-001	-5.07431E-004	0.00000E+000	-7.25000E-001	-7.62605E-004	10	..........a	-327.74
	1232	0.6165	-7.32842E-001	-4.99243E-004	0.00000E+000	-7.32000E-001	-8.29272E-004	10	..........a	-327.74
	1239	0.62	-7.39759E-001	-4.87713E-004	0.00000E+000	-7.39000E-001	-8.29272E-004	10	..........a	-327.74
	1246	0.6235	-7.46792E-001	-4.83369E-004	0.00000E+000	-7.46000E-001	-8.29272E-004	10	..........a	-327.74
	1253	0.627	-7.53892E-001	-4.72173E-004	0.00000E+000	-7.53000E-001	-7.62605E-004	10	..........a	-327.74
	1260	0.6305	-7.60809E-001	-4.65656E-004	0.00000E+000	-7.60000E-001	-7.95939E-004	10	..........a	-327.74
	1267	0.634	-7.67876E-001	-4.58638E-004	0.00000E+000	-7.67000E-001	-7.62605E-004	10	..........a	-327.74
	1274	0.6375	-7.74776E-001	-4.50785E-004	0.00000E+000	-7.74000E-001	-8.29272E-004	10	..........a	-327.74
	1281	0.641	-7.81776E-001	-4.46440E-004	0.00000E+000	-7.81000E-001	-8.29272E-004	10	..........a	-327.74
	1288	0.6445	-7.88809E-001	-4.40257E-004	0.00000E+000	-7.88000E-001	-8.62605E-004	10	..........a	-327.74
	1295	0.648	-7.95709E-001	-4.33072E-004	0.00000E+000	-7.95000E-001	-7.29272E-004	10	..........a	-327.74
	1302	0.6515	-8.02826E-001	-4.27725E-004	0.00000E+000	-8.02000E-001	-7.95939E-004	10	..........a	-327.74
	1309	0.655	-8.09876E-001	-4.22044E-004	0.00000E+000	-8.09000E-001	-7.95939E-004	10	..........a	-327.74
	1316	0.6585	-8.16759E-001	-4.15192E-004	0.00000E+000	-8.16000E-001	-7.95939E-004	10	..........a	-327.74
	1323	0.662	-8.23642E-001	-4.12686E-004	0.00000E+000	-8.23000E-001	-8.62605E-004	10	..........a	-327.74
	1330	0.6655	-8.30792E-001	-4.06503E-004	0.00000E+000	-8.30000E-001	-7.62605E-004	10	..........a	-327.74
	1337	0.669	-8.37726E-001	-4.02326E-004	0.00000E+000	-8.37000E-001	-8.29272E-004	10	..........a	-327.74
	1344	0.6725	-8.44742E-001	-3.98148E-004	0.00000E+000	-8.44000E-001	-8.62605E-004	10	..........a	-327.74
	1351	0.676	-8.51659E-001	-3.93135E-004	0.00000E+000	-8.51000E-001	-8.29272E-004	10	..........a	-327.74
	1358	0.6795	-8.58709E-001	-3.88290E-004	0.00000E+000	-8.58000E-001	-8.95939E-004	10	..........a	-327.74
	1365	0.683	-8.65759E-001	-3.84112E-004	0.00000E+000	-8.65000E-001	-8.95939E-004	10	..........a	-327.74
	1372	0.6865	-8.72692E-001	-3.80102E-004	0.00000E+000	-8.72000E-001	-8.62605E-004	10	..........a	-327.74
	1379	0.69	-8.79692E-001	-3.76426E-004	0.00000E+000	-8.79000E-001	-8.95939E-004	10	..........a	-327.74
	1386	0.6935	-8.86792E-001	-3.73084E-004	0.00000E+000	-8.86000E-001	-9.29272E-004	10	..........a	-327.74
	1393	0.697	-8.93792E-001	-3.72749E-004	0.00000E+000	-8.93000E-001	-8.29272E-004	10	..........a	-327.74
	1400	0.7005	-9.00809E-001	-3.66567E-004	0.00000E+000	-9.00000E-001	-8.95939E-004	10	..........a	-327.74
	1407	0.704	-9.07759E-001	-3.64227E-004	0.00000E+000	-9.07000E-001	-7.95939E-004	10	..........a	-327.74
	1414	0.7075	-9.14692E-001	-3.59549E-004	0.00000E+000	-9.14000E-001	-7.29272E-004	10	..........a	-327.74
	1421	0.711	-9.21676E-001	-3.57209E-004	0.00000E+000	-9.21000E-001	-8.62605E-004	10	..........a	-327.74
	1428	0.7145	-9.28642E-001	-3.54536E-004	0.00000E+000	-9.28000E-001	-7.95939E-004	10	..........a	-327.74
	1435	0.718	-9.35726E-001	-3.51528E-004	0.00000E+000	-9.35000E-001	-7.62605E-004	10	..........a	-327.74
	1442	0.7215	-9.42692E-001	-3.48186E-004	0.00000E+000	-9.42000E-001	-7.95939E-004	10	..........a	-327.74
	1449	0.725	-9.49676E-001	-3.45679E-004	0.00000E+000	-9.49000E-001	-9.29272E-004	10	..........a	-327.74
	1456	0.7285	-9.56726E-001	-3.42839E-004	0.00000E+000	-9.56000E-001	-7.62605E-004	10	..........a	-327.74
	1463	0.732	-9.63726E-001	-3.41168E-004	0.00000E+000	-9.63000E-001	-7.95939E-004	10	..........a	-327.74
	1470	0.7355	-9.70742E-001	-3.38160E-004	0.00000E+000	-9.70000E-001	-9.29272E-004	10	..........a	-327.74
	1477	0.739	-9.77692E-001	-3.35319E-004	0.00000E+000	-9.77000E-001	-8.29272E-004	10	..........a	-327.74
	1484	0.7425	-9.84609E-001	-3.34651E-004	0.00000E+000	-9.84000E-001	-8.62605E-004	10	..........a	-327.74
	1491	0.746	-9.91659E-001	-3.33147E-004	0.00000E+000	-9.91000E-001	-7.29272E-004	10	..........a	-327.74
	1498	0.7495	-9.98726E-001	-3.32144E-004	0.00000E+000	-9.98000E-001	-7.95939E-004	10	..........a	-327.74
	1505	0.753	-9.95642E-001	-3.07748E-004	0.00000E+000	-9.95000E-001	-8.62605E-004	10	..........a	-327.74
	1512	0.7565	-9.88692E-001	-2.93712E-004	0.00000E+000	-9.88000E-001	-7.29272E-004	10	..........a	-327.74
	1519	0.76	-9.81626E-001	-2.82349E-004	0.00000E+000	-9.81000E-001	-7.95939E-004	10	..........a	-327.74
	1526	0.7635	-9.74726E-001	-2.76835E-004	0.00000E+000	-9.74000E-001	-9.29272E-004	10	..........a	-327.74
	1533	0.767	-9.67659E-001	-2.68814E-004	0.00000E+000	-9.67000E-001	-6.95939E-004	10	..........a	-327.74
	1540	0.7705	-9.60676E-001	-2.63968E-004	0.00000E+000	-9.60000E-001	-7.95939E-004	10	..........a	-327.74
	1547	0.774	-9.53676E-001	-2.57952E-004	0.00000E+000	-9.53000E-001	-8.62605E-004	10	..........a	-327.74
	1554	0.7775	-9.46692E-001	-2.53942E-004	0.00000E+000	-9.46000E-001	-8.29272E-004	10	..........a	-327.74
	1561	0.781	-9.39609E-001	-2.49597E-004	0.00000E+000	-9.39000E-001	-7.62605E-004	10	..........a	-327.74
	1568	0.7845	-9.32709E-001	-2.45587E-004	0.00000E+000	-9.32000E-001	-9.29272E-004	10	..........a	-327.74
	1575	0.788	-9.25709E-001	-2.43248E-004	0.00000E+000	-9.25000E-001	-7.62605E-004	10	..........a	-327.74
	1582	0.7915	-9.18726E-001	-2.39571E-004	0.00000E+000	-9.18000E-001	-9.29272E-004	10	..........a	-327.74
	1589	0.795	-9.11709E-001	-2.35728E-004	0.00000E+000	-9.11000E-001	-8.95939E-004	10	..........a	-327.74
	1596	0.7985	-9.04776E-001	-2.32888E-004	0.00000E+000	-9.04000E-001	-8.95939E-004	10	..........a	-327.74
	1603	0.802	-8.97626E-001	-2.30715E-004	0.00000E+000	-8.97000E-001	-8.62605E-004	10	..........a	-327.74
	1610	0.8055	-8.90742E-001	-2.28710E-004	0.00000E+000	-8.90000E-001	-7.95939E-004	10	..........a	-327.74
	1617	0.809	-8.83709E-001	-2.25201E-004	0.00000E+000	-8.83000E-001	-8.62605E-004	10	..........a	-327.74
	1624	0.8125	-8.76776E-001	-2.22193E-004	0.00000E+000	-8.76000E-001	-8.62605E-004	10	..........a	-327.74
	1631	0.816	-8.69726E-001	-2.22026E-004	0.00000E+000	-8.69000E-001	-6.95939E-004	10	..........a	-327.74
	1638	0.8195	-8.62809E-001	-2.19687E-004	0.00000E+000	-8.62000E-001	-9.29272E-004	10	..........a	-327.74
	1645	0.823	-8.55859E-001	-2.15509E-004	0.00000E+000	-8.55000E-001	-7.95939E-004	10	..........a	-327.74
	1652	0.8265	-8.48676E-001	-2.13337E-004	0.00000E+000	-8.48000E-001	-8.62605E-004	10	..........a	-327.74
	1659	0.83	-8.41809E-001	-2.10830E-004	0.00000E+000	-8.41000E-001	-6.95939E-004	10	..........a	-327.74
	1666	0.8335	-8.34709E-001	-2.09828E-004	0.00000E+000	-8.34000E-001	-8.62605E-004	10	..........a	-327.74
	1673	0.837	-8.27726E-001	-2.07154E-004	0.00000E+000	-8.27000E-001	-9.29272E-004	10	..........a	-327.74
	1680	0.8405	-8.20792E-001	-2.05316E-004	0.00000E+000	-8.20000E-001	-7.29272E-004	10	..........a	-327.74
	1687	0.844	-8.13842E-001	-2.01807E-004	0.00000E+000	-8.13000E-001	-9.29272E-004	10	..........a	-327.74
	1694	0.8475	-8.06826E-001	-2.01473E-004	0.00000E+000	-8.06000E-001	-7.95939E-004	10	..........a	-327.74
	1701	0.851	-7.99826E-001	-1.97463E-004	0.00000E+000	-7.99000E-001	-8.62605E-004	10	..........a	-327.74
	1708	0.8545	-7.92709E-001	-1.95123E-004	0.00000E+000	-7.92000E-001	-7.95939E-004	10	..........a	-327.74
	1715	0.858	-7.85842E-001	-1.95624E-004	0.00000E+000	-7.85000E-001	-9.29272E-004	10	..........a	-327.74
	1722	0.8615	-7.78842E-001	-1.93118E-004	0.00000E+000	-7.78000E-001	-7.62605E-004	10	..........a	-327.74
	1729	0.865	-7.71726E-001	-1.90946E-004	0.00000E+000	-7.71000E-001	-7.62605E-004	10	..........a	-327.74
	1736	0.8685	-7.64892E-001	-1.89442E-004	0.00000E+000	-7.64000E-001	-7.95939E-004	10	..........a	-327.74
	1743	0.872	-7.57859E-001	-1.87102E-004	0.00000E+000	-7.57000E-001	-8.95939E-004	10	..........a	-327.74
	1750	0.8755	-7.50776E-001	-1.84095E-004	0.00000E+000	-7.50000E-001	-8.29272E-004	10	..........a	-327.74
	1757	0.879	-7.43826E-001	-1.82424E-004	0.00000E+000	-7.43000E-001	-7.95939E-004	10	..........a	-327.74
	1764	0.8825	-7.36859E-001	-1.81588E-004	0.00000E+000	-7.36000E-001	-9.29272E-004	10	..........a	-327.74
	1771	0.886	-7.29792E-001	-1.78915E-004	0.00000E+000	-7.29000E-001	-8.29272E-004	10	..........a	-327.74
	1778	0.8895	-7.22826E-001	-1.74737E-004	0.00000E+000	-7.22000E-001	-8.62605E-004	10	..........a	-327.74
	1785	0.893	-7.15859E-001	-1.73400E-004	0.00000E+000	-7.15000E-001	-9.29272E-004	10	..........a	-327.74
	1792	0.8965	-7.08826E-001	-1.70058E-004	0.00000E+000	-7.08000E-001	-7.62605E-004	10	..........a	-327.74
	1799	0.9	-7.01776E-001	-1.69891E-004	0.00000E+000	-7.01000E-001	-8.62605E-004	10	..........a	-327.74
	1806	0.9035	-6.94826E-001	-1.67218E-004	0.00000E+000	-6.94000E-001	-9.29272E-004	10	..........a	-327.74
	1813	0.907	-6.87842E-001	-1.64377E-004	0.00000E+000	-6.87000E-001	-8.62605E-004	10	..........a	-327.74
	1820	0.9105	-6.80809E-001	-1.56857E-004	0.00000E+000	-6.80000E-001	-8.29272E-004	10	..........a	-327.74
	1827	0.914	-6.73792E-001	-1.54017E-004	0.00000E+000	-6.73000E-001	-9.29272E-004	10	..........a	-327.74
	1834	0.9175	-6.66809E-001	-1.52680E-004	0.00000E+000	-6.66000E-001	-8.29272E-004	10	..........a	-327.74
	1841	0.921	-6.59776E-001	-1.47500E-004	0.00000E+000	-6.59000E-001	-7.29272E-004	10	..........a	-327.74
	1848	0.9245	-6.52792E-001	-1.41484E-004	0.00000E+000	-6.52000E-001	-8.95939E-004	10	..........a	-327.74
	1855	0.928	-6.45909E-001	-1.35135E-004	0.00000E+000	-6.45000E-001	-8.95939E-004	10	..........a	-327.74
	1862	0.9315	-6.38792E-001	-1.27782E-004	0.00000E+000	-6.38000E-001	-8.29272E-004	10	..........a	-327.74
	1869	0.935	-6.31892E-001	-1.22101E-004	0.00000E+000	-6.31000E-001	-8.95939E-004	10	..........a	-327.74
	1876	0.9385	-6.24842E-001	-1.13913E-004	0.00000E+000	-6.24000E-001	-8.95939E-004	10	..........a	-327.74
	1883	0.942	-6.17759E-001	-1.05057E-004	0.00000E+000	-6.17000E-001	-8.29272E-004	10	..........a	-327.74
	1890	0.9455	-6.10926E-001	-9.26915E-005	0.00000E+000	-6.10000E-001	-8.95939E-004	10	..........a	-327.74
	1897	0.949	-6.03926E-001	-8.13287E-005	0.00000E+000	-6.03000E-001	-9.29272E-004	10	..........a	-327.74
	1904	0.9525	-5.96942E-001	-6.74595E-005	0.00000E+000	-5.96000E-001	-9.29272E-004	10	..........a	-327.74
	1911	0.956	-5.89926E-001	-5.12509E-005	0.00000E+000	-5.89000E-001	-8.29272E-004	10	..........a	-327.74
	1918	0.9595	-5.82826E-001	-3.60449E-005	0.00000E+000	-5.82000E-001	-8.62605E-004	10	..........a	-327.74
	1925	0.963	-5.75809E-001	-1.64943E-005	0.00000E+000	-5.75000E-001	-8.95939E-004	10	..........a	-327.74
	1932	0.9665	-5.68926E-001	1.21819E-006	0.00000E+000	-5.68000E-001	-8.62605E-004	10	..........a	-327.74
	1939	0.97	-5.61859E-001	2.09359E-005	0.00000E+000	-5.61000E-001	-8.95939E-004	10	..........a	-327.74
	1946	0.9735	-5.54876E-001	4.06536E-005	0.00000E+000	-5.54000E-001	-9.29272E-004	10	..........a	-327.74
	1953	0.977	-5.47876E-001	5.80318E-005	0.00000E+000	-5.47000E-001	-8.95939E-004	10	..........a	-327.74
	1960	0.9805	-5.40892E-001	7.99218E-005	0.00000E+000	-5.40000E-001	-8.62605E-004	10	..........a	-327.74
	1967	0.984	-5.33909E-001	9.93053E-005	0.00000E+000	-5.33000E-001	-8.29272E-004	10	..........a	-327.74
	1974	0.9875	-5.26942E-001	1.19023E-004	0.00000E+000	-5.26000E-001	-8.95939E-004	10	..........a	-327.74
	1981	0.991	-5.19909E-001	1.37738E-004	0.00000E+000	-5.19000E-001	-9.62605E-004	10	..........a	-327.74
	1988	0.9945	-5.12876E-001	1.56453E-004	0.00000E+000	-5.12000E-001	-8.29272E-004	10	..........a	-327.74
	1995	0.998	-5.05926E-001	1.76839E-004	0.00000E+000	-5.05000E-001	-9.29272E-004	10	..........a	-327.74
	2002	1.0015	-4.98859E-001	1.95721E-004	0.00000E+000	-4.98000E-001	-8.62605E-004	10	..........a	-327.74
	2009	1.005	-4.91992E-001	2.13100E-004	0.00000E+000	-4.91000E-001	-9.29272E-004	10	..........a	-327.74
	2016	1.0085	-4.85042E-001	2.29643E-004	0.00000E+000	-4.84000E-001	-8.95939E-004	10	..........a	-327.74
	2023	1.012	-4.77976E-001	2.47188E-004	0.00000E+000	-4.77000E-001	-8.62605E-004	10	..........a	-327.74
	2030	1.0155	-4.70876E-001	2.65235E-004	0.00000E+000	-4.70000E-001	-8.62605E-004	10	..........a	-327.74
	2037	1.019	-4.63959E-001	2.76932E-004	0.00000E+000	-4.63000E-001	-8.29272E-004	10	..........a	-327.74
	2044	1.0225	-4.56926E-001	2.88963E-004	0.00000E+000	-4.56000E-001	-8.95939E-004	10	..........a	-327.74
	2051	1.026	-4.49992E-001	2.98320E-004	0.00000E+000	-4.49000E-001	-8.95939E-004	10	..........a	-327.74
	2058	1.0295	-4.42876E-001	3.03667E-004	0.00000E+000	-4.42000E-001	-8.95939E-004	10	..........a	-327.74
	2065	1.033	-4.35892E-001	3.07678E-004	0.00000E+000	-4.35000E-001	-8.95939E-004	10	..........a	-327.74
	2072	1.0365	-4.28992E-001	3.09015E-004	0.00000E+000	-4.28000E-001	-8.62605E-004	10	..........a	-327.74
	2079	1.04	-4.21959E-001	3.10686E-004	0.00000E+000	-4.21000E-001	-9.62605E-004	10	..........a	-327.74
	2086	1.0435	-4.14892E-001	3.06341E-004	0.00000E+000	-4.14000E-001	-8.29272E-004	10	..........a	-327.74
	2093	1.047	-4.07926E-001	3.05004E-004	0.00000E+000	-4.07000E-001	-8.95939E-004	10	..........a	-327.74
	2100	1.0505	-4.00909E-001	2.99657E-004	0.00000E+000	-4.00000E-001	-8.29272E-004	10	..........a	-327.74
	2107	1.054	-3.93976E-001	2.94644E-004	0.00000E+000	-3.93000E-001	-8.62605E-004	10	..........a	-327.74
	2114	1.0575	-3.86926E-001	2.91302E-004	0.00000E+000	-3.86000E-001	-8.29272E-004	10	..........a	-327.74
	2121	1.061	-3.79909E-001	2.88796E-004	0.00000E+000	-3.79000E-001	-9.29272E-004	10	..........a	-327.74
	2128	1.0645	-3.72909E-001	2.83448E-004	0.00000E+000	-3.72000E-001	-9.29272E-004	10	..........a	-327.74
	2135	1.068	-3.65959E-001	2.78603E-004	0.00000E+000	-3.65000E-001	-8.62605E-004	10	..........a	-327.74
	2142	1.0715	-3.58892E-001	2.74425E-004	0.00000E+000	-3.58000E-001	-9.29272E-004	10	..........a	-327.74
	2149	1.075	-3.51976E-001	2.69746E-004	0.00000E+000	-3.51000E-001	-9.29272E-004	10	..........a	-327.74
	2156	1.0785	-3.44942E-001	2.67574E-004	0.00000E+000	-3.44000E-001	-9.29272E-004	10	..........a	-327.74
	2163	1.082	-3.37892E-001	2.62895E-004	0.00000E+000	-3.37000E-001	-8.95939E-004	10	..........a	-327.74
	2170	1.0855	-3.30909E-001	2.60556E-004	0.00000E+000	-3.30000E-001	-8.95939E-004	10	..........a	-327.74
	2177	1.089	-3.23992E-001	2.57715E-004	0.00000E+000	-3.23000E-001	-8.95939E-004	10	..........a	-327.74
	2184	1.0925	-3.17026E-001	2.53036E-004	0.00000E+000	-3.16000E-001	-8.62605E-004	10	..........a	-327.74
	2191	1.096	-3.09942E-001	2.50697E-004	0.00000E+000	-3.09000E-001	-8.62605E-004	10	..........a	-327.74
	2198	1.0995	-3.02892E-001	2.49026E-004	0.00000E+000	-3.02000E-001	-8.95939E-004	10	..........a	-327.74
	2205	1.103	-2.95959E-001	2.45350E-004	0.00000E+000	-2.95000E-001	-9.29272E-004	10	..........a	-327.74
	2212	1.1065	-2.88992E-001	2.45183E-004	0.00000E+000	-2.88000E-001	-9.29272E-004	10	..........a	-327.74
	2219	1.11	-2.82009E-001	2.42008E-004	0.00000E+000	-2.81000E-001	-8.95939E-004	10	..........a	-327.74
	2226	1.1135	-2.74926E-001	2.41172E-004	0.00000E+000	-2.74000E-001	-9.62605E-004	10	..........a	-327.74
	2233	1.117	-2.68059E-001	2.37997E-004	0.00000E+000	-2.67000E-001	-8.95939E-004	10	..........a	-327.74
	2240	1.1205	-2.61059E-001	2.36326E-004	0.00000E+000	-2.60000E-001	-9.62605E-004	10	..........a	-327.74
	2247	1.124	-2.54009E-001	2.34154E-004	0.00000E+000	-2.53000E-001	-8.62605E-004	10	..........a	-327.74
	2254	1.1275	-2.46959E-001	2.33486E-004	0.00000E+000	-2.46000E-001	-9.62605E-004	10	..........a	-327.74
	2261	1.131	-2.40009E-001	2.29308E-004	0.00000E+000	-2.39000E-001	-8.62605E-004	10	..........a	-327.74
	2268	1.1345	-2.32976E-001	2.26635E-004	0.00000E+000	-2.32000E-001	-9.62605E-004	10	..........a	-327.74
	2275	1.138	-2.26076E-001	2.24295E-004	0.00000E+000	-2.25000E-001	-8.95939E-004	10	..........a	-327.74
	2282	1.1415	-2.19042E-001	2.23460E-004	0.00000E+000	-2.18000E-001	-8.29272E-004	10	..........a	-327.74
	2289	1.145	-2.11976E-001	2.20118E-004	0.00000E+000	-2.11000E-001	-7.95939E-004	10	..........a	-327.74
	2296	1.1485	-2.05076E-001	2.16107E-004	0.00000E+000	-2.04000E-001	-8.95939E-004	10	..........a	-327.74
	2303	1.152	-1.97992E-001	2.12933E-004	0.00000E+000	-1.97000E-001	-8.62605E-004	10	..........a	-327.74
	2310	1.1555	-1.91059E-001	2.08588E-004	0.00000E+000	-1.90000E-001	-8.62605E-004	10	..........a	-327.74
	2317	1.159	-1.84126E-001	2.07251E-004	0.00000E+000	-1.83000E-001	-9.29272E-004	10	..........a	-327.74
	2324	1.1625	-1.77059E-001	2.05580E-004	0.00000E+000	-1.76000E-001	-8.95939E-004	10	..........a	-327.74
	2331	1.166	-1.70009E-001	2.02907E-004	0.00000E+000	-1.69000E-001	-8.95939E-004	10	..........a	-327.74
	2338	1.1695	-1.63159E-001	1.99398E-004	0.00000E+000	-1.62000E-001	-8.62605E-004	10	..........a	-327.74
	2345	1.173	-1.56042E-001	1.95220E-004	0.00000E+000	-1.55000E-001	-8.95939E-004	10	..........a	-327.74
	2352	1.1765	-1.49092E-001	1.92547E-004	0.00000E+000	-1.48000E-001	-9.29272E-004	10	..........a	-327.74
	2359	1.18	-1.42092E-001	1.89706E-004	0.00000E+000	-1.41000E-001	-9.62605E-004	10	..........a	-327.74
	2366	1.1835	-1.35126E-001	1.87701E-004	0.00000E+000	-1.34000E-001	-8.62605E-004	10	..........a	-327.74
	2373	1.187	-1.28076E-001	1.84860E-004	0.00000E+000	-1.27000E-001	-9.62605E-004	10	..........a	-327.74
	2380	1.1905	-1.20942E-001	1.83523E-004	0.00000E+000	-1.20000E-001	-7.95939E-004	10	..........a	-327.74
	2387	1.194	-1.14009E-001	1.81351E-004	0.00000E+000	-1.13000E-001	-8.29272E-004	10	..........a	-327.74
	2394	1.1975	-1.07042E-001	1.76004E-004	0.00000E+000	-1.06000E-001	-8.62605E-004	10	..........a	-327.74
	2401	1.201	-9.99923E-002	1.73831E-004	0.00000E+000	-9.90000E-002	-8.62605E-004	10	..........a	-327.74
	2408	1.2045	-9.30590E-002	1.71826E-004	0.00000E+000	-9.20000E-002	-8.95939E-004	10	..........a	-327.74
	2415	1.208	-8.61090E-002	1.69988E-004	0.00000E+000	-8.50000E-002	-9.29272E-004	10	..........a	-327.74
	2422	1.2115	-7.90757E-002	1.69654E-004	0.00000E+000	-7.80000E-002	-8.95939E-004	10	..........a	-327.74
	2429	1.215	-7.21757E-002	1.65309E-004	0.00000E+000	-7.10000E-002	-9.62605E-004	10	..........a	-327.74
	2436	1.2185	-6.51423E-002	1.63638E-004	0.00000E+000	-6.40000E-002	-8.62605E-004	10	..........a	-327.74
	2443	1.222	-5.80590E-002	1.62302E-004	0.00000E+000	-5.70000E-002	-8.29272E-004	10	..........a	-327.74
	2450	1.2255	-5.10923E-002	1.59127E-004	0.00000E+000	-5.00000E-002	-8.62605E-004	10	..........a	-327.74
	2457	1.229	-4.40257E-002	1.58625E-004	0.00000E+000	-4.30000E-002	-8.62605E-004	10	..........a	-327.74
	2464	1.2325	-3.70757E-002	1.57790E-004	0.00000E+000	-3.60000E-002	-7.95939E-004	10	..........a	-327.74
	2471	1.236	-3.01090E-002	1.56119E-004	0.00000E+000	-2.90000E-002	-8.95939E-004	10	..........a	-327.74
	2478	1.2395	-2.30257E-002	1.54448E-004	0.00000E+000	-2.20000E-002	-8.29272E-004	10	..........a	-327.74
	2485	1.243	-1.60923E-002	1.53278E-004	0.00000E+000	-1.50000E-002	-7.62605E-004	10	..........a	-327.74
	2492	1.2465	-9.09233E-003	1.51106E-004	0.00000E+000	-8.00000E-003	-9.29272E-004	10	..........a	-327.74
	2499	1.25	-2.09233E-003	1.51440E-004	0.00000E+000	-1.00000E-003	-1.02927E-003	10	..........a	-327.74
	2506	1.2535	4.89100E-003	1.51941E-004	0.00000E+000	5.99998E-003	-9.29272E-004	10	..........a	-327.74
	2513	1.257	1.19577E-002	1.48265E-004	0.00000E+000	1.30000E-002	-8.29272E-004	10	..........a	-327.74
	2520	1.2605	1.90743E-002	1.47764E-004	0.00000E+000	2.00000E-002	-7.95939E-004	10	..........a	-327.74
	2527	1.264	2.58910E-002	1.49268E-004	0.00000E+000	2.70000E-002	-8.95939E-004	10	..........a	-327.74
	2534	1.2675	3.29410E-002	1.47263E-004	0.00000E+000	3.40000E-002	-7.62605E-004	10	..........a	-327.74
	2541	1.271	3.99577E-002	1.47430E-004	0.00000E+000	4.10000E-002	-8.29272E-004	10	..........a	-327.74
	2548	1.2745	4.68577E-002	1.48265E-004	0.00000E+000	4.80000E-002	-8.95939E-004	10	..........a	-327.74
	2555	1.278	5.39077E-002	1.46093E-004	0.00000E+000	5.50000E-002	-8.95939E-004	10	..........a	-327.74
	2562	1.2815	6.08410E-002	1.44756E-004	0.00000E+000	6.20000E-002	-8.62605E-004	10	..........a	-327.74
	2569	1.285	6.79077E-002	1.45759E-004	0.00000E+000	6.90000E-002	-8.95939E-004	10	..........a	-327.74
	2576	1.2885	7.49577E-002	1.46427E-004	0.00000E+000	7.60000E-002	-8.95939E-004	10	..........a	-327.74
	2583	1.292	8.19243E-002	1.45759E-004	0.00000E+000	8.30000E-002	-8.29272E-004	10	..........a	-327.74
	2590	1.2955	8.88910E-002	1.44756E-004	0.00000E+000	9.00000E-002	-8.29272E-004	10	..........a	-327.74
	2597	1.299	9.58577E-002	1.46093E-004	0.00000E+000	9.70000E-002	-8.29272E-004	10	..........a	-327.74
	2604	1.3025	1.02858E-001	1.44756E-004	0.00000E+000	1.04000E-001	-8.62605E-004	10	..........a	-327.74
	2611	1.306	1.09824E-001	1.44589E-004	0.00000E+000	1.11000E-001	-8.95939E-004	10	..........a	-327.74
	2618	1.3095	1.16791E-001	1.44756E-004	0.00000E+000	1.18000E-001	-7.95939E-004	10	..........a	-327.74
	2625	1.313	1.23924E-001	1.44589E-004	0.00000E+000	1.25000E-001	-8.95939E-004	10	..........a	-327.74
	2632	1.3165	1.30841E-001	1.44923E-004	0.00000E+000	1.32000E-001	-9.29272E-004	10	..........a	-327.74
	2639	1.32	1.37891E-001	1.43587E-004	0.00000E+000	1.39000E-001	-8.95939E-004	10	..........a	-327.74
	2646	1.3235	1.44874E-001	1.45258E-004	0.00000E+000	1.46000E-001	-9.62605E-004	10	..........a	-327.74
	2653	1.327	1.51774E-001	1.43252E-004	0.00000E+000	1.53000E-001	-8.95939E-004	10	..........a	-327.74
	2660	1.3305	1.58808E-001	1.44255E-004	0.00000E+000	1.60000E-001	-9.29272E-004	10	..........a	-327.74
	2667	1.334	1.65858E-001	1.45258E-004	0.00000E+000	1.67000E-001	-7.62605E-004	10	..........a	-327.74
	2674	1.3375	1.72774E-001	1.45258E-004	0.00000E+000	1.74000E-001	-9.29272E-004	10	..........a	-327.74
	2681	1.341	1.79858E-001	1.44088E-004	0.00000E+000	1.81000E-001	-8.62605E-004	10	..........a	-327.74
	2688	1.3445	1.86841E-001	1.44589E-004	0.00000E+000	1.88000E-001	-7.62605E-004	10	..........a	-327.74
	2695	1.348	1.93774E-001	1.43921E-004	0.00000E+000	1.95000E-001	-8.29272E-004	10	..........a	-327.74
	2702	1.3515	2.00841E-001	1.43419E-004	0.00000E+000	2.02000E-001	-9.62605E-004	10	..........a	-327.74
	2709	1.355	2.07791E-001	1.42250E-004	0.00000E+000	2.09000E-001	-9.95939E-004	10	..........a	-327.74
	2716	1.3585	2.14841E-001	1.43419E-004	0.00000E+000	2.16000E-001	-7.29272E-004	10	..........a	-327.74
	2723	1.362	2.21908E-001	1.42250E-004	0.00000E+000	2.23000E-001	-8.62605E-004	10	..........a	-327.74
	2730	1.3655	2.28774E-001	1.41581E-004	0.00000E+000	2.30000E-001	-8.95939E-004	10	..........a	-327.74
	2737	1.369	2.35791E-001	1.39743E-004	0.00000E+000	2.37000E-001	-8.95939E-004	10	..........a	-327.74
	2744	1.3725	2.42791E-001	1.39409E-004	0.00000E+000	2.44000E-001	-7.29272E-004	10	..........a	-327.74
	2751	1.376	2.49791E-001	1.38741E-004	0.00000E+000	2.51000E-001	-8.29272E-004	10	..........a	-327.74
	2758	1.3795	2.56691E-001	1.36234E-004	0.00000E+000	2.58000E-001	-8.29272E-004	10	..........a	-327.74
	2765	1.383	2.63758E-001	1.35566E-004	0.00000E+000	2.65000E-001	-9.29272E-004	10	..........a	-327.74
	2772	1.3865	2.70741E-001	1.33728E-004	0.00000E+000	2.72000E-001	-8.62605E-004	10	..........a	-327.74
	2779	1.39	2.77841E-001	1.32892E-004	0.00000E+000	2.79000E-001	-8.95939E-004	10	..........a	-327.74
	2786	1.3935	2.84774E-001	1.30386E-004	0.00000E+000	2.86000E-001	-8.62605E-004	10	..........a	-327.74
	2793	1.397	2.91858E-001	1.32725E-004	0.00000E+000	2.93000E-001	-8.29272E-004	10	..........a	-327.74
	2800	1.4005	2.98824E-001	1.28715E-004	0.00000E+000	3.00000E-001	-9.29272E-004	10	..........a	-327.74
	2807	1.404	3.05791E-001	1.27044E-004	0.00000E+000	3.07000E-001	-8.95939E-004	10	..........a	-327.74
	2814	1.4075	3.12824E-001	1.28548E-004	0.00000E+000	3.14000E-001	-8.62605E-004	10	..........a	-327.74
	2821	1.411	3.19774E-001	1.25373E-004	0.00000E+000	3.21000E-001	-8.95939E-004	10	..........a	-327.74
	2828	1.4145	3.26791E-001	1.22866E-004	0.00000E+000	3.28000E-001	-7.95939E-004	10	..........a	-327.74
	2835	1.418	3.33741E-001	1.21697E-004	0.00000E+000	3.35000E-001	-9.29272E-004	10	..........a	-327.74
	2842	1.4215	3.40758E-001	1.21697E-004	0.00000E+000	3.42000E-001	-9.29272E-004	10	..........a	-327.74
	2849	1.425	3.47808E-001	1.20527E-004	0.00000E+000	3.49000E-001	-8.29272E-004	10	..........a	-327.74
	2856	1.4285	3.54841E-001	1.18522E-004	0.00000E+000	3.56000E-001	-7.95939E-004	10	..........a	-327.74
	2863	1.432	3.61708E-001	1.18187E-004	0.00000E+000	3.63000E-001	-8.95939E-004	10	..........a	-327.74
	2870	1.4355	3.68741E-001	1.17519E-004	0.00000E+000	3.70000E-001	-8.95939E-004	10	..........a	-327.74
	2877	1.439	3.75674E-001	1.17018E-004	0.00000E+000	3.77000E-001	-8.29272E-004	10	..........a	-327.74
	2884	1.4425	3.82758E-001	1.15681E-004	0.00000E+000	3.84000E-001	-7.95939E-004	10	..........a	-327.74
	2891	1.446	3.89724E-001	1.16182E-004	0.00000E+000	3.91000E-001	-9.29272E-004	10	..........a	-327.74
	2898	1.4495	3.96708E-001	1.13007E-004	0.00000E+000	3.98000E-001	-8.95939E-004	10	..........a	-327.74
	2905	1.453	4.03774E-001	1.12506E-004	0.00000E+000	4.05000E-001	-8.62605E-004	10	..........a	-327.74
	2912	1.4565	4.10808E-001	1.14010E-004	0.00000E+000	4.12000E-001	-9.29272E-004	10	..........a	-327.74
	2919	1.46	4.17691E-001	1.10835E-004	0.00000E+000	4.19000E-001	-8.29272E-004	10	..........a	-327.74
	2926	1.4635	4.24824E-001	1.09164E-004	0.00000E+000	4.26000E-001	-8.29272E-004	10	..........a	-327.74
	2933	1.467	4.31791E-001	1.08663E-004	0.00000E+000	4.33000E-001	-8.62605E-004	10	..........a	-327.74
	2940	1.4705	4.38674E-001	1.07994E-004	0.00000E+000	4.40000E-001	-9.62605E-004	10	..........a	-327.74
	2947	1.474	4.45741E-001	1.07493E-004	0.00000E+000	4.47000E-001	-9.95939E-004	10	..........a	-327.74
	2954	1.4775	4.52658E-001	1.06825E-004	0.00000E+000	4.54000E-001	-6.29272E-004	10	..........a	-327.74
	2961	1.481	4.59658E-001	1.04820E-004	0.00000E+000	4.61000E-001	-9.29272E-004	10	..........a	-327.74
	2968	1.4845	4.66774E-001	1.05989E-004	0.00000E+000	4.68000E-001	-8.29272E-004	10	..........a	-327.74
	2975	1.488	4.73758E-001	1.05655E-004	0.00000E+000	4.75000E-001	-7.95939E-004	10	..........a	-327.74
	2982	1.4915	4.80808E-001	1.03483E-004	0.00000E+000	4.82000E-001	-8.95939E-004	10	..........a	-327.74
	2989	1.495	4.87774E-001	1.03817E-004	0.00000E+000	4.89000E-001	-8.95939E-004	10	..........a	-327.74
	2996	1.4985	4.94824E-001	1.03483E-004	0.00000E+000	4.96000E-001	-9.29272E-004	10	..........a	-327.74
	3000	1.5005	4.98808E-001	1.03316E-004	0.00000E+000	5.00000E-001	-8.95939E-004	10	..........a	-327.74
CURVE2	TABLE
	Pt	T	Vf	Im	Vu	Sig	Ach	IERange	Over	Temp
	#	s	V vs. Ref.	A	V	V	V	#	bits	deg C
	3001	1.501	4.98724E-001	9.98066E-005	0.00000E+000	5.00000E-001	-9.29272E-004	10	..........a	-327.74