File: data/02-SI/Figures_S9_S11_RDE/15btmapaq-rde/1mkcl-15btmapaq-nitrogen-3000mvpers.DTA
EXPLAIN
TAG	CV
TITLE	LABEL	Cyclic Voltammetry	Test &Identifier
DATE	LABEL	1/31/2023	Date
TIME	LABEL	18:21:06	Time
NOTES	NOTES	1	&Notes...

PSTAT	PSTAT	REF3000-21108	Potentiostat
VINIT	POTEN	5.00000E-001	F	Initial &E (V)
VLIMIT1	POTEN	-1.00000E+000	F	Scan Limit &1 (V)
VLIMIT2	POTEN	5.00000E-001	F	Scan Limit &2 (V)
VFINAL	POTEN	5.00000E-001	F	Final &E (V)
SCANRATE	QUANT	2.99999E+003	&Scan Rate (mV/s)
STEPSIZE	QUANT	1.00000E+000	St&ep Size (mV)
CYCLES	IQUANT	1	C&ycles (#)
IMODE	SELECTOR	1	I/E Range &Mode
IRANGE	QUANT	1.00000E+001	&Max Current (mA)
AREA	QUANT	1.00000E+000	Electrode &Area (cm^2)
ELECTRODETYPE	SELECTOR	0	Electrode Type
STRIPPING	TOGGLE	F	Used for Stripping
POLARITY	TOGGLE	F	Signal Polarity
CONDIT	TWOPARAM	F	1.50000E+001	0.00000E+000	Conditionin&g	Time(s)	E(V)
DELAY	TWOPARAM	F	5.00000E+000	0.00000E+000	Init. De&lay	Time(s)	Stab.(mV/s)
EQDELAY	QUANT	0.00000E+000	Equil. &Time (s)
IRCOMP	SELECTOR	0	IRCom&p
PFCOR	QUANT	5.00000E+001	PF Corr. (ohm)
SAMPLINGMODE	SELECTOR	1	Sampling &Mode
EOC	QUANT	0	Open Circuit (V)
PSTATMODEL	IQUANT	5	Pstat Model
PSTATSECTION	LABEL	REF3000-21108	Pstat Section
PSTATSERIALNO	LABEL	21108	Pstat Serial Number
CTRLMODE	IQUANT	1	Control Mode
ELECTROMETER	IQUANT	0	RE=0 or CS=1
IESTAB	IQUANT	2	I/E Stability
CASPEED	IQUANT	4	Control Amp Speed
CONVENTION	IQUANT	1	Current Convention
ICHRANGE	IQUANT	2	Ich Range
ICHRANGEMODE	TOGGLE	F	Ich Auto Range
ICHOFFSETENABLE	TOGGLE	F	Ich Offset Enable
ICHOFFSET	QUANT	0	Ich Offset (V)
ICHFILTER	IQUANT	1	Ich Filter
VCHRANGE	IQUANT	2	Vch Range
VCHRANGEMODE	TOGGLE	F	Vch Auto Range
VCHOFFSETENABLE	TOGGLE	F	Vch Offset Enable
VCHOFFSET	QUANT	0	Vch Offset (V)
VCHFILTER	IQUANT	1	Vch Filter
ACHRANGE	IQUANT	2	Ach Range
ACHOFFSETENABLE	TOGGLE	F	Ach Offset Enable
ACHOFFSET	QUANT	0	Ach Offset (V)
ACHFILTER	IQUANT	0	Ach Filter
IERANGELOWERLIMIT	IQUANT	2	I/E Range Lower Limit
IERANGEMODE	TOGGLE	F	I/E AutoRange
IERANGE	IQUANT	10	I/E Range
POSFEEDENABLE	TOGGLE	F	Positive Feedback IR Comp
POSFEEDRESISTANCE	QUANT	0	Positive Feedback Resistance (ohm)
ACHSELECT	IQUANT	0	Ach Select
SENSECABLEID	IQUANT	14	Sense Cable ID
PWRCABLEID	IQUANT	7	Power Cable ID
DCCALDATE	LABEL	11/9/2022	DC Calibration Date
ACCALDATE	LABEL	11/9/2022	AC Calibration Date
THERMOSELECT	IQUANT	1	Thermo Select
FRAMEWORKVERSION	LABEL	7.8.2	Framework Version
INSTRUMENTVERSION	LABEL	4.40	Instrument Version
COMPLIANCEVOLTAGE	IQUANT	0	Compliance Voltage
CURVE1	TABLE
	Pt	T	Vf	Im	Vu	Sig	Ach	IERange	Over	Temp
	#	s	V vs. Ref.	A	V	V	V	#	bits	deg C
	0	0.000333	4.98716E-001	6.72223E-005	0.00000E+000	5.00000E-001	-7.29272E-004	10	..........a	-327.74
	7	0.002667	4.91741E-001	5.16821E-005	0.00000E+000	4.93000E-001	-7.29272E-004	10	..........a	-327.74
	14	0.005	4.84591E-001	4.69198E-005	0.00000E+000	4.86000E-001	-6.29272E-004	10	..........a	-327.74
	21	0.007333	4.77666E-001	4.29094E-005	0.00000E+000	4.79000E-001	-8.79272E-004	10	..........a	-327.74
	28	0.009667	4.70591E-001	3.71445E-005	0.00000E+000	4.72000E-001	-8.29272E-004	10	..........a	-327.74
	35	0.012	4.63616E-001	3.63925E-005	0.00000E+000	4.65000E-001	-7.29272E-004	10	..........a	-327.74
	42	0.014333	4.56691E-001	3.13796E-005	0.00000E+000	4.58000E-001	-8.29272E-004	10	..........a	-327.74
	49	0.016667	4.49616E-001	3.03770E-005	0.00000E+000	4.51000E-001	-8.79272E-004	10	..........a	-327.74
	56	0.019	4.42716E-001	2.81211E-005	0.00000E+000	4.44000E-001	-7.29272E-004	10	..........a	-327.74
	63	0.021333	4.35616E-001	2.53640E-005	0.00000E+000	4.37000E-001	-7.29272E-004	10	..........a	-327.74
	70	0.023667	4.28591E-001	2.51133E-005	0.00000E+000	4.30000E-001	-8.29272E-004	10	..........a	-327.74
	77	0.026	4.21666E-001	2.26069E-005	0.00000E+000	4.23000E-001	-7.79272E-004	10	..........a	-327.74
	84	0.028333	4.14641E-001	2.01004E-005	0.00000E+000	4.16000E-001	-7.29272E-004	10	..........a	-327.74
	91	0.030667	4.07616E-001	1.83458E-005	0.00000E+000	4.09000E-001	-8.29272E-004	10	..........a	-327.74
	98	0.033	4.00616E-001	1.70926E-005	0.00000E+000	4.02000E-001	-8.79272E-004	10	..........a	-327.74
	105	0.035333	3.93666E-001	1.53381E-005	0.00000E+000	3.95000E-001	-8.29272E-004	10	..........a	-327.74
	112	0.037667	3.86741E-001	1.58393E-005	0.00000E+000	3.88000E-001	-8.29272E-004	10	..........a	-327.74
	119	0.04	3.79691E-001	1.15783E-005	0.00000E+000	3.81000E-001	-9.29272E-004	10	..........a	-327.74
	126	0.042333	3.72716E-001	1.13277E-005	0.00000E+000	3.74000E-001	-9.29272E-004	10	..........a	-327.74
	133	0.044667	3.65691E-001	1.05757E-005	0.00000E+000	3.67000E-001	-7.29272E-004	10	..........a	-327.74
	140	0.047	3.58691E-001	9.82378E-006	0.00000E+000	3.60000E-001	-9.29272E-004	10	..........a	-327.74
	147	0.049333	3.51716E-001	8.57054E-006	0.00000E+000	3.53000E-001	-8.29272E-004	10	..........a	-327.74
	154	0.051667	3.44666E-001	7.56795E-006	0.00000E+000	3.46000E-001	-8.29272E-004	10	..........a	-327.74
	161	0.054	3.37641E-001	3.80822E-006	0.00000E+000	3.39000E-001	-9.29272E-004	10	..........a	-327.74
	168	0.056333	3.30766E-001	6.81600E-006	0.00000E+000	3.32000E-001	-8.29272E-004	10	..........a	-327.74
	175	0.058667	3.23666E-001	4.30952E-006	0.00000E+000	3.25000E-001	-9.79272E-004	10	..........a	-327.74
	182	0.061	3.16666E-001	4.81081E-006	0.00000E+000	3.18000E-001	-8.79272E-004	10	..........a	-327.74
	189	0.063333	3.09766E-001	3.55757E-006	0.00000E+000	3.11000E-001	-7.29272E-004	10	..........a	-327.74
	196	0.065667	3.02741E-001	4.30952E-006	0.00000E+000	3.04000E-001	-7.29272E-004	10	..........a	-327.74
	203	0.068	2.95641E-001	2.05368E-006	0.00000E+000	2.97000E-001	-9.79272E-004	10	..........a	-327.74
	210	0.070333	2.88791E-001	-2.02156E-007	0.00000E+000	2.90000E-001	-9.29272E-004	10	..........a	-327.74
	217	0.072667	2.81616E-001	1.80303E-006	0.00000E+000	2.83000E-001	-8.29272E-004	10	..........a	-327.74
	224	0.075	2.74841E-001	-3.96188E-006	0.00000E+000	2.76000E-001	-8.29272E-004	10	..........a	-327.74
	231	0.077333	2.67791E-001	-2.20734E-006	0.00000E+000	2.69000E-001	-7.79272E-004	10	..........a	-327.74
	238	0.079667	2.60616E-001	-5.96707E-006	0.00000E+000	2.62000E-001	-8.79272E-004	10	..........a	-327.74
	245	0.082	2.53691E-001	-6.21772E-006	0.00000E+000	2.55000E-001	-7.29272E-004	10	..........a	-327.74
	252	0.084333	2.46791E-001	-6.96967E-006	0.00000E+000	2.48000E-001	-7.79272E-004	10	..........a	-327.74
	259	0.086667	2.39741E-001	-6.71902E-006	0.00000E+000	2.41000E-001	-7.79272E-004	10	..........a	-327.74
	266	0.089	2.32691E-001	-6.46837E-006	0.00000E+000	2.34000E-001	-8.29272E-004	10	..........a	-327.74
	273	0.091333	2.25666E-001	-8.97485E-006	0.00000E+000	2.27000E-001	-7.79272E-004	10	..........a	-327.74
	280	0.093667	2.18716E-001	-1.02281E-005	0.00000E+000	2.20000E-001	-7.79272E-004	10	..........a	-327.74
	287	0.096	2.11691E-001	-1.09800E-005	0.00000E+000	2.13000E-001	-7.79272E-004	10	..........a	-327.74
	294	0.098333	2.04716E-001	-9.47615E-006	0.00000E+000	2.06000E-001	-7.79272E-004	10	..........a	-327.74
	301	0.100667	1.97766E-001	-1.39878E-005	0.00000E+000	1.99000E-001	-8.79272E-004	10	..........a	-327.74
	308	0.103	1.90841E-001	-1.12307E-005	0.00000E+000	1.92000E-001	-7.79272E-004	10	..........a	-327.74
	315	0.105333	1.83766E-001	-1.19826E-005	0.00000E+000	1.85000E-001	-7.29272E-004	10	..........a	-327.74
	322	0.107667	1.76741E-001	-1.32359E-005	0.00000E+000	1.78000E-001	-8.79272E-004	10	..........a	-327.74
	329	0.11	1.69741E-001	-1.37372E-005	0.00000E+000	1.71000E-001	-8.79272E-004	10	..........a	-327.74
	336	0.112333	1.62841E-001	-1.42385E-005	0.00000E+000	1.64000E-001	-7.79272E-004	10	..........a	-327.74
	343	0.114667	1.55691E-001	-1.67450E-005	0.00000E+000	1.57000E-001	-8.29272E-004	10	..........a	-327.74
	350	0.117	1.48816E-001	-1.49904E-005	0.00000E+000	1.50000E-001	-7.79272E-004	10	..........a	-327.74
	357	0.119333	1.41866E-001	-1.84995E-005	0.00000E+000	1.43000E-001	-8.79272E-004	10	..........a	-327.74
	364	0.121667	1.34791E-001	-1.64943E-005	0.00000E+000	1.36000E-001	-7.29272E-004	10	..........a	-327.74
	371	0.124	1.27941E-001	-1.62437E-005	0.00000E+000	1.29000E-001	-8.79272E-004	10	..........a	-327.74
	378	0.126333	1.20841E-001	-1.74969E-005	0.00000E+000	1.22000E-001	-9.29272E-004	10	..........a	-327.74
	385	0.128667	1.13841E-001	-1.87501E-005	0.00000E+000	1.15000E-001	-8.79272E-004	10	..........a	-327.74
	392	0.131	1.06791E-001	-1.79982E-005	0.00000E+000	1.08000E-001	-8.29272E-004	10	..........a	-327.74
	399	0.133333	9.97660E-002	-1.69956E-005	0.00000E+000	1.01000E-001	-7.29272E-004	10	..........a	-327.74
	406	0.135667	9.27160E-002	-1.77476E-005	0.00000E+000	9.40000E-002	-7.79272E-004	10	..........a	-327.74
	413	0.138	8.58410E-002	-2.00034E-005	0.00000E+000	8.70000E-002	-8.29272E-004	10	..........a	-327.74
	420	0.140333	7.88410E-002	-1.92514E-005	0.00000E+000	8.00000E-002	-9.79272E-004	10	..........a	-327.74
	427	0.142667	7.18160E-002	-2.00034E-005	0.00000E+000	7.30000E-002	-9.29272E-004	10	..........a	-327.74
	434	0.145	6.49160E-002	-2.20086E-005	0.00000E+000	6.60000E-002	-6.79272E-004	10	..........a	-327.74
	441	0.147333	5.79910E-002	-2.12566E-005	0.00000E+000	5.90000E-002	-8.29272E-004	10	..........a	-327.74
	448	0.149667	5.08660E-002	-2.25099E-005	0.00000E+000	5.20000E-002	-8.79272E-004	10	..........a	-327.74
	455	0.152	4.37660E-002	-2.02540E-005	0.00000E+000	4.50000E-002	-7.79272E-004	10	..........a	-327.74
	462	0.154333	3.68160E-002	-2.17579E-005	0.00000E+000	3.80000E-002	-8.79272E-004	10	..........a	-327.74
	469	0.156667	2.98410E-002	-2.22592E-005	0.00000E+000	3.10000E-002	-8.79272E-004	10	..........a	-327.74
	476	0.159	2.28160E-002	-2.27605E-005	0.00000E+000	2.40000E-002	-8.29272E-004	10	..........a	-327.74
	483	0.161333	1.58910E-002	-2.10060E-005	0.00000E+000	1.70000E-002	-7.79272E-004	10	..........a	-327.74
	490	0.163667	8.86600E-003	-2.15073E-005	0.00000E+000	9.99999E-003	-8.79272E-004	10	..........a	-327.74
	497	0.166	1.76600E-003	-2.30112E-005	0.00000E+000	2.99999E-003	-8.29272E-004	10	..........a	-327.74
	504	0.168333	-5.18400E-003	-2.07553E-005	0.00000E+000	-4.00001E-003	-9.29272E-004	10	..........a	-327.74
	511	0.170667	-1.22340E-002	-2.27605E-005	0.00000E+000	-1.10000E-002	-7.79272E-004	10	..........a	-327.74
	518	0.173	-1.91840E-002	-2.27605E-005	0.00000E+000	-1.80000E-002	-9.79272E-004	10	..........a	-327.74
	525	0.175333	-2.61090E-002	-2.55177E-005	0.00000E+000	-2.50000E-002	-7.79272E-004	10	..........a	-327.74
	532	0.177667	-3.31090E-002	-2.27605E-005	0.00000E+000	-3.20000E-002	-8.29272E-004	10	..........a	-327.74
	539	0.18	-4.02590E-002	-2.37631E-005	0.00000E+000	-3.90000E-002	-6.79272E-004	10	..........a	-327.74
	546	0.182333	-4.70340E-002	-2.40138E-005	0.00000E+000	-4.60000E-002	-7.79272E-004	10	..........a	-327.74
	553	0.184667	-5.40090E-002	-2.30112E-005	0.00000E+000	-5.30000E-002	-8.29272E-004	10	..........a	-327.74
	560	0.187	-6.11340E-002	-2.45151E-005	0.00000E+000	-6.00000E-002	-8.29272E-004	10	..........a	-327.74
	567	0.189333	-6.81090E-002	-2.47657E-005	0.00000E+000	-6.70000E-002	-8.29272E-004	10	..........a	-327.74
	574	0.191667	-7.51590E-002	-2.52670E-005	0.00000E+000	-7.40000E-002	-7.79272E-004	10	..........a	-327.74
	581	0.194	-8.21590E-002	-2.42644E-005	0.00000E+000	-8.10000E-002	-7.79272E-004	10	..........a	-327.74
	588	0.196333	-8.91590E-002	-2.42644E-005	0.00000E+000	-8.80000E-002	-7.79272E-004	10	..........a	-327.74
	595	0.198667	-9.61090E-002	-2.47657E-005	0.00000E+000	-9.50000E-002	-6.79272E-004	10	..........a	-327.74
	602	0.201	-1.03059E-001	-2.72722E-005	0.00000E+000	-1.02000E-001	-7.29272E-004	10	..........a	-327.74
	609	0.203333	-1.10134E-001	-2.47657E-005	0.00000E+000	-1.09000E-001	-8.79272E-004	10	..........a	-327.74
	616	0.205667	-1.17109E-001	-2.60190E-005	0.00000E+000	-1.16000E-001	-7.79272E-004	10	..........a	-327.74
	623	0.208	-1.24084E-001	-2.90267E-005	0.00000E+000	-1.23000E-001	-7.29272E-004	10	..........a	-327.74
	630	0.210333	-1.31184E-001	-2.62696E-005	0.00000E+000	-1.30000E-001	-8.29272E-004	10	..........a	-327.74
	637	0.212667	-1.38109E-001	-2.80241E-005	0.00000E+000	-1.37000E-001	-8.29272E-004	10	..........a	-327.74
	644	0.215	-1.45134E-001	-2.77735E-005	0.00000E+000	-1.44000E-001	-7.29272E-004	10	..........a	-327.74
	651	0.217333	-1.52109E-001	-2.92774E-005	0.00000E+000	-1.51000E-001	-7.79272E-004	10	..........a	-327.74
	658	0.219667	-1.59134E-001	-3.02800E-005	0.00000E+000	-1.58000E-001	-9.29272E-004	10	..........a	-327.74
	665	0.222	-1.66109E-001	-3.25358E-005	0.00000E+000	-1.65000E-001	-7.79272E-004	10	..........a	-327.74
	672	0.224333	-1.73084E-001	-2.90267E-005	0.00000E+000	-1.72000E-001	-8.29272E-004	10	..........a	-327.74
	679	0.226667	-1.80109E-001	-3.25358E-005	0.00000E+000	-1.79000E-001	-7.79272E-004	10	..........a	-327.74
	686	0.229	-1.87159E-001	-3.32878E-005	0.00000E+000	-1.86000E-001	-7.79272E-004	10	..........a	-327.74
	693	0.231333	-1.94109E-001	-3.60449E-005	0.00000E+000	-1.93000E-001	-8.29272E-004	10	..........a	-327.74
	700	0.233667	-2.01109E-001	-3.27865E-005	0.00000E+000	-2.00000E-001	-7.79272E-004	10	..........a	-327.74
	707	0.236	-2.08034E-001	-3.47916E-005	0.00000E+000	-2.07000E-001	-8.79272E-004	10	..........a	-327.74
	714	0.238333	-2.15059E-001	-3.47916E-005	0.00000E+000	-2.14000E-001	-8.79272E-004	10	..........a	-327.74
	721	0.240667	-2.21959E-001	-3.62955E-005	0.00000E+000	-2.21000E-001	-8.79272E-004	10	..........a	-327.74
	728	0.243	-2.29059E-001	-3.70475E-005	0.00000E+000	-2.28000E-001	-7.79272E-004	10	..........a	-327.74
	735	0.245333	-2.36134E-001	-3.98046E-005	0.00000E+000	-2.35000E-001	-8.79272E-004	10	..........a	-327.74
	742	0.247667	-2.43159E-001	-4.03059E-005	0.00000E+000	-2.42000E-001	-7.79272E-004	10	..........a	-327.74
	749	0.25	-2.50059E-001	-4.08072E-005	0.00000E+000	-2.49000E-001	-7.79272E-004	10	..........a	-327.74
	756	0.252333	-2.57134E-001	-4.28124E-005	0.00000E+000	-2.56000E-001	-7.79272E-004	10	..........a	-327.74
	763	0.254667	-2.64034E-001	-4.23111E-005	0.00000E+000	-2.63000E-001	-7.29272E-004	10	..........a	-327.74
	770	0.257	-2.71009E-001	-4.28124E-005	0.00000E+000	-2.70000E-001	-7.29272E-004	10	..........a	-327.74
	777	0.259333	-2.78084E-001	-4.43163E-005	0.00000E+000	-2.77000E-001	-7.79272E-004	10	..........a	-327.74
	784	0.261667	-2.85134E-001	-4.43163E-005	0.00000E+000	-2.84000E-001	-7.79272E-004	10	..........a	-327.74
	791	0.264	-2.91984E-001	-4.83267E-005	0.00000E+000	-2.91000E-001	-9.29272E-004	10	..........a	-327.74
	798	0.266333	-2.99084E-001	-4.88280E-005	0.00000E+000	-2.98000E-001	-7.79272E-004	10	..........a	-327.74
	805	0.268667	-3.05984E-001	-5.10838E-005	0.00000E+000	-3.05000E-001	-6.79272E-004	10	..........a	-327.74
	812	0.271	-3.13084E-001	-5.23370E-005	0.00000E+000	-3.12000E-001	-8.29272E-004	10	..........a	-327.74
	819	0.273333	-3.20009E-001	-5.35903E-005	0.00000E+000	-3.19000E-001	-7.29272E-004	10	..........a	-327.74
	826	0.275667	-3.27109E-001	-5.43422E-005	0.00000E+000	-3.26000E-001	-7.29272E-004	10	..........a	-327.74
	833	0.278	-3.34009E-001	-5.65981E-005	0.00000E+000	-3.33000E-001	-7.79272E-004	10	..........a	-327.74
	840	0.280333	-3.41134E-001	-5.73500E-005	0.00000E+000	-3.40000E-001	-8.79272E-004	10	..........a	-327.74
	847	0.282667	-3.48059E-001	-5.65981E-005	0.00000E+000	-3.47000E-001	-7.79272E-004	10	..........a	-327.74
	854	0.285	-3.55084E-001	-5.96059E-005	0.00000E+000	-3.54000E-001	-7.79272E-004	10	..........a	-327.74
	861	0.287333	-3.62009E-001	-6.21123E-005	0.00000E+000	-3.61000E-001	-8.79272E-004	10	..........a	-327.74
	868	0.289667	-3.69159E-001	-6.46188E-005	0.00000E+000	-3.68000E-001	-8.29272E-004	10	..........a	-327.74
	875	0.292	-3.76059E-001	-6.71253E-005	0.00000E+000	-3.75000E-001	-6.29272E-004	10	..........a	-327.74
	882	0.294333	-3.82984E-001	-7.06344E-005	0.00000E+000	-3.82000E-001	-7.79272E-004	10	..........a	-327.74
	889	0.296667	-3.90059E-001	-7.08850E-005	0.00000E+000	-3.89000E-001	-8.79272E-004	10	..........a	-327.74
	896	0.299	-3.96884E-001	-7.36422E-005	0.00000E+000	-3.96000E-001	-7.79272E-004	10	..........a	-327.74
	903	0.301333	-4.03984E-001	-8.19136E-005	0.00000E+000	-4.03000E-001	-8.29272E-004	10	..........a	-327.74
	910	0.303667	-4.11034E-001	-9.01850E-005	0.00000E+000	-4.10000E-001	-7.79272E-004	10	..........a	-327.74
	917	0.306	-4.17984E-001	-9.67018E-005	0.00000E+000	-4.17000E-001	-7.79272E-004	10	..........a	-327.74
	924	0.308333	-4.24984E-001	-1.07730E-004	0.00000E+000	-4.24000E-001	-8.29272E-004	10	..........a	-327.74
	931	0.310667	-4.31984E-001	-1.22017E-004	0.00000E+000	-4.31000E-001	-8.79272E-004	10	..........a	-327.74
	938	0.313	-4.38934E-001	-1.37307E-004	0.00000E+000	-4.38000E-001	-6.79272E-004	10	..........a	-327.74
	945	0.315333	-4.45959E-001	-1.55354E-004	0.00000E+000	-4.45000E-001	-7.79272E-004	10	..........a	-327.74
	952	0.317667	-4.52934E-001	-1.73150E-004	0.00000E+000	-4.52000E-001	-7.79272E-004	10	..........a	-327.74
	959	0.32	-4.59959E-001	-1.93703E-004	0.00000E+000	-4.59000E-001	-7.29272E-004	10	..........a	-327.74
	966	0.322333	-4.67109E-001	-2.12000E-004	0.00000E+000	-4.66000E-001	-7.79272E-004	10	..........a	-327.74
	973	0.324667	-4.73934E-001	-2.28292E-004	0.00000E+000	-4.73000E-001	-8.29272E-004	10	..........a	-327.74
	980	0.327	-4.81034E-001	-2.48845E-004	0.00000E+000	-4.80000E-001	-8.29272E-004	10	..........a	-327.74
	987	0.329333	-4.87984E-001	-2.65138E-004	0.00000E+000	-4.87000E-001	-8.29272E-004	10	..........a	-327.74
	994	0.331667	-4.94984E-001	-2.84438E-004	0.00000E+000	-4.94000E-001	-7.29272E-004	10	..........a	-327.74
	1001	0.334	-5.01959E-001	-3.05241E-004	0.00000E+000	-5.01000E-001	-7.79272E-004	10	..........a	-327.74
	1008	0.336333	-5.08959E-001	-3.27549E-004	0.00000E+000	-5.08000E-001	-9.29272E-004	10	..........a	-327.74
	1015	0.338667	-5.15959E-001	-3.56875E-004	0.00000E+000	-5.15000E-001	-6.79272E-004	10	..........a	-327.74
	1022	0.341	-5.23034E-001	-3.86702E-004	0.00000E+000	-5.22000E-001	-8.29272E-004	10	..........a	-327.74
	1029	0.343333	-5.29959E-001	-4.25051E-004	0.00000E+000	-5.29000E-001	-8.29272E-004	10	..........a	-327.74
	1036	0.345667	-5.37059E-001	-4.70168E-004	0.00000E+000	-5.36000E-001	-8.79272E-004	10	..........a	-327.74
	1043	0.348	-5.43984E-001	-5.18293E-004	0.00000E+000	-5.43000E-001	-7.79272E-004	10	..........a	-327.74
	1050	0.350333	-5.51009E-001	-5.71430E-004	0.00000E+000	-5.50000E-001	-6.79272E-004	10	..........a	-327.74
	1057	0.352667	-5.57909E-001	-6.28077E-004	0.00000E+000	-5.57000E-001	-7.79272E-004	10	..........a	-327.74
	1064	0.355	-5.64934E-001	-6.82217E-004	0.00000E+000	-5.64000E-001	-8.29272E-004	10	..........a	-327.74
	1071	0.357333	-5.71984E-001	-7.31093E-004	0.00000E+000	-5.71000E-001	-7.79272E-004	10	..........a	-327.74
	1078	0.359667	-5.78984E-001	-7.75959E-004	0.00000E+000	-5.78000E-001	-8.79272E-004	10	..........a	-327.74
	1085	0.362	-5.86034E-001	-8.11050E-004	0.00000E+000	-5.85000E-001	-7.29272E-004	10	..........a	-327.74
	1092	0.364333	-5.92984E-001	-8.39875E-004	0.00000E+000	-5.92000E-001	-7.29272E-004	10	..........a	-327.74
	1099	0.366667	-5.99984E-001	-8.57921E-004	0.00000E+000	-5.99000E-001	-7.29272E-004	10	..........a	-327.74
	1106	0.369	-6.07009E-001	-8.68950E-004	0.00000E+000	-6.06000E-001	-8.29272E-004	10	..........a	-327.74
	1113	0.371333	-6.13884E-001	-8.72459E-004	0.00000E+000	-6.13000E-001	-7.79272E-004	10	..........a	-327.74
	1120	0.373667	-6.21034E-001	-8.68699E-004	0.00000E+000	-6.20000E-001	-8.29272E-004	10	..........a	-327.74
	1127	0.376	-6.28009E-001	-8.62182E-004	0.00000E+000	-6.27000E-001	-9.29272E-004	10	..........a	-327.74
	1134	0.378333	-6.34809E-001	-8.47645E-004	0.00000E+000	-6.34000E-001	-8.29272E-004	10	..........a	-327.74
	1141	0.380667	-6.41934E-001	-8.32105E-004	0.00000E+000	-6.41000E-001	-8.79272E-004	10	..........a	-327.74
	1148	0.383	-6.48934E-001	-8.15060E-004	0.00000E+000	-6.48000E-001	-7.79272E-004	10	..........a	-327.74
	1155	0.385333	-6.55984E-001	-7.95760E-004	0.00000E+000	-6.55000E-001	-9.29272E-004	10	..........a	-327.74
	1162	0.387667	-6.62859E-001	-7.78215E-004	0.00000E+000	-6.62000E-001	-7.29272E-004	10	..........a	-327.74
	1169	0.39	-6.69884E-001	-7.62675E-004	0.00000E+000	-6.69000E-001	-7.29272E-004	10	..........a	-327.74
	1176	0.392333	-6.76884E-001	-7.45631E-004	0.00000E+000	-6.76000E-001	-8.29272E-004	10	..........a	-327.74
	1183	0.394667	-6.83909E-001	-7.26832E-004	0.00000E+000	-6.83000E-001	-7.29272E-004	10	..........a	-327.74
	1190	0.397	-6.90984E-001	-7.11793E-004	0.00000E+000	-6.90000E-001	-8.79272E-004	10	..........a	-327.74
	1197	0.399333	-6.97884E-001	-6.97506E-004	0.00000E+000	-6.97000E-001	-8.29272E-004	10	..........a	-327.74
	1204	0.401667	-7.04859E-001	-6.81715E-004	0.00000E+000	-7.04000E-001	-9.29272E-004	10	..........a	-327.74
	1211	0.404	-7.11884E-001	-6.66175E-004	0.00000E+000	-7.11000E-001	-8.29272E-004	10	..........a	-327.74
	1218	0.406333	-7.18784E-001	-6.53893E-004	0.00000E+000	-7.18000E-001	-8.79272E-004	10	..........a	-327.74
	1225	0.408667	-7.25959E-001	-6.41612E-004	0.00000E+000	-7.25000E-001	-6.79272E-004	10	..........a	-327.74
	1232	0.411	-7.32834E-001	-6.29831E-004	0.00000E+000	-7.32000E-001	-7.79272E-004	10	..........a	-327.74
	1239	0.413333	-7.39784E-001	-6.18552E-004	0.00000E+000	-7.39000E-001	-8.79272E-004	10	..........a	-327.74
	1246	0.415667	-7.46959E-001	-6.08777E-004	0.00000E+000	-7.46000E-001	-7.79272E-004	10	..........a	-327.74
	1253	0.418	-7.53884E-001	-5.99252E-004	0.00000E+000	-7.53000E-001	-7.29272E-004	10	..........a	-327.74
	1260	0.420333	-7.60784E-001	-5.90479E-004	0.00000E+000	-7.60000E-001	-6.79272E-004	10	..........a	-327.74
	1267	0.422667	-7.67859E-001	-5.82459E-004	0.00000E+000	-7.67000E-001	-9.29272E-004	10	..........a	-327.74
	1274	0.425	-7.74809E-001	-5.72934E-004	0.00000E+000	-7.74000E-001	-8.29272E-004	10	..........a	-327.74
	1281	0.427333	-7.81884E-001	-5.64161E-004	0.00000E+000	-7.81000E-001	-6.79272E-004	10	..........a	-327.74
	1288	0.429667	-7.88934E-001	-5.55138E-004	0.00000E+000	-7.88000E-001	-9.79272E-004	10	..........a	-327.74
	1295	0.432	-7.95934E-001	-5.50376E-004	0.00000E+000	-7.95000E-001	-8.29272E-004	10	..........a	-327.74
	1302	0.434333	-8.02909E-001	-5.41102E-004	0.00000E+000	-8.02000E-001	-7.79272E-004	10	..........a	-327.74
	1309	0.436667	-8.09834E-001	-5.34585E-004	0.00000E+000	-8.09000E-001	-6.79272E-004	10	..........a	-327.74
	1316	0.439	-8.16834E-001	-5.27817E-004	0.00000E+000	-8.16000E-001	-7.29272E-004	10	..........a	-327.74
	1323	0.441333	-8.23959E-001	-5.21551E-004	0.00000E+000	-8.23000E-001	-7.79272E-004	10	..........a	-327.74
	1330	0.443667	-8.30784E-001	-5.14282E-004	0.00000E+000	-8.30000E-001	-7.79272E-004	10	..........a	-327.74
	1337	0.446	-8.37759E-001	-5.07264E-004	0.00000E+000	-8.37000E-001	-8.29272E-004	10	..........a	-327.74
	1344	0.448333	-8.44759E-001	-5.02502E-004	0.00000E+000	-8.44000E-001	-7.29272E-004	10	..........a	-327.74
	1351	0.450667	-8.51784E-001	-4.98742E-004	0.00000E+000	-8.51000E-001	-7.79272E-004	10	..........a	-327.74
	1358	0.453	-8.58809E-001	-4.91974E-004	0.00000E+000	-8.58000E-001	-7.79272E-004	10	..........a	-327.74
	1365	0.455333	-8.65834E-001	-4.87212E-004	0.00000E+000	-8.65000E-001	-8.29272E-004	10	..........a	-327.74
	1372	0.457667	-8.72834E-001	-4.83703E-004	0.00000E+000	-8.72000E-001	-8.29272E-004	10	..........a	-327.74
	1379	0.46	-8.79809E-001	-4.78941E-004	0.00000E+000	-8.79000E-001	-8.29272E-004	10	..........a	-327.74
	1386	0.462333	-8.86834E-001	-4.73176E-004	0.00000E+000	-8.86000E-001	-8.29272E-004	10	..........a	-327.74
	1393	0.464667	-8.93784E-001	-4.67160E-004	0.00000E+000	-8.93000E-001	-8.79272E-004	10	..........a	-327.74
	1400	0.467	-9.00784E-001	-4.62899E-004	0.00000E+000	-9.00000E-001	-7.79272E-004	10	..........a	-327.74
	1407	0.469333	-9.07809E-001	-4.57886E-004	0.00000E+000	-9.07000E-001	-9.29272E-004	10	..........a	-327.74
	1414	0.471667	-9.14784E-001	-4.53876E-004	0.00000E+000	-9.14000E-001	-6.79272E-004	10	..........a	-327.74
	1421	0.474	-9.21859E-001	-4.50116E-004	0.00000E+000	-9.21000E-001	-8.79272E-004	10	..........a	-327.74
	1428	0.476333	-9.28659E-001	-4.48612E-004	0.00000E+000	-9.28000E-001	-7.79272E-004	10	..........a	-327.74
	1435	0.478667	-9.35759E-001	-4.42597E-004	0.00000E+000	-9.35000E-001	-8.29272E-004	10	..........a	-327.74
	1442	0.481	-9.42734E-001	-4.40341E-004	0.00000E+000	-9.42000E-001	-6.79272E-004	10	..........a	-327.74
	1449	0.483333	-9.49659E-001	-4.36331E-004	0.00000E+000	-9.49000E-001	-7.79272E-004	10	..........a	-327.74
	1456	0.485667	-9.56784E-001	-4.34075E-004	0.00000E+000	-9.56000E-001	-7.29272E-004	10	..........a	-327.74
	1463	0.488	-9.63784E-001	-4.30816E-004	0.00000E+000	-9.63000E-001	-7.79272E-004	10	..........a	-327.74
	1470	0.490333	-9.70809E-001	-4.25302E-004	0.00000E+000	-9.70000E-001	-8.79272E-004	10	..........a	-327.74
	1477	0.492667	-9.77884E-001	-4.26305E-004	0.00000E+000	-9.77000E-001	-7.79272E-004	10	..........a	-327.74
	1484	0.495	-9.84809E-001	-4.21542E-004	0.00000E+000	-9.84000E-001	-8.79272E-004	10	..........a	-327.74
	1491	0.497333	-9.91809E-001	-4.19286E-004	0.00000E+000	-9.91000E-001	-7.79272E-004	10	..........a	-327.74
	1498	0.499667	-9.98734E-001	-4.15276E-004	0.00000E+000	-9.98000E-001	-8.29272E-004	10	..........a	-327.74
	1505	0.502	-9.95759E-001	-3.84697E-004	0.00000E+000	-9.95000E-001	-8.29272E-004	10	..........a	-327.74
	1512	0.504333	-9.88809E-001	-3.62891E-004	0.00000E+000	-9.88000E-001	-7.29272E-004	10	..........a	-327.74
	1519	0.506667	-9.81759E-001	-3.51110E-004	0.00000E+000	-9.81000E-001	-8.29272E-004	10	..........a	-327.74
	1526	0.509	-9.74709E-001	-3.37074E-004	0.00000E+000	-9.74000E-001	-9.29272E-004	10	..........a	-327.74
	1533	0.511333	-9.67809E-001	-3.28301E-004	0.00000E+000	-9.67000E-001	-8.29272E-004	10	..........a	-327.74
	1540	0.513667	-9.60759E-001	-3.21534E-004	0.00000E+000	-9.60000E-001	-8.29272E-004	10	..........a	-327.74
	1547	0.516	-9.53759E-001	-3.14014E-004	0.00000E+000	-9.53000E-001	-8.79272E-004	10	..........a	-327.74
	1554	0.518333	-9.46809E-001	-3.09252E-004	0.00000E+000	-9.46000E-001	-8.29272E-004	10	..........a	-327.74
	1561	0.520667	-9.39709E-001	-3.03737E-004	0.00000E+000	-9.39000E-001	-7.29272E-004	10	..........a	-327.74
	1568	0.523	-9.32759E-001	-3.00228E-004	0.00000E+000	-9.32000E-001	-8.29272E-004	10	..........a	-327.74
	1575	0.525333	-9.25709E-001	-2.94213E-004	0.00000E+000	-9.25000E-001	-8.29272E-004	10	..........a	-327.74
	1582	0.527667	-9.18784E-001	-2.88949E-004	0.00000E+000	-9.18000E-001	-8.29272E-004	10	..........a	-327.74
	1589	0.53	-9.11909E-001	-2.85440E-004	0.00000E+000	-9.11000E-001	-7.29272E-004	10	..........a	-327.74
	1596	0.532333	-9.04834E-001	-2.82683E-004	0.00000E+000	-9.04000E-001	-8.29272E-004	10	..........a	-327.74
	1603	0.534667	-8.97784E-001	-2.77169E-004	0.00000E+000	-8.97000E-001	-8.29272E-004	10	..........a	-327.74
	1610	0.537	-8.90859E-001	-2.71905E-004	0.00000E+000	-8.90000E-001	-8.29272E-004	10	..........a	-327.74
	1617	0.539333	-8.83759E-001	-2.68647E-004	0.00000E+000	-8.83000E-001	-6.79272E-004	10	..........a	-327.74
	1624	0.541667	-8.76884E-001	-2.66642E-004	0.00000E+000	-8.76000E-001	-8.79272E-004	10	..........a	-327.74
	1631	0.544	-8.69784E-001	-2.60626E-004	0.00000E+000	-8.69000E-001	-8.29272E-004	10	..........a	-327.74
	1638	0.546333	-8.62809E-001	-2.59122E-004	0.00000E+000	-8.62000E-001	-7.29272E-004	10	..........a	-327.74
	1645	0.548667	-8.55784E-001	-2.55864E-004	0.00000E+000	-8.55000E-001	-8.29272E-004	10	..........a	-327.74
	1652	0.551	-8.48759E-001	-2.54610E-004	0.00000E+000	-8.48000E-001	-7.79272E-004	10	..........a	-327.74
	1659	0.553333	-8.41884E-001	-2.49347E-004	0.00000E+000	-8.41000E-001	-8.79272E-004	10	..........a	-327.74
	1666	0.555667	-8.34809E-001	-2.47091E-004	0.00000E+000	-8.34000E-001	-8.79272E-004	10	..........a	-327.74
	1673	0.558	-8.27709E-001	-2.45587E-004	0.00000E+000	-8.27000E-001	-8.29272E-004	10	..........a	-327.74
	1680	0.560333	-8.20884E-001	-2.43331E-004	0.00000E+000	-8.20000E-001	-8.79272E-004	10	..........a	-327.74
	1687	0.562667	-8.13884E-001	-2.40825E-004	0.00000E+000	-8.13000E-001	-8.29272E-004	10	..........a	-327.74
	1694	0.565	-8.06809E-001	-2.35561E-004	0.00000E+000	-8.06000E-001	-7.29272E-004	10	..........a	-327.74
	1701	0.567333	-7.99884E-001	-2.36564E-004	0.00000E+000	-7.99000E-001	-6.79272E-004	10	..........a	-327.74
	1708	0.569667	-7.92934E-001	-2.31049E-004	0.00000E+000	-7.92000E-001	-7.29272E-004	10	..........a	-327.74
	1715	0.572	-7.85959E-001	-2.30548E-004	0.00000E+000	-7.85000E-001	-8.79272E-004	10	..........a	-327.74
	1722	0.574333	-7.78809E-001	-2.25535E-004	0.00000E+000	-7.78000E-001	-6.79272E-004	10	..........a	-327.74
	1729	0.576667	-7.71909E-001	-2.27039E-004	0.00000E+000	-7.71000E-001	-6.79272E-004	10	..........a	-327.74
	1736	0.579	-7.64884E-001	-2.22527E-004	0.00000E+000	-7.64000E-001	-7.29272E-004	10	..........a	-327.74
	1743	0.581333	-7.57959E-001	-2.20272E-004	0.00000E+000	-7.57000E-001	-8.29272E-004	10	..........a	-327.74
	1750	0.583667	-7.50834E-001	-2.17264E-004	0.00000E+000	-7.50000E-001	-6.79272E-004	10	..........a	-327.74
	1757	0.586	-7.43909E-001	-2.14757E-004	0.00000E+000	-7.43000E-001	-9.29272E-004	10	..........a	-327.74
	1764	0.588333	-7.37034E-001	-2.12251E-004	0.00000E+000	-7.36000E-001	-8.29272E-004	10	..........a	-327.74
	1771	0.590667	-7.29934E-001	-2.06486E-004	0.00000E+000	-7.29000E-001	-7.79272E-004	10	..........a	-327.74
	1778	0.593	-7.22809E-001	-2.06987E-004	0.00000E+000	-7.22000E-001	-8.29272E-004	10	..........a	-327.74
	1785	0.595333	-7.15934E-001	-2.01222E-004	0.00000E+000	-7.15000E-001	-7.79272E-004	10	..........a	-327.74
	1792	0.597667	-7.09009E-001	-1.98465E-004	0.00000E+000	-7.08000E-001	-8.79272E-004	10	..........a	-327.74
	1799	0.6	-7.02009E-001	-1.96460E-004	0.00000E+000	-7.01000E-001	-8.79272E-004	10	..........a	-327.74
	1806	0.602333	-6.94909E-001	-1.92199E-004	0.00000E+000	-6.94000E-001	-8.29272E-004	10	..........a	-327.74
	1813	0.604667	-6.88009E-001	-1.86685E-004	0.00000E+000	-6.87000E-001	-7.79272E-004	10	..........a	-327.74
	1820	0.607	-6.80934E-001	-1.81672E-004	0.00000E+000	-6.80000E-001	-9.29272E-004	10	..........a	-327.74
	1827	0.609333	-6.73909E-001	-1.79165E-004	0.00000E+000	-6.73000E-001	-7.29272E-004	10	..........a	-327.74
	1834	0.611667	-6.66909E-001	-1.71144E-004	0.00000E+000	-6.66000E-001	-7.29272E-004	10	..........a	-327.74
	1841	0.614	-6.59834E-001	-1.65881E-004	0.00000E+000	-6.59000E-001	-8.79272E-004	10	..........a	-327.74
	1848	0.616333	-6.52934E-001	-1.57609E-004	0.00000E+000	-6.52000E-001	-7.29272E-004	10	..........a	-327.74
	1855	0.618667	-6.46009E-001	-1.52346E-004	0.00000E+000	-6.45000E-001	-7.29272E-004	10	..........a	-327.74
	1862	0.621	-6.38834E-001	-1.43824E-004	0.00000E+000	-6.38000E-001	-7.79272E-004	10	..........a	-327.74
	1869	0.623333	-6.31934E-001	-1.35552E-004	0.00000E+000	-6.31000E-001	-7.29272E-004	10	..........a	-327.74
	1876	0.625667	-6.25034E-001	-1.24273E-004	0.00000E+000	-6.24000E-001	-8.29272E-004	10	..........a	-327.74
	1883	0.628	-6.17984E-001	-1.13997E-004	0.00000E+000	-6.17000E-001	-7.79272E-004	10	..........a	-327.74
	1890	0.630333	-6.10959E-001	-9.87070E-005	0.00000E+000	-6.10000E-001	-7.79272E-004	10	..........a	-327.74
	1897	0.632667	-6.03934E-001	-8.64252E-005	0.00000E+000	-6.03000E-001	-8.29272E-004	10	..........a	-327.74
	1904	0.635	-5.96884E-001	-6.88798E-005	0.00000E+000	-5.96000E-001	-8.29272E-004	10	..........a	-327.74
	1911	0.637333	-5.89959E-001	-5.00812E-005	0.00000E+000	-5.89000E-001	-6.79272E-004	10	..........a	-327.74
	1918	0.639667	-5.82984E-001	-3.05306E-005	0.00000E+000	-5.82000E-001	-8.29272E-004	10	..........a	-327.74
	1925	0.642	-5.75959E-001	-1.04787E-005	0.00000E+000	-5.75000E-001	-7.79272E-004	10	..........a	-327.74
	1932	0.644333	-5.69034E-001	1.33329E-005	0.00000E+000	-5.68000E-001	-8.79272E-004	10	..........a	-327.74
	1939	0.646667	-5.61984E-001	3.31341E-005	0.00000E+000	-5.61000E-001	-7.29272E-004	10	..........a	-327.74
	1946	0.649	-5.54984E-001	5.51912E-005	0.00000E+000	-5.54000E-001	-8.29272E-004	10	..........a	-327.74
	1953	0.651333	-5.47909E-001	7.80002E-005	0.00000E+000	-5.47000E-001	-7.79272E-004	10	..........a	-327.74
	1960	0.653667	-5.41034E-001	9.98066E-005	0.00000E+000	-5.40000E-001	-8.29272E-004	10	..........a	-327.74
	1967	0.656	-5.33984E-001	1.19608E-004	0.00000E+000	-5.33000E-001	-7.29272E-004	10	..........a	-327.74
	1974	0.658333	-5.26984E-001	1.44171E-004	0.00000E+000	-5.26000E-001	-1.02927E-003	10	..........a	-327.74
	1981	0.660667	-5.19984E-001	1.64725E-004	0.00000E+000	-5.19000E-001	-9.29272E-004	10	..........a	-327.74
	1988	0.663	-5.13034E-001	1.84024E-004	0.00000E+000	-5.12000E-001	-7.29272E-004	10	..........a	-327.74
	1995	0.665333	-5.06034E-001	2.06332E-004	0.00000E+000	-5.05000E-001	-8.29272E-004	10	..........a	-327.74
	2002	0.667667	-4.99059E-001	2.29141E-004	0.00000E+000	-4.98000E-001	-8.29272E-004	10	..........a	-327.74
	2009	0.67	-4.91909E-001	2.49444E-004	0.00000E+000	-4.91000E-001	-8.79272E-004	10	..........a	-327.74
	2016	0.672333	-4.84959E-001	2.69997E-004	0.00000E+000	-4.84000E-001	-8.29272E-004	10	..........a	-327.74
	2023	0.674667	-4.77984E-001	2.90049E-004	0.00000E+000	-4.77000E-001	-8.29272E-004	10	..........a	-327.74
	2030	0.677	-4.70884E-001	3.09599E-004	0.00000E+000	-4.70000E-001	-8.29272E-004	10	..........a	-327.74
	2037	0.679333	-4.64034E-001	3.25390E-004	0.00000E+000	-4.63000E-001	-8.29272E-004	10	..........a	-327.74
	2044	0.681667	-4.57059E-001	3.39427E-004	0.00000E+000	-4.56000E-001	-8.29272E-004	10	..........a	-327.74
	2051	0.684	-4.50009E-001	3.53212E-004	0.00000E+000	-4.49000E-001	-7.79272E-004	10	..........a	-327.74
	2058	0.686333	-4.43084E-001	3.59729E-004	0.00000E+000	-4.42000E-001	-8.29272E-004	10	..........a	-327.74
	2065	0.688667	-4.36009E-001	3.66747E-004	0.00000E+000	-4.35000E-001	-9.29272E-004	10	..........a	-327.74
	2072	0.691	-4.29134E-001	3.69254E-004	0.00000E+000	-4.28000E-001	-8.29272E-004	10	..........a	-327.74
	2079	0.693333	-4.22109E-001	3.69003E-004	0.00000E+000	-4.21000E-001	-9.79272E-004	10	..........a	-327.74
	2086	0.695667	-4.14984E-001	3.69504E-004	0.00000E+000	-4.14000E-001	-8.29272E-004	10	..........a	-327.74
	2093	0.698	-4.08059E-001	3.67249E-004	0.00000E+000	-4.07000E-001	-8.29272E-004	10	..........a	-327.74
	2100	0.700333	-4.01034E-001	3.63990E-004	0.00000E+000	-4.00000E-001	-8.29272E-004	10	..........a	-327.74
	2107	0.702667	-3.93984E-001	3.60732E-004	0.00000E+000	-3.93000E-001	-7.79272E-004	10	..........a	-327.74
	2114	0.705	-3.87059E-001	3.57223E-004	0.00000E+000	-3.86000E-001	-7.79272E-004	10	..........a	-327.74
	2121	0.707333	-3.80009E-001	3.51458E-004	0.00000E+000	-3.79000E-001	-7.79272E-004	10	..........a	-327.74
	2128	0.709667	-3.73084E-001	3.45693E-004	0.00000E+000	-3.72000E-001	-8.29272E-004	10	..........a	-327.74
	2135	0.712	-3.65984E-001	3.42936E-004	0.00000E+000	-3.65000E-001	-7.29272E-004	10	..........a	-327.74
	2142	0.714333	-3.59134E-001	3.36168E-004	0.00000E+000	-3.58000E-001	-8.29272E-004	10	..........a	-327.74
	2149	0.716667	-3.52059E-001	3.35166E-004	0.00000E+000	-3.51000E-001	-8.29272E-004	10	..........a	-327.74
	2156	0.719	-3.44959E-001	3.29651E-004	0.00000E+000	-3.44000E-001	-7.29272E-004	10	..........a	-327.74
	2163	0.721333	-3.38059E-001	3.25892E-004	0.00000E+000	-3.37000E-001	-8.29272E-004	10	..........a	-327.74
	2170	0.723667	-3.31059E-001	3.22633E-004	0.00000E+000	-3.30000E-001	-8.79272E-004	10	..........a	-327.74
	2177	0.726	-3.24034E-001	3.19876E-004	0.00000E+000	-3.23000E-001	-9.29272E-004	10	..........a	-327.74
	2184	0.728333	-3.17059E-001	3.16868E-004	0.00000E+000	-3.16000E-001	-9.29272E-004	10	..........a	-327.74
	2191	0.730667	-3.10109E-001	3.15615E-004	0.00000E+000	-3.09000E-001	-8.29272E-004	10	..........a	-327.74
	2198	0.733	-3.03134E-001	3.12106E-004	0.00000E+000	-3.02000E-001	-8.29272E-004	10	..........a	-327.74
	2205	0.735333	-2.96034E-001	3.08346E-004	0.00000E+000	-2.95000E-001	-8.29272E-004	10	..........a	-327.74
	2212	0.737667	-2.89034E-001	3.07093E-004	0.00000E+000	-2.88000E-001	-8.79272E-004	10	..........a	-327.74
	2219	0.74	-2.81984E-001	3.06592E-004	0.00000E+000	-2.81000E-001	-7.29272E-004	10	..........a	-327.74
	2226	0.742333	-2.75134E-001	3.01328E-004	0.00000E+000	-2.74000E-001	-7.29272E-004	10	..........a	-327.74
	2233	0.744667	-2.68059E-001	3.00075E-004	0.00000E+000	-2.67000E-001	-8.29272E-004	10	..........a	-327.74
	2240	0.747	-2.61084E-001	2.99323E-004	0.00000E+000	-2.60000E-001	-7.29272E-004	10	..........a	-327.74
	2247	0.749333	-2.54084E-001	2.97318E-004	0.00000E+000	-2.53000E-001	-8.79272E-004	10	..........a	-327.74
	2254	0.751667	-2.47034E-001	2.95563E-004	0.00000E+000	-2.46000E-001	-7.29272E-004	10	..........a	-327.74
	2261	0.754	-2.40134E-001	2.90550E-004	0.00000E+000	-2.39000E-001	-8.29272E-004	10	..........a	-327.74
	2268	0.756333	-2.33034E-001	2.91051E-004	0.00000E+000	-2.32000E-001	-9.29272E-004	10	..........a	-327.74
	2275	0.758667	-2.26009E-001	2.84284E-004	0.00000E+000	-2.25000E-001	-8.79272E-004	10	..........a	-327.74
	2282	0.761	-2.19134E-001	2.82028E-004	0.00000E+000	-2.18000E-001	-7.29272E-004	10	..........a	-327.74
	2289	0.763333	-2.12109E-001	2.80273E-004	0.00000E+000	-2.11000E-001	-8.29272E-004	10	..........a	-327.74
	2296	0.765667	-2.05059E-001	2.74509E-004	0.00000E+000	-2.04000E-001	-8.29272E-004	10	..........a	-327.74
	2303	0.768	-1.98184E-001	2.74007E-004	0.00000E+000	-1.97000E-001	-7.79272E-004	10	..........a	-327.74
	2310	0.770333	-1.91084E-001	2.69496E-004	0.00000E+000	-1.90000E-001	-8.29272E-004	10	..........a	-327.74
	2317	0.772667	-1.84134E-001	2.65987E-004	0.00000E+000	-1.83000E-001	-9.29272E-004	10	..........a	-327.74
	2324	0.775	-1.77159E-001	2.63229E-004	0.00000E+000	-1.76000E-001	-8.29272E-004	10	..........a	-327.74
	2331	0.777333	-1.70059E-001	2.58216E-004	0.00000E+000	-1.69000E-001	-8.79272E-004	10	..........a	-327.74
	2338	0.779667	-1.63159E-001	2.55209E-004	0.00000E+000	-1.62000E-001	-8.79272E-004	10	..........a	-327.74
	2345	0.782	-1.56059E-001	2.50948E-004	0.00000E+000	-1.55000E-001	-7.29272E-004	10	..........a	-327.74
	2352	0.784333	-1.49134E-001	2.46937E-004	0.00000E+000	-1.48000E-001	-8.29272E-004	10	..........a	-327.74
	2359	0.786667	-1.42134E-001	2.42175E-004	0.00000E+000	-1.41000E-001	-8.79272E-004	10	..........a	-327.74
	2366	0.789	-1.35084E-001	2.39668E-004	0.00000E+000	-1.34000E-001	-8.29272E-004	10	..........a	-327.74
	2373	0.791333	-1.28209E-001	2.39167E-004	0.00000E+000	-1.27000E-001	-9.29272E-004	10	..........a	-327.74
	2380	0.793667	-1.21184E-001	2.33904E-004	0.00000E+000	-1.20000E-001	-8.29272E-004	10	..........a	-327.74
	2387	0.796	-1.14109E-001	2.31146E-004	0.00000E+000	-1.13000E-001	-7.79272E-004	10	..........a	-327.74
	2394	0.798333	-1.07159E-001	2.25632E-004	0.00000E+000	-1.06000E-001	-8.29272E-004	10	..........a	-327.74
	2401	0.800667	-1.00109E-001	2.23878E-004	0.00000E+000	-9.90000E-002	-9.79272E-004	10	..........a	-327.74
	2408	0.803	-9.31340E-002	2.20118E-004	0.00000E+000	-9.20000E-002	-7.79272E-004	10	..........a	-327.74
	2415	0.805333	-8.61590E-002	2.19366E-004	0.00000E+000	-8.50000E-002	-8.29272E-004	10	..........a	-327.74
	2422	0.807667	-7.92090E-002	2.14102E-004	0.00000E+000	-7.80000E-002	-7.79272E-004	10	..........a	-327.74
	2429	0.81	-7.21340E-002	2.12598E-004	0.00000E+000	-7.10000E-002	-7.79272E-004	10	..........a	-327.74
	2436	0.812333	-6.51840E-002	2.10343E-004	0.00000E+000	-6.40000E-002	-8.79272E-004	10	..........a	-327.74
	2443	0.814667	-5.82340E-002	2.08337E-004	0.00000E+000	-5.70000E-002	-9.29272E-004	10	..........a	-327.74
	2450	0.817	-5.12090E-002	2.07084E-004	0.00000E+000	-5.00000E-002	-8.79272E-004	10	..........a	-327.74
	2457	0.819333	-4.41840E-002	2.03074E-004	0.00000E+000	-4.30000E-002	-8.79272E-004	10	..........a	-327.74
	2464	0.821667	-3.70840E-002	2.02823E-004	0.00000E+000	-3.60000E-002	-7.29272E-004	10	..........a	-327.74
	2471	0.824	-3.01340E-002	1.99565E-004	0.00000E+000	-2.90000E-002	-8.29272E-004	10	..........a	-327.74
	2478	0.826333	-2.31590E-002	1.99063E-004	0.00000E+000	-2.20000E-002	-8.29272E-004	10	..........a	-327.74
	2485	0.828667	-1.62090E-002	1.98311E-004	0.00000E+000	-1.50000E-002	-9.29272E-004	10	..........a	-327.74
	2492	0.831	-9.18400E-003	1.95805E-004	0.00000E+000	-8.00000E-003	-8.29272E-004	10	..........a	-327.74
	2499	0.833333	-2.13400E-003	1.97058E-004	0.00000E+000	-1.00000E-003	-8.29272E-004	10	..........a	-327.74
	2506	0.835667	4.81600E-003	1.94802E-004	0.00000E+000	5.99998E-003	-8.79272E-004	10	..........a	-327.74
	2513	0.838	1.17910E-002	1.90792E-004	0.00000E+000	1.30000E-002	-8.29272E-004	10	..........a	-327.74
	2520	0.840333	1.88660E-002	1.91795E-004	0.00000E+000	2.00000E-002	-8.79272E-004	10	..........a	-327.74
	2527	0.842667	2.57660E-002	1.92296E-004	0.00000E+000	2.70000E-002	-7.79272E-004	10	..........a	-327.74
	2534	0.845	3.28910E-002	1.92045E-004	0.00000E+000	3.40000E-002	-8.79272E-004	10	..........a	-327.74
	2541	0.847333	3.98160E-002	1.90541E-004	0.00000E+000	4.10000E-002	-7.79272E-004	10	..........a	-327.74
	2548	0.849667	4.68910E-002	1.87032E-004	0.00000E+000	4.80000E-002	-9.79272E-004	10	..........a	-327.74
	2555	0.852	5.38660E-002	1.88536E-004	0.00000E+000	5.50000E-002	-7.79272E-004	10	..........a	-327.74
	2562	0.854333	6.07910E-002	1.87032E-004	0.00000E+000	6.20000E-002	-8.29272E-004	10	..........a	-327.74
	2569	0.856667	6.77910E-002	1.89037E-004	0.00000E+000	6.90000E-002	-6.79272E-004	10	..........a	-327.74
	2576	0.859	7.47910E-002	1.87534E-004	0.00000E+000	7.60000E-002	-8.29272E-004	10	..........a	-327.74
	2583	0.861333	8.17910E-002	1.87784E-004	0.00000E+000	8.30000E-002	-5.79272E-004	10	..........a	-327.74
	2590	0.863667	8.88410E-002	1.87283E-004	0.00000E+000	9.00000E-002	-8.29272E-004	10	..........a	-327.74
	2597	0.866	9.57160E-002	1.87032E-004	0.00000E+000	9.70000E-002	-8.29272E-004	10	..........a	-327.74
	2604	0.868333	1.02766E-001	1.89789E-004	0.00000E+000	1.04000E-001	-9.29272E-004	10	..........a	-327.74
	2611	0.870667	1.09791E-001	1.90792E-004	0.00000E+000	1.11000E-001	-8.29272E-004	10	..........a	-327.74
	2618	0.873	1.16641E-001	1.88536E-004	0.00000E+000	1.18000E-001	-8.79272E-004	10	..........a	-327.74
	2625	0.875333	1.23741E-001	1.90792E-004	0.00000E+000	1.25000E-001	-8.29272E-004	10	..........a	-327.74
	2632	0.877667	1.30841E-001	1.89037E-004	0.00000E+000	1.32000E-001	-8.29272E-004	10	..........a	-327.74
	2639	0.88	1.37791E-001	1.91043E-004	0.00000E+000	1.39000E-001	-7.79272E-004	10	..........a	-327.74
	2646	0.882333	1.44841E-001	1.90792E-004	0.00000E+000	1.46000E-001	-8.29272E-004	10	..........a	-327.74
	2653	0.884667	1.51666E-001	1.90040E-004	0.00000E+000	1.53000E-001	-8.29272E-004	10	..........a	-327.74
	2660	0.887	1.58791E-001	1.92797E-004	0.00000E+000	1.60000E-001	-7.79272E-004	10	..........a	-327.74
	2667	0.889333	1.65791E-001	1.92547E-004	0.00000E+000	1.67000E-001	-8.29272E-004	10	..........a	-327.74
	2674	0.891667	1.72841E-001	1.91293E-004	0.00000E+000	1.74000E-001	-8.29272E-004	10	..........a	-327.74
	2681	0.894	1.79741E-001	1.92045E-004	0.00000E+000	1.81000E-001	-8.29272E-004	10	..........a	-327.74
	2688	0.896333	1.86741E-001	1.91544E-004	0.00000E+000	1.88000E-001	-9.29272E-004	10	..........a	-327.74
	2695	0.898667	1.93666E-001	1.89789E-004	0.00000E+000	1.95000E-001	-6.79272E-004	10	..........a	-327.74
	2702	0.901	2.00716E-001	1.90291E-004	0.00000E+000	2.02000E-001	-7.79272E-004	10	..........a	-327.74
	2709	0.903333	2.07816E-001	1.91544E-004	0.00000E+000	2.09000E-001	-8.29272E-004	10	..........a	-327.74
	2716	0.905667	2.14716E-001	1.90040E-004	0.00000E+000	2.16000E-001	-8.29272E-004	10	..........a	-327.74
	2723	0.908	2.21741E-001	1.91795E-004	0.00000E+000	2.23000E-001	-8.79272E-004	10	..........a	-327.74
	2730	0.910333	2.28716E-001	1.89037E-004	0.00000E+000	2.30000E-001	-8.29272E-004	10	..........a	-327.74
	2737	0.912667	2.35741E-001	1.89539E-004	0.00000E+000	2.37000E-001	-7.79272E-004	10	..........a	-327.74
	2744	0.915	2.42766E-001	1.84776E-004	0.00000E+000	2.44000E-001	-8.79272E-004	10	..........a	-327.74
	2751	0.917333	2.49666E-001	1.85779E-004	0.00000E+000	2.51000E-001	-8.29272E-004	10	..........a	-327.74
	2758	0.919667	2.56641E-001	1.82019E-004	0.00000E+000	2.58000E-001	-8.29272E-004	10	..........a	-327.74
	2765	0.922	2.63716E-001	1.81017E-004	0.00000E+000	2.65000E-001	-8.29272E-004	10	..........a	-327.74
	2772	0.924333	2.70616E-001	1.76756E-004	0.00000E+000	2.72000E-001	-8.29272E-004	10	..........a	-327.74
	2779	0.926667	2.77841E-001	1.76505E-004	0.00000E+000	2.79000E-001	-8.29272E-004	10	..........a	-327.74
	2786	0.929	2.84716E-001	1.73999E-004	0.00000E+000	2.86000E-001	-7.29272E-004	10	..........a	-327.74
	2793	0.931333	2.91716E-001	1.73247E-004	0.00000E+000	2.93000E-001	-8.29272E-004	10	..........a	-327.74
	2800	0.933667	2.98716E-001	1.70239E-004	0.00000E+000	3.00000E-001	-7.29272E-004	10	..........a	-327.74
	2807	0.936	3.05691E-001	1.69487E-004	0.00000E+000	3.07000E-001	-7.79272E-004	10	..........a	-327.74
	2814	0.938333	3.12691E-001	1.68986E-004	0.00000E+000	3.14000E-001	-8.29272E-004	10	..........a	-327.74
	2821	0.940667	3.19716E-001	1.67231E-004	0.00000E+000	3.21000E-001	-7.29272E-004	10	..........a	-327.74
	2828	0.943	3.26666E-001	1.64975E-004	0.00000E+000	3.28000E-001	-8.79272E-004	10	..........a	-327.74
	2835	0.945333	3.33816E-001	1.61967E-004	0.00000E+000	3.35000E-001	-7.29272E-004	10	..........a	-327.74
	2842	0.947667	3.40616E-001	1.61967E-004	0.00000E+000	3.42000E-001	-7.29272E-004	10	..........a	-327.74
	2849	0.95	3.47666E-001	1.59712E-004	0.00000E+000	3.49000E-001	-8.29272E-004	10	..........a	-327.74
	2856	0.95233	3.54716E-001	1.58208E-004	0.00000E+000	3.56000E-001	-7.29272E-004	10	..........a	-327.74
	2863	0.95467	3.61566E-001	1.56453E-004	0.00000E+000	3.63000E-001	-9.29272E-004	10	..........a	-327.74
	2870	0.957	3.68691E-001	1.53195E-004	0.00000E+000	3.70000E-001	-6.79272E-004	10	..........a	-327.74
	2877	0.95933	3.75641E-001	1.52693E-004	0.00000E+000	3.77000E-001	-9.29272E-004	10	..........a	-327.74
	2884	0.96167	3.82766E-001	1.55451E-004	0.00000E+000	3.84000E-001	-8.79272E-004	10	..........a	-327.74
	2891	0.964	3.89616E-001	1.52443E-004	0.00000E+000	3.91000E-001	-7.29272E-004	10	..........a	-327.74
	2898	0.96633	3.96591E-001	1.50187E-004	0.00000E+000	3.98000E-001	-9.29272E-004	10	..........a	-327.74
	2905	0.96867	4.03641E-001	1.48683E-004	0.00000E+000	4.05000E-001	-8.29272E-004	10	..........a	-327.74
	2912	0.971	4.10691E-001	1.45926E-004	0.00000E+000	4.12000E-001	-8.79272E-004	10	..........a	-327.74
	2919	0.97333	4.17641E-001	1.47931E-004	0.00000E+000	4.19000E-001	-8.29272E-004	10	..........a	-327.74
	2926	0.97567	4.24616E-001	1.44673E-004	0.00000E+000	4.26000E-001	-8.29272E-004	10	..........a	-327.74
	2933	0.978	4.31591E-001	1.44422E-004	0.00000E+000	4.33000E-001	-8.29272E-004	10	..........a	-327.74
	2940	0.98033	4.38616E-001	1.42918E-004	0.00000E+000	4.40000E-001	-8.29272E-004	10	..........a	-327.74
	2947	0.98267	4.45666E-001	1.42918E-004	0.00000E+000	4.47000E-001	-8.29272E-004	10	..........a	-327.74
	2954	0.985	4.52566E-001	1.43169E-004	0.00000E+000	4.54000E-001	-8.79272E-004	10	..........a	-327.74
	2961	0.98733	4.59591E-001	1.41414E-004	0.00000E+000	4.61000E-001	-8.29272E-004	10	..........a	-327.74
	2968	0.98967	4.66666E-001	1.40662E-004	0.00000E+000	4.68000E-001	-9.29272E-004	10	..........a	-327.74
	2975	0.992	4.73691E-001	1.41164E-004	0.00000E+000	4.75000E-001	-8.29272E-004	10	..........a	-327.74
	2982	0.99433	4.80616E-001	1.38156E-004	0.00000E+000	4.82000E-001	-8.29272E-004	10	..........a	-327.74
	2989	0.99667	4.87691E-001	1.35900E-004	0.00000E+000	4.89000E-001	-7.79272E-004	10	..........a	-327.74
	2996	0.999	4.94641E-001	1.38156E-004	0.00000E+000	4.96000E-001	-9.29272E-004	10	..........a	-327.74
	3000	1.00033	4.98716E-001	1.40662E-004	0.00000E+000	5.00000E-001	-7.79272E-004	10	..........a	-327.74
CURVE2	TABLE
	Pt	T	Vf	Im	Vu	Sig	Ach	IERange	Over	Temp
	#	s	V vs. Ref.	A	V	V	V	#	bits	deg C
	3001	1.00067	4.98666E-001	1.33393E-004	0.00000E+000	5.00000E-001	-8.79272E-004	10	..........a	-327.74