File: data/02-SI/Figures_S9_S11_RDE/15btmapaq-rde/1mkcl-5mmolar15btmapaq-nitrogen-rde1600mvpers-50mvpers.DTA
EXPLAIN
TAG	LSV
TITLE	LABEL	Linear Sweep Voltammetry	Test &Identifier
DATE	LABEL	1/31/2023	Date
TIME	LABEL	18:28:23	Time
NOTES	NOTES	1	&Notes...

PSTAT	PSTAT	REF3000-21108	Potentiostat
VINIT	POTEN	5.00000E-001	F	&Initial E (V)
VFINAL	POTEN	-1.00000E+000	F	&Final E (V)
SCANRATE	QUANT	4.99999E+001	&Scan Rate (mV/s)
STEPSIZE	QUANT	1.00000E-001	St&ep Size (mV)
IMODE	SELECTOR	0	I/E Range &Mode
IRANGE	QUANT	1.00000E+002	&Max Current (mA)
AREA	QUANT	1.00000E+000	Electrode &Area (cm^2)
ELECTRODETYPE	SELECTOR	0	Electrode Type
STRIPPING	TOGGLE	F	Used for Stripping
POLARITY	TOGGLE	F	Signal Polarity
CONDIT	TWOPARAM	F	1.50000E+001	0.00000E+000	Conditionin&g	Time(s)	E(V)
DELAY	TWOPARAM	F	3.00000E+001	0.00000E+000	Init. De&lay	Time(s)	Stab.(mV/s)
EQDELAY	QUANT	0.00000E+000	Equil. &Time (s)
IRCOMP	SELECTOR	0	IRCom&p
PFCOR	QUANT	5.00000E+001	PF Corr. (ohm)
SAMPLINGMODE	SELECTOR	1	Sampling &Mode
EOC	QUANT	0	Open Circuit (V)
PSTATMODEL	IQUANT	5	Pstat Model
PSTATSECTION	LABEL	REF3000-21108	Pstat Section
PSTATSERIALNO	LABEL	21108	Pstat Serial Number
CTRLMODE	IQUANT	1	Control Mode
ELECTROMETER	IQUANT	0	RE=0 or CS=1
IESTAB	IQUANT	2	I/E Stability
CASPEED	IQUANT	4	Control Amp Speed
CONVENTION	IQUANT	1	Current Convention
ICHRANGE	IQUANT	2	Ich Range
ICHRANGEMODE	TOGGLE	F	Ich Auto Range
ICHOFFSETENABLE	TOGGLE	F	Ich Offset Enable
ICHOFFSET	QUANT	0	Ich Offset (V)
ICHFILTER	IQUANT	2	Ich Filter
VCHRANGE	IQUANT	2	Vch Range
VCHRANGEMODE	TOGGLE	T	Vch Auto Range
VCHOFFSETENABLE	TOGGLE	F	Vch Offset Enable
VCHOFFSET	QUANT	0	Vch Offset (V)
VCHFILTER	IQUANT	2	Vch Filter
ACHRANGE	IQUANT	2	Ach Range
ACHOFFSETENABLE	TOGGLE	F	Ach Offset Enable
ACHOFFSET	QUANT	0	Ach Offset (V)
ACHFILTER	IQUANT	0	Ach Filter
IERANGELOWERLIMIT	IQUANT	2	I/E Range Lower Limit
IERANGEMODE	TOGGLE	T	I/E AutoRange
IERANGE	IQUANT	11	I/E Range
POSFEEDENABLE	TOGGLE	F	Positive Feedback IR Comp
POSFEEDRESISTANCE	QUANT	0	Positive Feedback Resistance (ohm)
ACHSELECT	IQUANT	0	Ach Select
SENSECABLEID	IQUANT	14	Sense Cable ID
PWRCABLEID	IQUANT	7	Power Cable ID
DCCALDATE	LABEL	11/9/2022	DC Calibration Date
ACCALDATE	LABEL	11/9/2022	AC Calibration Date
THERMOSELECT	IQUANT	1	Thermo Select
FRAMEWORKVERSION	LABEL	7.8.2	Framework Version
INSTRUMENTVERSION	LABEL	4.40	Instrument Version
COMPLIANCEVOLTAGE	IQUANT	0	Compliance Voltage
CURVE	TABLE	15001
	Pt	T	Vf	Im	Vu	Sig	Ach	IERange	Over	Cycle	Temp
	#	s	V vs. Ref.	A	V	V	V	#	bits	#	deg C
	0	0.002	4.99704E-001	-3.79654E-005	0.00000E+000	5.00000E-001	-8.12605E-004	11	..........a	0	-327.74
	32	0.066	4.95602E-001	7.76425E-006	0.00000E+000	4.96800E-001	-8.37606E-004	8	..........a	0	-327.74
	64	0.13	4.92368E-001	5.16905E-006	0.00000E+000	4.93600E-001	-8.87605E-004	8	..........a	0	-327.74
	96	0.194	4.89168E-001	4.10788E-006	0.00000E+000	4.90400E-001	-8.62605E-004	8	..........a	0	-327.74
	128	0.258	4.86014E-001	3.31961E-006	0.00000E+000	4.87200E-001	-8.54272E-004	8	..........a	0	-327.74
	160	0.322	4.82806E-001	2.72174E-006	0.00000E+000	4.84000E-001	-8.45939E-004	8	..........a	0	-327.74
	192	0.386	4.79602E-001	2.32802E-006	0.00000E+000	4.80800E-001	-8.95939E-004	8	..........a	0	-327.74
	224	0.45	4.76402E-001	2.06638E-006	0.00000E+000	4.77600E-001	-8.29272E-004	8	..........a	0	-327.74
	256	0.514	4.73164E-001	1.75599E-006	0.00000E+000	4.74400E-001	-8.45939E-004	8	..........a	0	-327.74
	288	0.578	4.70010E-001	1.78932E-006	0.00000E+000	4.71200E-001	-8.12605E-004	8	..........a	0	-327.74
	320	0.642	4.66806E-001	1.51684E-006	0.00000E+000	4.68000E-001	-8.62605E-004	8	..........a	0	-327.74
	352	0.706	4.63602E-001	1.45184E-006	0.00000E+000	4.64800E-001	-8.45939E-004	8	..........a	0	-327.74
	384	0.77	4.60410E-001	1.38935E-006	0.00000E+000	4.61600E-001	-8.45939E-004	8	..........a	0	-327.74
	416	0.834	4.57189E-001	1.20603E-006	0.00000E+000	4.58400E-001	-8.79272E-004	8	..........a	0	-327.74
	448	0.898	4.54018E-001	1.22478E-006	0.00000E+000	4.55200E-001	-8.79272E-004	8	..........a	0	-327.74
	480	0.962	4.50827E-001	1.04979E-006	0.00000E+000	4.52000E-001	-8.37606E-004	8	..........a	0	-327.74
	512	1.026	4.47589E-001	8.47725E-007	0.00000E+000	4.48800E-001	-8.79272E-004	8	..........a	0	-327.74
	544	1.09	4.44410E-001	9.88547E-007	0.00000E+000	4.45600E-001	-8.20939E-004	8	..........a	0	-327.74
	576	1.154	4.41218E-001	8.95221E-007	0.00000E+000	4.42400E-001	-8.87605E-004	8	..........a	0	-327.74
	608	1.218	4.37989E-001	7.77314E-007	0.00000E+000	4.39200E-001	-8.79272E-004	8	..........a	0	-327.74
	640	1.282	4.34843E-001	7.32318E-007	0.00000E+000	4.36000E-001	-8.79272E-004	8	..........a	0	-327.74
	672	1.346	4.31639E-001	8.18561E-007	0.00000E+000	4.32800E-001	-8.29272E-004	8	..........a	0	-327.74
	704	1.41	4.28439E-001	7.20235E-007	0.00000E+000	4.29600E-001	-8.29272E-004	8	..........a	0	-327.74
	736	1.474	4.25231E-001	5.29001E-007	0.00000E+000	4.26400E-001	-9.37606E-004	8	..........a	0	-327.74
	768	1.538	4.22060E-001	5.68998E-007	0.00000E+000	4.23200E-001	-8.45939E-004	8	..........a	0	-327.74
	800	1.602	4.18843E-001	4.25676E-007	0.00000E+000	4.20000E-001	-8.20939E-004	8	..........a	0	-327.74
	832	1.666	4.15627E-001	6.10244E-007	0.00000E+000	4.16800E-001	-9.04272E-004	8	..........a	0	-327.74
	864	1.73	4.12427E-001	5.07336E-007	0.00000E+000	4.13600E-001	-8.54272E-004	8	..........a	0	-327.74
	896	1.794	4.09235E-001	4.99003E-007	0.00000E+000	4.10400E-001	-8.70939E-004	8	..........a	0	-327.74
	928	1.858	4.06022E-001	4.97753E-007	0.00000E+000	4.07200E-001	-8.12605E-004	8	..........a	0	-327.74
	960	1.922	4.02856E-001	4.35675E-007	0.00000E+000	4.04000E-001	-8.62605E-004	8	..........a	0	-327.74
	992	1.986	3.99656E-001	3.50265E-007	0.00000E+000	4.00800E-001	-8.79272E-004	8	..........a	0	-327.74
	1024	2.05	3.96406E-001	4.42758E-007	0.00000E+000	3.97600E-001	-8.62605E-004	8	..........a	0	-327.74
	1056	2.114	3.93214E-001	4.08594E-007	0.00000E+000	3.94400E-001	-8.20939E-004	8	..........a	0	-327.74
	1088	2.178	3.90035E-001	3.46099E-007	0.00000E+000	3.91200E-001	-8.70939E-004	8	..........a	0	-327.74
	1120	2.242	3.86852E-001	4.17343E-007	0.00000E+000	3.88000E-001	-8.70939E-004	8	..........a	0	-327.74
	1152	2.306	3.83614E-001	3.29017E-007	0.00000E+000	3.84800E-001	-8.29272E-004	8	..........a	0	-327.74
	1184	2.37	3.80447E-001	4.01511E-007	0.00000E+000	3.81600E-001	-8.79272E-004	8	..........a	0	-327.74
	1216	2.434	3.77235E-001	3.50265E-007	0.00000E+000	3.78400E-001	-8.37606E-004	8	..........a	0	-327.74
	1248	2.498	3.74043E-001	2.50273E-007	0.00000E+000	3.75200E-001	-8.20939E-004	8	..........a	0	-327.74
	1280	2.562	3.70827E-001	1.92361E-007	0.00000E+000	3.72000E-001	-7.87605E-004	8	..........a	0	-327.74
	1312	2.626	3.67627E-001	3.06519E-007	0.00000E+000	3.68800E-001	-8.62605E-004	8	..........a	0	-327.74
	1344	2.69	3.64439E-001	2.45690E-007	0.00000E+000	3.65600E-001	-7.87605E-004	8	..........a	0	-327.74
	1376	2.754	3.61218E-001	2.23192E-007	0.00000E+000	3.62400E-001	-8.04272E-004	8	..........a	0	-327.74
	1408	2.818	3.58056E-001	2.16109E-007	0.00000E+000	3.59200E-001	-8.29272E-004	8	..........a	0	-327.74
	1440	2.882	3.54831E-001	2.15693E-007	0.00000E+000	3.56000E-001	-8.62605E-004	8	..........a	0	-327.74
	1472	2.946	3.51677E-001	2.31941E-007	0.00000E+000	3.52800E-001	-8.95939E-004	8	..........a	0	-327.74
	1504	3.01	3.48447E-001	1.92778E-007	0.00000E+000	3.49600E-001	-7.95939E-004	8	..........a	0	-327.74
	1536	3.074	3.45231E-001	2.10693E-007	0.00000E+000	3.46400E-001	-8.12605E-004	8	..........a	0	-327.74
	1568	3.138	3.42043E-001	1.68613E-007	0.00000E+000	3.43200E-001	-8.95939E-004	8	..........a	0	-327.74
	1600	3.202	3.38831E-001	9.19525E-008	0.00000E+000	3.40000E-001	-8.62605E-004	8	..........a	0	-327.74
	1632	3.266	3.35618E-001	1.64447E-007	0.00000E+000	3.36800E-001	-8.37606E-004	8	..........a	0	-327.74
	1664	3.33	3.32447E-001	8.73696E-008	0.00000E+000	3.33600E-001	-8.20939E-004	8	..........a	0	-327.74
	1696	3.394	3.29260E-001	6.44547E-008	0.00000E+000	3.30400E-001	-8.54272E-004	8	..........a	0	-327.74
	1728	3.458	3.26056E-001	1.50698E-007	0.00000E+000	3.27200E-001	-8.87605E-004	8	..........a	0	-327.74
	1760	3.522	3.22831E-001	1.16117E-007	0.00000E+000	3.24000E-001	-8.54272E-004	8	..........a	0	-327.74
	1792	3.586	3.19639E-001	2.59439E-007	0.00000E+000	3.20800E-001	-8.70939E-004	8	..........a	0	-327.74
	1824	3.65	3.16468E-001	3.86235E-008	0.00000E+000	3.17600E-001	-8.20939E-004	8	..........a	0	-327.74
	1856	3.714	3.13256E-001	9.32024E-008	0.00000E+000	3.14400E-001	-8.70939E-004	8	..........a	0	-327.74
	1888	3.778	3.10052E-001	-1.78994E-009	0.00000E+000	3.11200E-001	-8.20939E-004	8	..........a	0	-327.74
	1920	3.842	3.06885E-001	1.00702E-007	0.00000E+000	3.08000E-001	-8.45939E-004	8	..........a	0	-327.74
	1952	3.906	3.03660E-001	9.02860E-008	0.00000E+000	3.04800E-001	-7.79272E-004	8	..........a	0	-327.74
	1984	3.97	3.00481E-001	2.79303E-009	0.00000E+000	3.01600E-001	-8.37606E-004	8	..........a	0	-327.74
	2016	4.034	2.97239E-001	1.85278E-007	0.00000E+000	2.98400E-001	-8.70939E-004	8	..........a	0	-327.74
	2048	4.098	2.94039E-001	4.40397E-008	0.00000E+000	2.95200E-001	-8.45939E-004	8	..........a	0	-327.74
	2080	4.162	2.90864E-001	8.20926E-009	0.00000E+000	2.92000E-001	-8.29272E-004	8	..........a	0	-327.74
	2112	4.226	2.87652E-001	2.98742E-008	0.00000E+000	2.88800E-001	-8.29272E-004	8	..........a	0	-327.74
	2144	4.29	2.84456E-001	-7.20617E-009	0.00000E+000	2.85600E-001	-8.95939E-004	8	..........a	0	-327.74
	2176	4.354	2.81256E-001	3.32073E-008	0.00000E+000	2.82400E-001	-8.62605E-004	8	..........a	0	-327.74
	2208	4.418	2.78014E-001	4.86227E-008	0.00000E+000	2.79200E-001	-8.20939E-004	8	..........a	0	-327.74
	2240	4.482	2.74864E-001	5.61221E-008	0.00000E+000	2.76000E-001	-8.12605E-004	8	..........a	0	-327.74
	2272	4.546	2.71672E-001	2.73744E-008	0.00000E+000	2.72800E-001	-8.70939E-004	8	..........a	0	-327.74
	2304	4.61	2.68439E-001	2.77910E-008	0.00000E+000	2.69600E-001	-8.54272E-004	8	..........a	0	-327.74
	2336	4.674	2.65277E-001	-4.59531E-008	0.00000E+000	2.66400E-001	-8.45939E-004	8	..........a	0	-327.74
	2368	4.738	2.62056E-001	-2.63713E-008	0.00000E+000	2.63200E-001	-8.29272E-004	8	..........a	0	-327.74
	2400	4.802	2.58860E-001	6.27882E-008	0.00000E+000	2.60000E-001	-8.37606E-004	8	..........a	0	-327.74
	2432	4.866	2.55693E-001	-3.03984E-009	0.00000E+000	2.56800E-001	-8.37606E-004	8	..........a	0	-327.74
	2464	4.93	2.52481E-001	-3.63705E-008	0.00000E+000	2.53600E-001	-8.54272E-004	8	..........a	0	-327.74
	2496	4.994	2.49277E-001	-1.01226E-008	0.00000E+000	2.50400E-001	-8.29272E-004	8	..........a	0	-327.74
	2528	5.058	2.46068E-001	-3.97036E-008	0.00000E+000	2.47200E-001	-8.29272E-004	8	..........a	0	-327.74
	2560	5.122	2.42768E-001	-5.22026E-008	0.00000E+000	2.44000E-001	-8.37606E-004	8	......s...a	0	-327.74
	2592	5.186	2.39573E-001	5.40389E-008	0.00000E+000	2.40800E-001	-8.37606E-004	8	..........a	0	-327.74
	2624	5.25	2.36373E-001	-7.20617E-009	0.00000E+000	2.37600E-001	-8.20939E-004	8	..........a	0	-327.74
	2656	5.314	2.33190E-001	-5.40039E-010	0.00000E+000	2.34400E-001	-8.37606E-004	8	..........a	0	-327.74
	2688	5.378	2.29997E-001	4.65395E-008	0.00000E+000	2.31200E-001	-8.20939E-004	8	..........a	0	-327.74
	2720	5.442	2.26791E-001	-8.92829E-008	0.00000E+000	2.28000E-001	-8.37606E-004	8	..........a	0	-327.74
	2752	5.506	2.23602E-001	-3.42873E-008	0.00000E+000	2.24800E-001	-8.37606E-004	8	..........a	0	-327.74
	2784	5.57	2.20400E-001	-2.80378E-008	0.00000E+000	2.21600E-001	-8.54272E-004	8	..........a	0	-327.74
	2816	5.634	2.17189E-001	1.48754E-008	0.00000E+000	2.18400E-001	-7.95939E-004	8	..........a	0	-327.74
	2848	5.698	2.13997E-001	7.79263E-009	0.00000E+000	2.15200E-001	-7.95939E-004	8	..........a	0	-327.74
	2880	5.762	2.10800E-001	-6.63681E-008	0.00000E+000	2.12000E-001	-8.45939E-004	8	..........a	0	-327.74
	2912	5.826	2.07594E-001	-9.92821E-008	0.00000E+000	2.08800E-001	-8.12605E-004	8	..........a	0	-327.74
	2944	5.89	2.04403E-001	-1.33863E-007	0.00000E+000	2.05600E-001	-8.29272E-004	8	..........a	0	-327.74
	2976	5.954	2.01212E-001	-8.05336E-008	0.00000E+000	2.02400E-001	-8.12605E-004	8	..........a	0	-327.74
	3008	6.018	1.98010E-001	-9.46991E-008	0.00000E+000	1.99200E-001	-8.54272E-004	8	..........a	0	-327.74
	3040	6.082	1.94805E-001	-8.42833E-008	0.00000E+000	1.96000E-001	-7.79272E-004	8	..........a	0	-327.74
	3072	6.146	1.91603E-001	-1.32196E-007	0.00000E+000	1.92800E-001	-8.45939E-004	8	..........a	0	-327.74
	3104	6.21	1.88423E-001	-2.47187E-007	0.00000E+000	1.89600E-001	-8.29272E-004	8	..........a	0	-327.74
	3136	6.274	1.85218E-001	-6.30350E-008	0.00000E+000	1.86400E-001	-8.54272E-004	8	..........a	0	-327.74
	3168	6.338	1.82024E-001	-8.84496E-008	0.00000E+000	1.83200E-001	-8.45939E-004	8	..........a	0	-327.74
	3200	6.402	1.78837E-001	-1.11781E-007	0.00000E+000	1.80000E-001	-8.29272E-004	8	..........a	0	-327.74
	3232	6.466	1.75620E-001	-1.19281E-007	0.00000E+000	1.76800E-001	-8.20939E-004	8	..........a	0	-327.74
	3264	6.53	1.72424E-001	-1.18864E-007	0.00000E+000	1.73600E-001	-8.54272E-004	8	..........a	0	-327.74
	3296	6.594	1.69232E-001	-5.67855E-008	0.00000E+000	1.70400E-001	-8.54272E-004	8	..........a	0	-327.74
	3328	6.658	1.66029E-001	-1.16364E-007	0.00000E+000	1.67200E-001	-8.62605E-004	8	..........a	0	-327.74
	3360	6.722	1.62824E-001	-1.01782E-007	0.00000E+000	1.64000E-001	-9.04272E-004	8	..........a	0	-327.74
	3392	6.786	1.59625E-001	-1.07198E-007	0.00000E+000	1.60800E-001	-8.29272E-004	8	..........a	0	-327.74
	3424	6.85	1.56426E-001	-1.08448E-007	0.00000E+000	1.57600E-001	-7.70939E-004	8	..........a	0	-327.74
	3456	6.914	1.53222E-001	-1.29280E-007	0.00000E+000	1.54400E-001	-8.20939E-004	8	..........a	0	-327.74
	3488	6.978	1.50043E-001	-2.03440E-007	0.00000E+000	1.51200E-001	-8.70939E-004	8	..........a	0	-327.74
	3520	7.042	1.46827E-001	-1.75943E-007	0.00000E+000	1.48000E-001	-8.29272E-004	8	..........a	0	-327.74
	3552	7.106	1.43636E-001	-2.51770E-007	0.00000E+000	1.44800E-001	-8.29272E-004	8	..........a	0	-327.74
	3584	7.17	1.40433E-001	-2.20939E-007	0.00000E+000	1.41600E-001	-8.37606E-004	8	..........a	0	-327.74
	3616	7.234	1.37225E-001	-8.92829E-008	0.00000E+000	1.38400E-001	-8.29272E-004	8	..........a	0	-327.74
	3648	7.298	1.34038E-001	-1.55111E-007	0.00000E+000	1.35200E-001	-8.37606E-004	8	..........a	0	-327.74
	3680	7.362	1.30841E-001	-7.92837E-008	0.00000E+000	1.32000E-001	-8.70939E-004	8	..........a	0	-327.74
	3712	7.426	1.27648E-001	-1.24280E-007	0.00000E+000	1.28800E-001	-8.12605E-004	8	..........a	0	-327.74
	3744	7.49	1.24434E-001	-1.92191E-007	0.00000E+000	1.25600E-001	-8.54272E-004	8	..........a	0	-327.74
	3776	7.554	1.21235E-001	-1.70110E-007	0.00000E+000	1.22400E-001	-8.62605E-004	8	..........a	0	-327.74
	3808	7.618	1.18045E-001	-2.38438E-007	0.00000E+000	1.19200E-001	-8.12605E-004	8	..........a	0	-327.74
	3840	7.682	1.14838E-001	-1.88442E-007	0.00000E+000	1.16000E-001	-8.29272E-004	8	..........a	0	-327.74
	3872	7.746	1.11628E-001	-2.11773E-007	0.00000E+000	1.12800E-001	-8.45939E-004	8	..........a	0	-327.74
	3904	7.81	1.08448E-001	-1.70526E-007	0.00000E+000	1.09600E-001	-8.20939E-004	8	..........a	0	-327.74
	3936	7.874	1.05238E-001	-1.92191E-007	0.00000E+000	1.06400E-001	-8.79272E-004	8	..........a	0	-327.74
	3968	7.938	1.02053E-001	-1.52195E-007	0.00000E+000	1.03200E-001	-8.04272E-004	8	..........a	0	-327.74
	4000	8.002	9.88618E-002	-2.03024E-007	0.00000E+000	1.00000E-001	-8.54272E-004	8	..........a	0	-327.74
	4032	8.066	9.56585E-002	-1.10115E-007	0.00000E+000	9.68000E-002	-8.45939E-004	8	..........a	0	-327.74
	4064	8.13	9.24514E-002	-1.59277E-007	0.00000E+000	9.36000E-002	-8.37606E-004	8	..........a	0	-327.74
	4096	8.194	8.92560E-002	-1.76776E-007	0.00000E+000	9.04000E-002	-8.54272E-004	8	..........a	0	-327.74
	4128	8.258	8.60531E-002	-3.08849E-007	0.00000E+000	8.72000E-002	-7.95939E-004	8	..........a	0	-327.74
	4160	8.322	8.28589E-002	-1.88025E-007	0.00000E+000	8.40000E-002	-8.29272E-004	8	..........a	0	-327.74
	4192	8.386	7.96743E-002	-2.06773E-007	0.00000E+000	8.08000E-002	-8.04272E-004	8	..........a	0	-327.74
	4224	8.45	7.64572E-002	-2.08857E-007	0.00000E+000	7.76000E-002	-8.54272E-004	8	..........a	0	-327.74
	4256	8.514	7.32726E-002	-2.20939E-007	0.00000E+000	7.44000E-002	-8.62605E-004	8	..........a	0	-327.74
	4288	8.578	7.00735E-002	-2.71768E-007	0.00000E+000	7.12000E-002	-8.20939E-004	8	..........a	0	-327.74
	4320	8.642	6.68781E-002	-1.76776E-007	0.00000E+000	6.80000E-002	-8.20939E-004	8	..........a	0	-327.74
	4352	8.706	6.36806E-002	-2.95100E-007	0.00000E+000	6.48000E-002	-7.62605E-004	8	..........a	0	-327.74
	4384	8.77	6.04747E-002	-2.07607E-007	0.00000E+000	6.16000E-002	-8.54272E-004	8	..........a	0	-327.74
	4416	8.834	5.72647E-002	-2.11356E-007	0.00000E+000	5.84000E-002	-8.45939E-004	8	..........a	0	-327.74
	4448	8.898	5.40810E-002	-2.13856E-007	0.00000E+000	5.52000E-002	-8.62605E-004	8	..........a	0	-327.74
	4480	8.962	5.08697E-002	-1.83442E-007	0.00000E+000	5.20000E-002	-8.79272E-004	8	..........a	0	-327.74
	4512	9.026	4.76839E-002	-2.68852E-007	0.00000E+000	4.88000E-002	-8.20939E-004	8	..........a	0	-327.74
	4544	9.09	4.44643E-002	-2.57186E-007	0.00000E+000	4.56000E-002	-8.12605E-004	8	..........a	0	-327.74
	4576	9.154	4.12843E-002	-3.58428E-007	0.00000E+000	4.24000E-002	-8.04272E-004	8	..........a	0	-327.74
	4608	9.218	3.80772E-002	-3.62178E-007	0.00000E+000	3.92000E-002	-8.45939E-004	8	..........a	0	-327.74
	4640	9.282	3.48818E-002	-2.56769E-007	0.00000E+000	3.60000E-002	-8.12605E-004	8	..........a	0	-327.74
	4672	9.346	3.16801E-002	-2.47187E-007	0.00000E+000	3.28000E-002	-8.45939E-004	8	..........a	0	-327.74
	4704	9.41	2.84814E-002	-2.78434E-007	0.00000E+000	2.96000E-002	-8.54272E-004	8	..........a	0	-327.74
	4736	9.474	2.53022E-002	-2.74268E-007	0.00000E+000	2.64000E-002	-7.87605E-004	8	..........a	0	-327.74
	4768	9.538	2.20816E-002	-2.42604E-007	0.00000E+000	2.32000E-002	-7.87605E-004	8	..........a	0	-327.74
	4800	9.602	1.88844E-002	-2.65935E-007	0.00000E+000	2.00000E-002	-8.54272E-004	8	..........a	0	-327.74
	4832	9.666	1.56769E-002	-2.61352E-007	0.00000E+000	1.68000E-002	-8.79272E-004	8	..........a	0	-327.74
	4864	9.73	1.24790E-002	-3.82176E-007	0.00000E+000	1.36000E-002	-7.79272E-004	8	..........a	0	-327.74
	4896	9.794	9.28452E-003	-2.55936E-007	0.00000E+000	1.04000E-002	-8.29272E-004	8	..........a	0	-327.74
	4928	9.858	6.08131E-003	-2.93850E-007	0.00000E+000	7.20000E-003	-8.20939E-004	8	..........a	0	-327.74
	4960	9.922	2.90268E-003	-2.39687E-007	0.00000E+000	4.00001E-003	-8.54272E-004	8	..........a	0	-327.74
	4992	9.986	-3.00109E-004	-3.04266E-007	0.00000E+000	7.99984E-004	-8.12605E-004	8	..........a	0	-327.74
	5024	10.05	-3.49411E-003	-1.87608E-007	0.00000E+000	-2.40001E-003	-8.29272E-004	8	..........a	0	-327.74
	5056	10.114	-6.68594E-003	-3.44262E-007	0.00000E+000	-5.60001E-003	-8.04272E-004	8	..........a	0	-327.74
	5088	10.178	-9.90961E-003	-1.80942E-007	0.00000E+000	-8.80000E-003	-8.29272E-004	8	..........a	0	-327.74
	5120	10.242	-1.31039E-002	-2.99266E-007	0.00000E+000	-1.20000E-002	-8.04272E-004	8	..........a	0	-327.74
	5152	10.306	-1.62987E-002	-3.10098E-007	0.00000E+000	-1.52000E-002	-8.54272E-004	8	..........a	0	-327.74
	5184	10.37	-1.94894E-002	-2.02607E-007	0.00000E+000	-1.84000E-002	-8.45939E-004	8	..........a	0	-327.74
	5216	10.434	-2.27030E-002	-2.79268E-007	0.00000E+000	-2.16000E-002	-8.12605E-004	8	..........a	0	-327.74
	5248	10.498	-2.58938E-002	-2.88434E-007	0.00000E+000	-2.48000E-002	-8.45939E-004	8	..........a	0	-327.74
	5280	10.562	-2.90824E-002	-2.13856E-007	0.00000E+000	-2.80000E-002	-7.79272E-004	8	..........a	0	-327.74
	5312	10.626	-3.22865E-002	-4.37172E-007	0.00000E+000	-3.12000E-002	-8.45939E-004	8	..........a	0	-327.74
	5344	10.69	-3.54894E-002	-3.86342E-007	0.00000E+000	-3.44000E-002	-8.37606E-004	8	..........a	0	-327.74
	5376	10.754	-3.86903E-002	-3.56345E-007	0.00000E+000	-3.76000E-002	-8.54272E-004	8	..........a	0	-327.74
	5408	10.818	-4.18861E-002	-4.21756E-007	0.00000E+000	-4.08000E-002	-8.12605E-004	8	..........a	0	-327.74
	5440	10.882	-4.50857E-002	-3.83426E-007	0.00000E+000	-4.40000E-002	-8.12605E-004	8	..........a	0	-327.74
	5472	10.946	-4.82857E-002	-4.34255E-007	0.00000E+000	-4.72000E-002	-8.62605E-004	8	..........a	0	-327.74
	5504	11.01	-5.14807E-002	-4.67169E-007	0.00000E+000	-5.04000E-002	-8.45939E-004	8	..........a	0	-327.74
	5536	11.074	-5.46849E-002	-3.72594E-007	0.00000E+000	-5.36000E-002	-7.95939E-004	8	..........a	0	-327.74
	5568	11.138	-5.78694E-002	-4.03841E-007	0.00000E+000	-5.68000E-002	-8.54272E-004	8	..........a	0	-327.74
	5600	11.202	-6.10724E-002	-4.48004E-007	0.00000E+000	-6.00000E-002	-8.62605E-004	8	..........a	0	-327.74
	5632	11.266	-6.42690E-002	-3.53845E-007	0.00000E+000	-6.32000E-002	-8.79272E-004	8	..........a	0	-327.74
	5664	11.33	-6.74786E-002	-5.36330E-007	0.00000E+000	-6.64000E-002	-8.54272E-004	8	..........a	0	-327.74
	5696	11.394	-7.06744E-002	-4.29256E-007	0.00000E+000	-6.96000E-002	-8.70939E-004	8	..........a	0	-327.74
	5728	11.458	-7.38611E-002	-4.26756E-007	0.00000E+000	-7.28000E-002	-8.79272E-004	8	..........a	0	-327.74
	5760	11.522	-7.70694E-002	-4.60503E-007	0.00000E+000	-7.60000E-002	-8.29272E-004	8	..........a	0	-327.74
	5792	11.586	-8.02724E-002	-5.18832E-007	0.00000E+000	-7.92000E-002	-7.95939E-004	8	..........a	0	-327.74
	5824	11.65	-8.34649E-002	-5.95492E-007	0.00000E+000	-8.24000E-002	-8.04272E-004	8	..........a	0	-327.74
	5856	11.714	-8.66449E-002	-5.22998E-007	0.00000E+000	-8.56000E-002	-8.12605E-004	8	..........a	0	-327.74
	5888	11.778	-8.98619E-002	-5.65911E-007	0.00000E+000	-8.88000E-002	-8.37606E-004	8	..........a	0	-327.74
	5920	11.842	-9.30574E-002	-6.62987E-007	0.00000E+000	-9.20000E-002	-8.37606E-004	8	..........a	0	-327.74
	5952	11.906	-9.62699E-002	-6.94234E-007	0.00000E+000	-9.52000E-002	-8.45939E-004	8	..........a	0	-327.74
	5984	11.97	-9.94478E-002	-7.39647E-007	0.00000E+000	-9.84000E-002	-8.62605E-004	8	..........a	0	-327.74
	6016	12.034	-1.02654E-001	-6.24657E-007	0.00000E+000	-1.01600E-001	-8.45939E-004	8	..........a	0	-327.74
	6048	12.098	-1.05844E-001	-7.33398E-007	0.00000E+000	-1.04800E-001	-8.79272E-004	8	..........a	0	-327.74
	6080	12.162	-1.09036E-001	-7.93810E-007	0.00000E+000	-1.08000E-001	-8.29272E-004	8	..........a	0	-327.74
	6112	12.226	-1.12253E-001	-8.54222E-007	0.00000E+000	-1.11200E-001	-7.87605E-004	8	..........a	0	-327.74
	6144	12.29	-1.15436E-001	-8.56305E-007	0.00000E+000	-1.14400E-001	-8.37606E-004	8	..........a	0	-327.74
	6176	12.354	-1.18637E-001	-8.46305E-007	0.00000E+000	-1.17600E-001	-8.29272E-004	8	..........a	0	-327.74
	6208	12.418	-1.21845E-001	-8.59221E-007	0.00000E+000	-1.20800E-001	-8.54272E-004	8	..........a	0	-327.74
	6240	12.482	-1.25036E-001	-9.98377E-007	0.00000E+000	-1.24000E-001	-8.29272E-004	8	..........a	0	-327.74
	6272	12.546	-1.28238E-001	-1.07462E-006	0.00000E+000	-1.27200E-001	-8.12605E-004	8	..........a	0	-327.74
	6304	12.61	-1.31421E-001	-1.04129E-006	0.00000E+000	-1.30400E-001	-8.20939E-004	8	..........a	0	-327.74
	6336	12.674	-1.34643E-001	-1.14128E-006	0.00000E+000	-1.33600E-001	-8.79272E-004	8	..........a	0	-327.74
	6368	12.738	-1.37834E-001	-1.21544E-006	0.00000E+000	-1.36800E-001	-8.54272E-004	8	..........a	0	-327.74
	6400	12.802	-1.41024E-001	-1.32085E-006	0.00000E+000	-1.40000E-001	-8.37606E-004	8	..........a	0	-327.74
	6432	12.866	-1.44247E-001	-1.44334E-006	0.00000E+000	-1.43200E-001	-8.70939E-004	8	..........a	0	-327.74
	6464	12.93	-1.47439E-001	-1.46376E-006	0.00000E+000	-1.46400E-001	-8.45939E-004	8	..........a	0	-327.74
	6496	12.994	-1.50620E-001	-1.52708E-006	0.00000E+000	-1.49600E-001	-8.29272E-004	8	..........a	0	-327.74
	6528	13.058	-1.53821E-001	-1.69165E-006	0.00000E+000	-1.52800E-001	-8.04272E-004	8	..........a	0	-327.74
	6560	13.122	-1.57019E-001	-1.78956E-006	0.00000E+000	-1.56000E-001	-8.20939E-004	8	..........a	0	-327.74
	6592	13.186	-1.60227E-001	-1.97455E-006	0.00000E+000	-1.59200E-001	-8.12605E-004	8	..........a	0	-327.74
	6624	13.25	-1.63444E-001	-2.06829E-006	0.00000E+000	-1.62400E-001	-8.37606E-004	8	..........a	0	-327.74
	6656	13.314	-1.66623E-001	-2.15328E-006	0.00000E+000	-1.65600E-001	-8.29272E-004	8	..........a	0	-327.74
	6688	13.378	-1.69823E-001	-2.42493E-006	0.00000E+000	-1.68800E-001	-8.20939E-004	8	..........a	0	-327.74
	6720	13.442	-1.73024E-001	-2.48784E-006	0.00000E+000	-1.72000E-001	-8.12605E-004	8	..........a	0	-327.74
	6752	13.506	-1.76234E-001	-2.68532E-006	0.00000E+000	-1.75200E-001	-8.20939E-004	8	..........a	0	-327.74
	6784	13.57	-1.79402E-001	-2.85323E-006	0.00000E+000	-1.78400E-001	-8.54272E-004	8	..........a	0	-327.74
	6816	13.634	-1.82599E-001	-2.89947E-006	0.00000E+000	-1.81600E-001	-8.29272E-004	8	..........a	0	-327.74
	6848	13.698	-1.85822E-001	-3.25361E-006	0.00000E+000	-1.84800E-001	-8.62605E-004	8	..........a	0	-327.74
	6880	13.762	-1.89002E-001	-3.44443E-006	0.00000E+000	-1.88000E-001	-8.12605E-004	8	..........a	0	-327.74
	6912	13.826	-1.92211E-001	-3.78524E-006	0.00000E+000	-1.91200E-001	-8.20939E-004	8	..........a	0	-327.74
	6944	13.89	-1.95419E-001	-3.96605E-006	0.00000E+000	-1.94400E-001	-8.45939E-004	8	..........a	0	-327.74
	6976	13.954	-1.98618E-001	-4.32769E-006	0.00000E+000	-1.97600E-001	-8.12605E-004	8	..........a	0	-327.74
	7008	14.018	-2.01810E-001	-4.59975E-006	0.00000E+000	-2.00800E-001	-8.45939E-004	8	..........a	0	-327.74
	7040	14.082	-2.04995E-001	-4.78682E-006	0.00000E+000	-2.04000E-001	-7.62605E-004	8	..........a	0	-327.74
	7072	14.146	-2.08192E-001	-5.13388E-006	0.00000E+000	-2.07200E-001	-8.04272E-004	8	..........a	0	-327.74
	7104	14.21	-2.11404E-001	-5.47218E-006	0.00000E+000	-2.10400E-001	-8.45939E-004	8	..........a	0	-327.74
	7136	14.274	-2.14605E-001	-5.86090E-006	0.00000E+000	-2.13600E-001	-8.20939E-004	8	..........a	0	-327.74
	7168	14.338	-2.17781E-001	-6.31295E-006	0.00000E+000	-2.16800E-001	-7.87605E-004	8	..........a	0	-327.74
	7200	14.402	-2.21005E-001	-6.67917E-006	0.00000E+000	-2.20000E-001	-8.12605E-004	8	..........a	0	-327.74
	7232	14.466	-2.24199E-001	-7.10622E-006	0.00000E+000	-2.23200E-001	-8.62605E-004	8	..........a	0	-327.74
	7264	14.53	-2.27391E-001	-7.61951E-006	0.00000E+000	-2.26400E-001	-8.62605E-004	8	..........a	0	-327.74
	7296	14.594	-2.30587E-001	-7.97907E-006	0.00000E+000	-2.29600E-001	-8.20939E-004	8	..........a	0	-327.74
	7328	14.658	-2.33793E-001	-8.53485E-006	0.00000E+000	-2.32800E-001	-8.12605E-004	8	..........a	0	-327.74
	7360	14.722	-2.36990E-001	-9.01232E-006	0.00000E+000	-2.36000E-001	-8.29272E-004	8	..........a	0	-327.74
	7392	14.786	-2.40186E-001	-9.52852E-006	0.00000E+000	-2.39200E-001	-8.37606E-004	8	..........a	0	-327.74
	7424	14.85	-2.43365E-001	-9.99640E-006	0.00000E+000	-2.42400E-001	-8.12605E-004	8	..........a	0	-327.74
	7456	14.914	-2.46570E-001	-1.05389E-005	0.00000E+000	-2.45600E-001	-8.12605E-004	8	..........a	0	-327.74
	7488	14.978	-2.49779E-001	-1.10617E-005	0.00000E+000	-2.48800E-001	-8.45939E-004	8	..........a	0	-327.74
	7520	15.042	-2.52969E-001	-1.16113E-005	0.00000E+000	-2.52000E-001	-8.12605E-004	8	..........a	0	-327.74
	7552	15.106	-2.56189E-001	-1.22508E-005	0.00000E+000	-2.55200E-001	-8.29272E-004	8	..........a	0	-327.74
	7584	15.17	-2.59376E-001	-1.28012E-005	0.00000E+000	-2.58400E-001	-8.20939E-004	8	..........a	0	-327.74
	7616	15.234	-2.62563E-001	-1.32320E-005	0.00000E+000	-2.61600E-001	-8.45939E-004	8	..........a	0	-327.74
	7648	15.298	-2.65773E-001	-1.38532E-005	0.00000E+000	-2.64800E-001	-8.12605E-004	8	..........a	0	-327.74
	7680	15.362	-2.68853E-001	-1.44940E-005	0.00000E+000	-2.68000E-001	-7.95939E-004	8	..........a	0	-327.74
	7712	15.426	-2.72082E-001	-1.50248E-005	0.00000E+000	-2.71200E-001	-8.62605E-004	8	..........a	0	-327.74
	7744	15.49	-2.75298E-001	-1.55460E-005	0.00000E+000	-2.74400E-001	-8.37606E-004	8	..........a	0	-327.74
	7776	15.554	-2.78511E-001	-1.62130E-005	0.00000E+000	-2.77600E-001	-8.54272E-004	8	..........a	0	-327.74
	7808	15.618	-2.81698E-001	-1.66846E-005	0.00000E+000	-2.80800E-001	-8.45939E-004	8	..........a	0	-327.74
	7840	15.682	-2.84907E-001	-1.72642E-005	0.00000E+000	-2.84000E-001	-8.12605E-004	8	..........a	0	-327.74
	7872	15.746	-2.88098E-001	-1.78837E-005	0.00000E+000	-2.87200E-001	-8.37606E-004	8	..........a	0	-327.74
	7904	15.81	-2.91323E-001	-1.83649E-005	0.00000E+000	-2.90400E-001	-8.20939E-004	8	..........a	0	-327.74
	7936	15.874	-2.94490E-001	-1.89332E-005	0.00000E+000	-2.93600E-001	-8.62605E-004	8	..........a	0	-327.74
	7968	15.938	-2.97732E-001	-1.94906E-005	0.00000E+000	-2.96800E-001	-7.70939E-004	8	..........a	0	-327.74
	8000	16.002	-3.00923E-001	-2.00077E-005	0.00000E+000	-3.00000E-001	-8.20939E-004	8	..........a	0	-327.74
	8032	16.066	-3.04073E-001	-2.04352E-005	0.00000E+000	-3.03200E-001	-8.62605E-004	8	..........a	0	-327.74
	8064	16.13	-3.07236E-001	-2.09868E-005	0.00000E+000	-3.06400E-001	-8.29272E-004	8	..........a	0	-327.74
	8096	16.194	-3.10453E-001	-2.14801E-005	0.00000E+000	-3.09600E-001	-8.12605E-004	8	..........a	0	-327.74
	8128	16.258	-3.13665E-001	-2.20804E-005	0.00000E+000	-3.12800E-001	-8.54272E-004	8	..........a	0	-327.74
	8160	16.322	-3.16882E-001	-2.26029E-005	0.00000E+000	-3.16000E-001	-8.70939E-004	8	..........a	0	-327.74
	8192	16.386	-3.20044E-001	-2.30466E-005	0.00000E+000	-3.19200E-001	-8.37606E-004	8	..........a	0	-327.74
	8224	16.45	-3.23269E-001	-2.36628E-005	0.00000E+000	-3.22400E-001	-8.37606E-004	8	..........a	0	-327.74
	8256	16.514	-3.26486E-001	-2.39932E-005	0.00000E+000	-3.25600E-001	-8.37606E-004	8	..........a	0	-327.74
	8288	16.578	-3.29715E-001	-2.45332E-005	0.00000E+000	-3.28800E-001	-8.29272E-004	8	..........a	0	-327.74
	8320	16.642	-3.32811E-001	-2.50198E-005	0.00000E+000	-3.32000E-001	-8.29272E-004	8	..........a	0	-327.74
	8352	16.706	-3.36044E-001	-2.55302E-005	0.00000E+000	-3.35200E-001	-8.95939E-004	8	..........a	0	-327.74
	8384	16.77	-3.39323E-001	-2.60576E-005	0.00000E+000	-3.38400E-001	-8.12605E-004	8	..........a	0	-327.74
	8416	16.834	-3.42544E-001	-2.63743E-005	0.00000E+000	-3.41600E-001	-7.70939E-004	8	..........a	0	-327.74
	8448	16.898	-3.45648E-001	-2.69255E-005	0.00000E+000	-3.44800E-001	-8.12605E-004	8	..........a	0	-327.74
	8480	16.962	-3.48844E-001	-2.75333E-005	0.00000E+000	-3.48000E-001	-8.20939E-004	8	..........a	0	-327.74
	8512	17.026	-3.52007E-001	-2.79912E-005	0.00000E+000	-3.51200E-001	-8.20939E-004	8	..........a	0	-327.74
	8544	17.09	-3.55265E-001	-2.84778E-005	0.00000E+000	-3.54400E-001	-8.20939E-004	8	..........a	0	-327.74
	8576	17.154	-3.58457E-001	-2.89953E-005	0.00000E+000	-3.57600E-001	-8.87605E-004	8	..........a	0	-327.74
	8608	17.218	-3.61611E-001	-2.93215E-005	0.00000E+000	-3.60800E-001	-8.62605E-004	8	..........a	0	-327.74
	8640	17.282	-3.64865E-001	-2.99456E-005	0.00000E+000	-3.64000E-001	-8.04272E-004	8	..........a	0	-327.74
	8672	17.346	-3.68078E-001	-3.06272E-005	0.00000E+000	-3.67200E-001	-8.12605E-004	8	..........a	0	-327.74
	8704	17.41	-3.71240E-001	-3.10239E-005	0.00000E+000	-3.70400E-001	-7.54272E-004	8	..........a	0	-327.74
	8736	17.474	-3.74423E-001	-3.17542E-005	0.00000E+000	-3.73600E-001	-8.12605E-004	8	..........a	0	-327.74
	8768	17.538	-3.77636E-001	-3.24367E-005	0.00000E+000	-3.76800E-001	-8.37606E-004	8	..........a	0	-327.74
	8800	17.602	-3.80819E-001	-3.29700E-005	0.00000E+000	-3.80000E-001	-8.29272E-004	8	..........a	0	-327.74
	8832	17.666	-3.84019E-001	-3.38749E-005	0.00000E+000	-3.83200E-001	-8.20939E-004	8	..........a	0	-327.74
	8864	17.73	-3.87240E-001	-3.46703E-005	0.00000E+000	-3.86400E-001	-8.12605E-004	8	..........a	0	-327.74
	8896	17.794	-3.90432E-001	-3.59343E-005	0.00000E+000	-3.89600E-001	-8.12605E-004	8	..........a	0	-327.74
	8928	17.858	-3.93690E-001	-3.68359E-005	0.00000E+000	-3.92800E-001	-7.95939E-004	8	..........a	0	-327.74
	8960	17.922	-3.96823E-001	-3.79537E-005	0.00000E+000	-3.96000E-001	-8.29272E-004	8	..........a	0	-327.74
	8992	17.986	-4.00028E-001	-3.90328E-005	0.00000E+000	-3.99200E-001	-8.29272E-004	8	..........a	0	-327.74
	9024	18.05	-4.03244E-001	-4.04427E-005	0.00000E+000	-4.02400E-001	-8.54272E-004	8	..........a	0	-327.74
	9056	18.114	-4.06478E-001	-4.20013E-005	0.00000E+000	-4.05600E-001	-7.87605E-004	8	..........a	0	-327.74
	9088	18.178	-4.09623E-001	-4.35816E-005	0.00000E+000	-4.08800E-001	-8.20939E-004	8	..........a	0	-327.74
	9120	18.242	-4.12819E-001	-4.56527E-005	0.00000E+000	-4.12000E-001	-8.45939E-004	8	..........a	0	-327.74
	9152	18.306	-4.16003E-001	-4.73288E-005	0.00000E+000	-4.15200E-001	-7.95939E-004	8	..........a	0	-327.74
	9184	18.37	-4.19223E-001	-4.92666E-005	0.00000E+000	-4.18400E-001	-8.37606E-004	8	..........a	0	-327.74
	9216	18.434	-4.22432E-001	-5.11569E-005	0.00000E+000	-4.21600E-001	-8.54272E-004	8	..........a	0	-327.74
	9248	18.498	-4.25619E-001	-5.35467E-005	0.00000E+000	-4.24800E-001	-8.70939E-004	8	..........a	0	-327.74
	9280	18.562	-4.28794E-001	-5.60890E-005	0.00000E+000	-4.28000E-001	-8.45939E-004	8	..........a	0	-327.74
	9312	18.626	-4.32015E-001	-5.84850E-005	0.00000E+000	-4.31200E-001	-8.37606E-004	8	..........a	0	-327.74
	9344	18.69	-4.35178E-001	-6.08261E-005	0.00000E+000	-4.34400E-001	-8.54272E-004	8	..........a	0	-327.74
	9376	18.754	-4.38373E-001	-6.36788E-005	0.00000E+000	-4.37600E-001	-8.54272E-004	8	..........a	0	-327.74
	9408	18.818	-4.41590E-001	-6.67460E-005	0.00000E+000	-4.40800E-001	-7.95939E-004	8	..........a	0	-327.74
	9440	18.882	-4.44782E-001	-6.91933E-005	0.00000E+000	-4.44000E-001	-8.20939E-004	8	..........a	0	-327.74
	9472	18.946	-4.47973E-001	-7.19831E-005	0.00000E+000	-4.47200E-001	-8.04272E-004	8	..........a	0	-327.74
	9504	19.01	-4.51169E-001	-7.49337E-005	0.00000E+000	-4.50400E-001	-8.04272E-004	8	..........a	0	-327.74
	9536	19.074	-4.54382E-001	-7.82051E-005	0.00000E+000	-4.53600E-001	-8.79272E-004	8	..........a	0	-327.74
	9568	19.138	-4.57561E-001	-8.12036E-005	0.00000E+000	-4.56800E-001	-7.87605E-004	8	..........a	0	-327.74
	9600	19.202	-4.60765E-001	-8.46642E-005	0.00000E+000	-4.60000E-001	-8.12605E-004	8	..........a	0	-327.74
	9632	19.266	-4.63978E-001	-8.74252E-005	0.00000E+000	-4.63200E-001	-8.37606E-004	8	..........a	0	-327.74
	9664	19.33	-4.67178E-001	-9.07620E-005	0.00000E+000	-4.66400E-001	-8.54272E-004	8	..........a	0	-327.74
	9696	19.394	-4.70382E-001	-9.38147E-005	0.00000E+000	-4.69600E-001	-8.20939E-004	8	..........a	0	-327.74
	9728	19.458	-4.73532E-001	-9.71486E-005	0.00000E+000	-4.72800E-001	-8.04272E-004	8	..........a	0	-327.74
	9760	19.522	-4.76715E-001	-1.00518E-004	0.00000E+000	-4.76000E-001	-8.95939E-004	8	..........a	0	-327.74
	9792	19.586	-4.79961E-001	-1.04248E-004	0.00000E+000	-4.79200E-001	-7.95939E-004	8	..........a	0	-327.74
	9824	19.65	-4.83148E-001	-1.08062E-004	0.00000E+000	-4.82400E-001	-8.95939E-004	8	..........a	0	-327.74
	9856	19.714	-4.86357E-001	-1.12195E-004	0.00000E+000	-4.85600E-001	-8.45939E-004	8	..........a	0	-327.74
	9888	19.778	-4.89561E-001	-1.16120E-004	0.00000E+000	-4.88800E-001	-8.37606E-004	8	..........a	0	-327.74
	9920	19.842	-4.92757E-001	-1.20246E-004	0.00000E+000	-4.92000E-001	-8.45939E-004	8	..........a	0	-327.74
	9952	19.906	-4.95936E-001	-1.24594E-004	0.00000E+000	-4.95200E-001	-8.54272E-004	8	..........a	0	-327.74
	9984	19.97	-4.99103E-001	-1.29321E-004	0.00000E+000	-4.98400E-001	-8.37606E-004	8	..........a	0	-327.74
	10016	20.034	-5.02311E-001	-1.34608E-004	0.00000E+000	-5.01600E-001	-8.12605E-004	8	..........a	0	-327.74
	10048	20.098	-5.05519E-001	-1.40279E-004	0.00000E+000	-5.04800E-001	-8.20939E-004	8	..........a	0	-327.74
	10080	20.162	-5.08707E-001	-1.45979E-004	0.00000E+000	-5.08000E-001	-8.37606E-004	8	..........a	0	-327.74
	10112	20.226	-5.11919E-001	-1.52311E-004	0.00000E+000	-5.11200E-001	-8.29272E-004	8	..........a	0	-327.74
	10144	20.29	-5.15115E-001	-1.59145E-004	0.00000E+000	-5.14400E-001	-8.87605E-004	8	..........a	0	-327.74
	10176	20.354	-5.18286E-001	-1.65823E-004	0.00000E+000	-5.17600E-001	-8.20939E-004	8	..........a	0	-327.74
	10208	20.418	-5.21498E-001	-1.73017E-004	0.00000E+000	-5.20800E-001	-8.12605E-004	8	..........a	0	-327.74
	10240	20.482	-5.24611E-001	-1.80944E-004	0.00000E+000	-5.24000E-001	-8.70939E-004	8	..........a	0	-327.74
	10272	20.546	-5.27823E-001	-1.89247E-004	0.00000E+000	-5.27200E-001	-8.45939E-004	8	..........a	0	-327.74
	10304	20.61	-5.31007E-001	-1.97780E-004	0.00000E+000	-5.30400E-001	-8.62605E-004	8	..........a	0	-327.74
	10336	20.674	-5.34194E-001	-2.06434E-004	0.00000E+000	-5.33600E-001	-8.37606E-004	8	..........a	0	-327.74
	10368	20.738	-5.37407E-001	-2.15724E-004	0.00000E+000	-5.36800E-001	-8.37606E-004	8	..........a	0	-327.74
	10400	20.802	-5.40532E-001	-2.24829E-004	0.00000E+000	-5.40000E-001	-8.62605E-004	8	..........a	0	-327.74
	10432	20.866	-5.43765E-001	-2.33511E-004	0.00000E+000	-5.43200E-001	-8.37606E-004	8	..........a	0	-327.74
	10464	20.93	-5.46978E-001	-2.43555E-004	0.00000E+000	-5.46400E-001	-8.95939E-004	8	..........a	0	-327.74
	10496	20.994	-5.50073E-001	-2.53426E-004	0.00000E+000	-5.49600E-001	-8.29272E-004	8	..........a	0	-327.74
	10528	21.058	-5.53286E-001	-2.62327E-004	0.00000E+000	-5.52800E-001	-8.20939E-004	8	..........a	0	-327.74
	10560	21.122	-5.56775E-001	-2.72272E-004	0.00000E+000	-5.56000E-001	-8.20939E-004	9	..........a	0	-327.74
	10592	21.186	-5.59962E-001	-2.81966E-004	0.00000E+000	-5.59200E-001	-8.20939E-004	9	..........a	0	-327.74
	10624	21.25	-5.63121E-001	-2.91214E-004	0.00000E+000	-5.62400E-001	-8.04272E-004	9	..........a	0	-327.74
	10656	21.314	-5.66358E-001	-3.00110E-004	0.00000E+000	-5.65600E-001	-8.20939E-004	9	..........a	0	-327.74
	10688	21.378	-5.69550E-001	-3.08781E-004	0.00000E+000	-5.68800E-001	-8.45939E-004	9	..........a	0	-327.74
	10720	21.442	-5.72746E-001	-3.16833E-004	0.00000E+000	-5.72000E-001	-8.54272E-004	9	..........a	0	-327.74
	10752	21.506	-5.75942E-001	-3.24230E-004	0.00000E+000	-5.75200E-001	-8.37606E-004	9	..........a	0	-327.74
	10784	21.57	-5.79183E-001	-3.31672E-004	0.00000E+000	-5.78400E-001	-8.62605E-004	9	..........a	0	-327.74
	10816	21.634	-5.82333E-001	-3.39010E-004	0.00000E+000	-5.81600E-001	-8.04272E-004	9	..........a	0	-327.74
	10848	21.698	-5.85562E-001	-3.46184E-004	0.00000E+000	-5.84800E-001	-8.04272E-004	9	..........a	0	-327.74
	10880	21.762	-5.88742E-001	-3.53138E-004	0.00000E+000	-5.88000E-001	-8.37606E-004	9	..........a	0	-327.74
	10912	21.826	-5.91933E-001	-3.58562E-004	0.00000E+000	-5.91200E-001	-8.20939E-004	9	..........a	0	-327.74
	10944	21.89	-5.95133E-001	-3.63739E-004	0.00000E+000	-5.94400E-001	-7.70939E-004	9	..........a	0	-327.74
	10976	21.954	-5.98367E-001	-3.69840E-004	0.00000E+000	-5.97600E-001	-8.45939E-004	9	..........a	0	-327.74
	11008	22.018	-6.01525E-001	-3.75841E-004	0.00000E+000	-6.00800E-001	-7.95939E-004	9	..........a	0	-327.74
	11040	22.082	-6.04750E-001	-3.81076E-004	0.00000E+000	-6.04000E-001	-8.79272E-004	9	..........a	0	-327.74
	11072	22.146	-6.07967E-001	-3.84599E-004	0.00000E+000	-6.07200E-001	-7.95939E-004	9	..........a	0	-327.74
	11104	22.21	-6.11146E-001	-3.86998E-004	0.00000E+000	-6.10400E-001	-8.62605E-004	9	..........a	0	-327.74
	11136	22.274	-6.14333E-001	-3.92438E-004	0.00000E+000	-6.13600E-001	-8.45939E-004	9	..........a	0	-327.74
	11168	22.338	-6.17521E-001	-3.96433E-004	0.00000E+000	-6.16800E-001	-9.04272E-004	9	..........a	0	-327.74
	11200	22.402	-6.20717E-001	-3.97858E-004	0.00000E+000	-6.20000E-001	-8.70939E-004	9	..........a	0	-327.74
	11232	22.466	-6.23946E-001	-4.00775E-004	0.00000E+000	-6.23200E-001	-8.37606E-004	9	..........a	0	-327.74
	11264	22.53	-6.27117E-001	-4.04356E-004	0.00000E+000	-6.26400E-001	-8.20939E-004	9	..........a	0	-327.74
	11296	22.594	-6.30296E-001	-4.07553E-004	0.00000E+000	-6.29600E-001	-8.29272E-004	9	..........a	0	-327.74
	11328	22.658	-6.33508E-001	-4.09207E-004	0.00000E+000	-6.32800E-001	-7.95939E-004	9	..........a	0	-327.74
	11360	22.722	-6.36704E-001	-4.10737E-004	0.00000E+000	-6.36000E-001	-8.54272E-004	9	..........a	0	-327.74
	11392	22.786	-6.39912E-001	-4.11359E-004	0.00000E+000	-6.39200E-001	-8.87605E-004	9	..........a	0	-327.74
	11424	22.85	-6.43112E-001	-4.12860E-004	0.00000E+000	-6.42400E-001	-8.29272E-004	9	..........a	0	-327.74
	11456	22.914	-6.46333E-001	-4.15150E-004	0.00000E+000	-6.45600E-001	-8.70939E-004	9	..........a	0	-327.74
	11488	22.978	-6.49529E-001	-4.16930E-004	0.00000E+000	-6.48800E-001	-7.70939E-004	9	..........a	0	-327.74
	11520	23.042	-6.52696E-001	-4.17732E-004	0.00000E+000	-6.52000E-001	-8.95939E-004	9	..........a	0	-327.74
	11552	23.106	-6.55921E-001	-4.19337E-004	0.00000E+000	-6.55200E-001	-8.12605E-004	9	..........a	0	-327.74
	11584	23.17	-6.59121E-001	-4.21539E-004	0.00000E+000	-6.58400E-001	-8.04272E-004	9	..........a	0	-327.74
	11616	23.234	-6.62321E-001	-4.22625E-004	0.00000E+000	-6.61600E-001	-8.37606E-004	9	..........a	0	-327.74
	11648	23.298	-6.65533E-001	-4.22901E-004	0.00000E+000	-6.64800E-001	-8.12605E-004	9	..........a	0	-327.74
	11680	23.362	-6.68717E-001	-4.23941E-004	0.00000E+000	-6.68000E-001	-8.45939E-004	9	..........a	0	-327.74
	11712	23.426	-6.71908E-001	-4.25780E-004	0.00000E+000	-6.71200E-001	-8.12605E-004	9	..........a	0	-327.74
	11744	23.49	-6.75129E-001	-4.26695E-004	0.00000E+000	-6.74400E-001	-8.45939E-004	9	..........a	0	-327.74
	11776	23.554	-6.78279E-001	-4.27343E-004	0.00000E+000	-6.77600E-001	-8.37606E-004	9	..........a	0	-327.74
	11808	23.618	-6.81500E-001	-4.28154E-004	0.00000E+000	-6.80800E-001	-8.37606E-004	9	..........a	0	-327.74
	11840	23.682	-6.84721E-001	-4.28057E-004	0.00000E+000	-6.84000E-001	-8.04272E-004	9	..........a	0	-327.74
	11872	23.746	-6.87912E-001	-4.29240E-004	0.00000E+000	-6.87200E-001	-8.37606E-004	9	..........a	0	-327.74
	11904	23.81	-6.91104E-001	-4.30180E-004	0.00000E+000	-6.90400E-001	-8.87605E-004	9	..........a	0	-327.74
	11936	23.874	-6.94317E-001	-4.29019E-004	0.00000E+000	-6.93600E-001	-7.62605E-004	9	..........a	0	-327.74
	11968	23.938	-6.97500E-001	-4.28358E-004	0.00000E+000	-6.96800E-001	-8.37606E-004	9	..........a	0	-327.74
	12000	24.002	-7.00696E-001	-4.30289E-004	0.00000E+000	-7.00000E-001	-8.29272E-004	9	..........a	0	-327.74
	12032	24.066	-7.03867E-001	-4.30882E-004	0.00000E+000	-7.03200E-001	-8.37606E-004	9	..........a	0	-327.74
	12064	24.13	-7.07096E-001	-4.31760E-004	0.00000E+000	-7.06400E-001	-8.45939E-004	9	..........a	0	-327.74
	12096	24.194	-7.10304E-001	-4.32161E-004	0.00000E+000	-7.09600E-001	-8.37606E-004	9	..........a	0	-327.74
	12128	24.258	-7.13487E-001	-4.33068E-004	0.00000E+000	-7.12800E-001	-8.79272E-004	9	..........a	0	-327.74
	12160	24.322	-7.16662E-001	-4.33218E-004	0.00000E+000	-7.16000E-001	-7.95939E-004	9	..........a	0	-327.74
	12192	24.386	-7.19883E-001	-4.32458E-004	0.00000E+000	-7.19200E-001	-7.70939E-004	9	..........a	0	-327.74
	12224	24.45	-7.23125E-001	-4.33669E-004	0.00000E+000	-7.22400E-001	-8.29272E-004	9	..........a	0	-327.74
	12256	24.514	-7.26308E-001	-4.34367E-004	0.00000E+000	-7.25600E-001	-8.20939E-004	9	..........a	0	-327.74
	12288	24.578	-7.29479E-001	-4.35429E-004	0.00000E+000	-7.28800E-001	-8.29272E-004	9	..........a	0	-327.74
	12320	24.642	-7.32679E-001	-4.35349E-004	0.00000E+000	-7.32000E-001	-8.37606E-004	9	..........a	0	-327.74
	12352	24.706	-7.35900E-001	-4.35211E-004	0.00000E+000	-7.35200E-001	-8.12605E-004	9	..........a	0	-327.74
	12384	24.77	-7.39087E-001	-4.34952E-004	0.00000E+000	-7.38400E-001	-8.20939E-004	9	..........a	0	-327.74
	12416	24.834	-7.42329E-001	-4.33920E-004	0.00000E+000	-7.41600E-001	-9.04272E-004	9	..........a	0	-327.74
	12448	24.898	-7.45517E-001	-4.35358E-004	0.00000E+000	-7.44800E-001	-8.29272E-004	9	..........a	0	-327.74
	12480	24.962	-7.48721E-001	-4.36975E-004	0.00000E+000	-7.48000E-001	-8.37606E-004	9	..........a	0	-327.74
	12512	25.026	-7.51900E-001	-4.36661E-004	0.00000E+000	-7.51200E-001	-8.62605E-004	9	..........a	0	-327.74
	12544	25.09	-7.55079E-001	-4.38191E-004	0.00000E+000	-7.54400E-001	-7.87605E-004	9	..........a	0	-327.74
	12576	25.154	-7.58254E-001	-4.38149E-004	0.00000E+000	-7.57600E-001	-8.70939E-004	9	..........a	0	-327.74
	12608	25.218	-7.61479E-001	-4.37434E-004	0.00000E+000	-7.60800E-001	-8.62605E-004	9	..........a	0	-327.74
	12640	25.282	-7.64692E-001	-4.37372E-004	0.00000E+000	-7.64000E-001	-8.20939E-004	9	..........a	0	-327.74
	12672	25.346	-7.67883E-001	-4.35529E-004	0.00000E+000	-7.67200E-001	-7.95939E-004	9	..........a	0	-327.74
	12704	25.41	-7.71092E-001	-4.36703E-004	0.00000E+000	-7.70400E-001	-7.70939E-004	9	..........a	0	-327.74
	12736	25.474	-7.74300E-001	-4.36695E-004	0.00000E+000	-7.73600E-001	-8.29272E-004	9	..........a	0	-327.74
	12768	25.538	-7.77492E-001	-4.38007E-004	0.00000E+000	-7.76800E-001	-7.87605E-004	9	..........a	0	-327.74
	12800	25.602	-7.80579E-001	-4.39453E-004	0.00000E+000	-7.80000E-001	-8.45939E-004	9	..........a	0	-327.74
	12832	25.666	-7.83879E-001	-4.39256E-004	0.00000E+000	-7.83200E-001	-8.20939E-004	9	..........a	0	-327.74
	12864	25.73	-7.87087E-001	-4.37326E-004	0.00000E+000	-7.86400E-001	-8.45939E-004	9	..........a	0	-327.74
	12896	25.794	-7.90308E-001	-4.37635E-004	0.00000E+000	-7.89600E-001	-8.20939E-004	9	..........a	0	-327.74
	12928	25.858	-7.93467E-001	-4.37689E-004	0.00000E+000	-7.92800E-001	-8.87605E-004	9	..........a	0	-327.74
	12960	25.922	-7.96662E-001	-4.37936E-004	0.00000E+000	-7.96000E-001	-8.04272E-004	9	..........a	0	-327.74
	12992	25.986	-7.99887E-001	-4.40021E-004	0.00000E+000	-7.99200E-001	-8.45939E-004	9	..........a	0	-327.74
	13024	26.05	-8.03050E-001	-4.39453E-004	0.00000E+000	-8.02400E-001	-8.12605E-004	9	..........a	0	-327.74
	13056	26.114	-8.06242E-001	-4.37844E-004	0.00000E+000	-8.05600E-001	-7.95939E-004	9	..........a	0	-327.74
	13088	26.178	-8.09487E-001	-4.38696E-004	0.00000E+000	-8.08800E-001	-8.62605E-004	9	..........a	0	-327.74
	13120	26.242	-8.12646E-001	-4.39737E-004	0.00000E+000	-8.12000E-001	-8.37606E-004	9	..........a	0	-327.74
	13152	26.306	-8.15908E-001	-4.41918E-004	0.00000E+000	-8.15200E-001	-8.54272E-004	9	..........a	0	-327.74
	13184	26.37	-8.19025E-001	-4.43151E-004	0.00000E+000	-8.18400E-001	-8.12605E-004	9	..........a	0	-327.74
	13216	26.434	-8.22242E-001	-4.43631E-004	0.00000E+000	-8.21600E-001	-8.12605E-004	9	..........a	0	-327.74
	13248	26.498	-8.25387E-001	-4.41279E-004	0.00000E+000	-8.24800E-001	-8.20939E-004	9	..........a	0	-327.74
	13280	26.562	-8.28654E-001	-4.38985E-004	0.00000E+000	-8.28000E-001	-8.37606E-004	9	..........a	0	-327.74
	13312	26.626	-8.31783E-001	-4.39904E-004	0.00000E+000	-8.31200E-001	-7.70939E-004	9	..........a	0	-327.74
	13344	26.69	-8.34987E-001	-4.40242E-004	0.00000E+000	-8.34400E-001	-8.29272E-004	9	..........a	0	-327.74
	13376	26.754	-8.38187E-001	-4.40568E-004	0.00000E+000	-8.37600E-001	-8.12605E-004	9	..........a	0	-327.74
	13408	26.818	-8.41379E-001	-4.40777E-004	0.00000E+000	-8.40800E-001	-7.95939E-004	9	..........a	0	-327.74
	13440	26.882	-8.44575E-001	-4.40928E-004	0.00000E+000	-8.44000E-001	-8.45939E-004	9	..........a	0	-327.74
	13472	26.946	-8.47821E-001	-4.40593E-004	0.00000E+000	-8.47200E-001	-8.62605E-004	9	..........a	0	-327.74
	13504	27.01	-8.50950E-001	-4.41020E-004	0.00000E+000	-8.50400E-001	-8.54272E-004	9	..........a	0	-327.74
	13536	27.074	-8.54275E-001	-4.40556E-004	0.00000E+000	-8.53600E-001	-8.45939E-004	9	..........a	0	-327.74
	13568	27.138	-8.57321E-001	-4.41316E-004	0.00000E+000	-8.56800E-001	-8.45939E-004	9	..........a	0	-327.74
	13600	27.202	-8.60629E-001	-4.40723E-004	0.00000E+000	-8.60000E-001	-8.37606E-004	9	..........a	0	-327.74
	13632	27.266	-8.63754E-001	-4.41032E-004	0.00000E+000	-8.63200E-001	-8.29272E-004	9	..........a	0	-327.74
	13664	27.33	-8.66992E-001	-4.41296E-004	0.00000E+000	-8.66400E-001	-8.54272E-004	9	..........a	0	-327.74
	13696	27.394	-8.70221E-001	-4.42010E-004	0.00000E+000	-8.69600E-001	-7.95939E-004	9	..........a	0	-327.74
	13728	27.458	-8.73375E-001	-4.41208E-004	0.00000E+000	-8.72800E-001	-8.54272E-004	9	..........a	0	-327.74
	13760	27.522	-8.76596E-001	-4.43920E-004	0.00000E+000	-8.76000E-001	-8.20939E-004	9	..........a	0	-327.74
	13792	27.586	-8.79846E-001	-4.41952E-004	0.00000E+000	-8.79200E-001	-7.87605E-004	9	..........a	0	-327.74
	13824	27.65	-8.82946E-001	-4.40029E-004	0.00000E+000	-8.82400E-001	-8.37606E-004	9	..........a	0	-327.74
	13856	27.714	-8.86175E-001	-4.41571E-004	0.00000E+000	-8.85600E-001	-8.29272E-004	9	..........a	0	-327.74
	13888	27.778	-8.89367E-001	-4.40794E-004	0.00000E+000	-8.88800E-001	-8.12605E-004	9	..........a	0	-327.74
	13920	27.842	-8.92583E-001	-4.41429E-004	0.00000E+000	-8.92000E-001	-8.54272E-004	9	..........a	0	-327.74
	13952	27.906	-8.95821E-001	-4.42131E-004	0.00000E+000	-8.95200E-001	-8.29272E-004	9	..........a	0	-327.74
	13984	27.97	-8.99046E-001	-4.43251E-004	0.00000E+000	-8.98400E-001	-8.79272E-004	9	..........a	0	-327.74
	14016	28.034	-9.02175E-001	-4.42390E-004	0.00000E+000	-9.01600E-001	-8.12605E-004	9	..........a	0	-327.74
	14048	28.098	-9.05446E-001	-4.41605E-004	0.00000E+000	-9.04800E-001	-8.70939E-004	9	..........a	0	-327.74
	14080	28.162	-9.08467E-001	-4.42804E-004	0.00000E+000	-9.08000E-001	-8.12605E-004	9	..........a	0	-327.74
	14112	28.226	-9.11771E-001	-4.42010E-004	0.00000E+000	-9.11200E-001	-7.87605E-004	9	..........a	0	-327.74
	14144	28.29	-9.14933E-001	-4.42854E-004	0.00000E+000	-9.14400E-001	-8.04272E-004	9	..........a	0	-327.74
	14176	28.354	-9.18158E-001	-4.43627E-004	0.00000E+000	-9.17600E-001	-7.87605E-004	9	..........a	0	-327.74
	14208	28.418	-9.21350E-001	-4.43928E-004	0.00000E+000	-9.20800E-001	-7.95939E-004	9	..........a	0	-327.74
	14240	28.482	-9.24583E-001	-4.43034E-004	0.00000E+000	-9.24000E-001	-8.45939E-004	9	..........a	0	-327.74
	14272	28.546	-9.27837E-001	-4.41872E-004	0.00000E+000	-9.27200E-001	-7.79272E-004	9	..........a	0	-327.74
	14304	28.61	-9.31054E-001	-4.43306E-004	0.00000E+000	-9.30400E-001	-8.12605E-004	9	..........a	0	-327.74
	14336	28.674	-9.34137E-001	-4.43995E-004	0.00000E+000	-9.33600E-001	-8.62605E-004	9	..........a	0	-327.74
	14368	28.738	-9.37321E-001	-4.44797E-004	0.00000E+000	-9.36800E-001	-7.87605E-004	9	..........a	0	-327.74
	14400	28.802	-9.40546E-001	-4.44150E-004	0.00000E+000	-9.40000E-001	-8.54272E-004	9	..........a	0	-327.74
	14432	28.866	-9.43767E-001	-4.43648E-004	0.00000E+000	-9.43200E-001	-8.45939E-004	9	..........a	0	-327.74
	14464	28.93	-9.46937E-001	-4.42583E-004	0.00000E+000	-9.46400E-001	-8.12605E-004	9	..........a	0	-327.74
	14496	28.994	-9.50162E-001	-4.42771E-004	0.00000E+000	-9.49600E-001	-8.04272E-004	9	..........a	0	-327.74
	14528	29.058	-9.53371E-001	-4.43682E-004	0.00000E+000	-9.52800E-001	-8.04272E-004	9	..........a	0	-327.74
	14560	29.122	-9.56637E-001	-4.43468E-004	0.00000E+000	-9.56000E-001	-8.20939E-004	9	..........a	0	-327.74
	14592	29.186	-9.59700E-001	-4.42863E-004	0.00000E+000	-9.59200E-001	-8.12605E-004	9	..........a	0	-327.74
	14624	29.25	-9.62933E-001	-4.44137E-004	0.00000E+000	-9.62400E-001	-8.12605E-004	9	..........a	0	-327.74
	14656	29.314	-9.66154E-001	-4.45687E-004	0.00000E+000	-9.65600E-001	-8.20939E-004	9	..........a	0	-327.74
	14688	29.378	-9.69292E-001	-4.45913E-004	0.00000E+000	-9.68800E-001	-8.12605E-004	9	..........a	0	-327.74
	14720	29.442	-9.72500E-001	-4.44421E-004	0.00000E+000	-9.72000E-001	-8.20939E-004	9	..........a	0	-327.74
	14752	29.506	-9.75733E-001	-4.45207E-004	0.00000E+000	-9.75200E-001	-8.37606E-004	9	..........a	0	-327.74
	14784	29.57	-9.78983E-001	-4.43673E-004	0.00000E+000	-9.78400E-001	-7.79272E-004	9	..........a	0	-327.74
	14816	29.634	-9.82217E-001	-4.43890E-004	0.00000E+000	-9.81600E-001	-8.37606E-004	9	..........a	0	-327.74
	14848	29.698	-9.85283E-001	-4.46389E-004	0.00000E+000	-9.84800E-001	-7.79272E-004	9	..........a	0	-327.74
	14880	29.762	-9.88475E-001	-4.46026E-004	0.00000E+000	-9.88000E-001	-8.04272E-004	9	..........a	0	-327.74
	14912	29.826	-9.91721E-001	-4.45654E-004	0.00000E+000	-9.91200E-001	-8.62605E-004	9	..........a	0	-327.74
	14944	29.89	-9.94921E-001	-4.45846E-004	0.00000E+000	-9.94400E-001	-8.29272E-004	9	..........a	0	-327.74
	14976	29.954	-9.98096E-001	-4.45859E-004	0.00000E+000	-9.97600E-001	-8.04272E-004	9	..........a	0	-327.74
	15000	30.002	-1.00048E+000	-4.46302E-004	0.00000E+000	-1.00000E+000	-7.95939E-004	9	..........a	0	-327.74