File: data/02-SI/Figures_S9_S11_RDE/15btmapaq-rde/1mkcl-15btmapaq-nitrogen-6000mvpers.DTA
EXPLAIN
TAG	CV
TITLE	LABEL	Cyclic Voltammetry	Test &Identifier
DATE	LABEL	1/31/2023	Date
TIME	LABEL	18:21:54	Time
NOTES	NOTES	1	&Notes...

PSTAT	PSTAT	REF3000-21108	Potentiostat
VINIT	POTEN	5.00000E-001	F	Initial &E (V)
VLIMIT1	POTEN	-1.00000E+000	F	Scan Limit &1 (V)
VLIMIT2	POTEN	5.00000E-001	F	Scan Limit &2 (V)
VFINAL	POTEN	5.00000E-001	F	Final &E (V)
SCANRATE	QUANT	5.99999E+003	&Scan Rate (mV/s)
STEPSIZE	QUANT	1.00000E+000	St&ep Size (mV)
CYCLES	IQUANT	1	C&ycles (#)
IMODE	SELECTOR	1	I/E Range &Mode
IRANGE	QUANT	1.00000E+001	&Max Current (mA)
AREA	QUANT	1.00000E+000	Electrode &Area (cm^2)
ELECTRODETYPE	SELECTOR	0	Electrode Type
STRIPPING	TOGGLE	F	Used for Stripping
POLARITY	TOGGLE	F	Signal Polarity
CONDIT	TWOPARAM	F	1.50000E+001	0.00000E+000	Conditionin&g	Time(s)	E(V)
DELAY	TWOPARAM	F	5.00000E+000	0.00000E+000	Init. De&lay	Time(s)	Stab.(mV/s)
EQDELAY	QUANT	0.00000E+000	Equil. &Time (s)
IRCOMP	SELECTOR	0	IRCom&p
PFCOR	QUANT	5.00000E+001	PF Corr. (ohm)
SAMPLINGMODE	SELECTOR	1	Sampling &Mode
EOC	QUANT	0	Open Circuit (V)
PSTATMODEL	IQUANT	5	Pstat Model
PSTATSECTION	LABEL	REF3000-21108	Pstat Section
PSTATSERIALNO	LABEL	21108	Pstat Serial Number
CTRLMODE	IQUANT	1	Control Mode
ELECTROMETER	IQUANT	0	RE=0 or CS=1
IESTAB	IQUANT	2	I/E Stability
CASPEED	IQUANT	4	Control Amp Speed
CONVENTION	IQUANT	1	Current Convention
ICHRANGE	IQUANT	2	Ich Range
ICHRANGEMODE	TOGGLE	F	Ich Auto Range
ICHOFFSETENABLE	TOGGLE	F	Ich Offset Enable
ICHOFFSET	QUANT	0	Ich Offset (V)
ICHFILTER	IQUANT	1	Ich Filter
VCHRANGE	IQUANT	2	Vch Range
VCHRANGEMODE	TOGGLE	F	Vch Auto Range
VCHOFFSETENABLE	TOGGLE	F	Vch Offset Enable
VCHOFFSET	QUANT	0	Vch Offset (V)
VCHFILTER	IQUANT	1	Vch Filter
ACHRANGE	IQUANT	2	Ach Range
ACHOFFSETENABLE	TOGGLE	F	Ach Offset Enable
ACHOFFSET	QUANT	0	Ach Offset (V)
ACHFILTER	IQUANT	0	Ach Filter
IERANGELOWERLIMIT	IQUANT	2	I/E Range Lower Limit
IERANGEMODE	TOGGLE	F	I/E AutoRange
IERANGE	IQUANT	10	I/E Range
POSFEEDENABLE	TOGGLE	F	Positive Feedback IR Comp
POSFEEDRESISTANCE	QUANT	0	Positive Feedback Resistance (ohm)
ACHSELECT	IQUANT	0	Ach Select
SENSECABLEID	IQUANT	14	Sense Cable ID
PWRCABLEID	IQUANT	7	Power Cable ID
DCCALDATE	LABEL	11/9/2022	DC Calibration Date
ACCALDATE	LABEL	11/9/2022	AC Calibration Date
THERMOSELECT	IQUANT	1	Thermo Select
FRAMEWORKVERSION	LABEL	7.8.2	Framework Version
INSTRUMENTVERSION	LABEL	4.40	Instrument Version
COMPLIANCEVOLTAGE	IQUANT	0	Compliance Voltage
CURVE1	TABLE
	Pt	T	Vf	Im	Vu	Sig	Ach	IERange	Over	Temp
	#	s	V vs. Ref.	A	V	V	V	#	bits	deg C
	0	0.000167	4.98691E-001	3.21315E-005	0.00000E+000	5.00000E-001	-6.29272E-004	10	..........a	-327.74
	7	0.001333	4.91591E-001	1.30822E-005	0.00000E+000	4.93000E-001	-1.02927E-003	10	..........a	-327.74
	14	0.0025	4.84591E-001	9.57313E-006	0.00000E+000	4.86000E-001	-7.29272E-004	10	..........a	-327.74
	21	0.003667	4.77791E-001	1.05109E-006	0.00000E+000	4.79000E-001	-9.29272E-004	10	..........a	-327.74
	28	0.004833	4.70641E-001	1.55238E-006	0.00000E+000	4.72000E-001	-8.29272E-004	10	..........a	-327.74
	35	0.006	4.63641E-001	-2.95929E-006	0.00000E+000	4.65000E-001	-7.29272E-004	10	..........a	-327.74
	42	0.007167	4.56691E-001	-6.96967E-006	0.00000E+000	4.58000E-001	-9.29272E-004	10	..........a	-327.74
	49	0.008333	4.49641E-001	-7.47096E-006	0.00000E+000	4.51000E-001	-9.29272E-004	10	..........a	-327.74
	56	0.0095	4.42691E-001	-1.04787E-005	0.00000E+000	4.44000E-001	-8.29272E-004	10	..........a	-327.74
	63	0.010667	4.35691E-001	-1.09800E-005	0.00000E+000	4.37000E-001	-7.29272E-004	10	..........a	-327.74
	70	0.011833	4.28691E-001	-8.97485E-006	0.00000E+000	4.30000E-001	-9.29272E-004	10	..........a	-327.74
	77	0.013	4.21691E-001	-1.34865E-005	0.00000E+000	4.23000E-001	-7.29272E-004	10	..........a	-327.74
	84	0.014167	4.14591E-001	-1.69956E-005	0.00000E+000	4.16000E-001	-8.29272E-004	10	..........a	-327.74
	91	0.015333	4.07691E-001	-1.74969E-005	0.00000E+000	4.09000E-001	-7.29272E-004	10	..........a	-327.74
	98	0.0165	4.00591E-001	-2.05047E-005	0.00000E+000	4.02000E-001	-6.29272E-004	10	..........a	-327.74
	105	0.017667	3.93691E-001	-2.25099E-005	0.00000E+000	3.95000E-001	-7.29272E-004	10	..........a	-327.74
	112	0.018833	3.86691E-001	-2.15073E-005	0.00000E+000	3.88000E-001	-8.29272E-004	10	..........a	-327.74
	119	0.02	3.79691E-001	-2.40138E-005	0.00000E+000	3.81000E-001	-7.29272E-004	10	..........a	-327.74
	126	0.021167	3.72591E-001	-2.35125E-005	0.00000E+000	3.74000E-001	-6.29272E-004	10	..........a	-327.74
	133	0.022333	3.65691E-001	-2.35125E-005	0.00000E+000	3.67000E-001	-7.29272E-004	10	..........a	-327.74
	140	0.0235	3.58741E-001	-2.50164E-005	0.00000E+000	3.60000E-001	-8.29272E-004	10	..........a	-327.74
	147	0.024667	3.51641E-001	-2.65202E-005	0.00000E+000	3.53000E-001	-8.29272E-004	10	..........a	-327.74
	154	0.025833	3.44791E-001	-2.80241E-005	0.00000E+000	3.46000E-001	-7.29272E-004	10	..........a	-327.74
	161	0.027	3.37691E-001	-3.00293E-005	0.00000E+000	3.39000E-001	-7.29272E-004	10	..........a	-327.74
	168	0.028167	3.30741E-001	-2.95280E-005	0.00000E+000	3.32000E-001	-7.29272E-004	10	..........a	-327.74
	175	0.029333	3.23591E-001	-3.10319E-005	0.00000E+000	3.25000E-001	-8.29272E-004	10	..........a	-327.74
	182	0.0305	3.16691E-001	-3.00293E-005	0.00000E+000	3.18000E-001	-8.29272E-004	10	..........a	-327.74
	189	0.031667	3.09691E-001	-2.90267E-005	0.00000E+000	3.11000E-001	-7.29272E-004	10	..........a	-327.74
	196	0.032833	3.02741E-001	-3.15332E-005	0.00000E+000	3.04000E-001	-9.29272E-004	10	..........a	-327.74
	203	0.034	2.95791E-001	-3.35384E-005	0.00000E+000	2.97000E-001	-7.29272E-004	10	..........a	-327.74
	210	0.035167	2.88641E-001	-3.20345E-005	0.00000E+000	2.90000E-001	-7.29272E-004	10	..........a	-327.74
	217	0.036333	2.81891E-001	-3.30371E-005	0.00000E+000	2.83000E-001	-9.29272E-004	10	..........a	-327.74
	224	0.0375	2.74641E-001	-3.25358E-005	0.00000E+000	2.76000E-001	-7.29272E-004	10	..........a	-327.74
	231	0.038667	2.67741E-001	-3.35384E-005	0.00000E+000	2.69000E-001	-8.29272E-004	10	..........a	-327.74
	238	0.039833	2.60741E-001	-3.90527E-005	0.00000E+000	2.62000E-001	-5.29272E-004	10	..........a	-327.74
	245	0.041	2.53591E-001	-3.80501E-005	0.00000E+000	2.55000E-001	-9.29272E-004	10	..........a	-327.74
	252	0.042167	2.46641E-001	-3.75488E-005	0.00000E+000	2.48000E-001	-9.29272E-004	10	..........a	-327.74
	259	0.043333	2.39591E-001	-3.90527E-005	0.00000E+000	2.41000E-001	-8.29272E-004	10	..........a	-327.74
	266	0.0445	2.32691E-001	-3.80501E-005	0.00000E+000	2.34000E-001	-8.29272E-004	10	..........a	-327.74
	273	0.045667	2.25791E-001	-3.85514E-005	0.00000E+000	2.27000E-001	-8.29272E-004	10	..........a	-327.74
	280	0.046833	2.18741E-001	-4.05566E-005	0.00000E+000	2.20000E-001	-9.29272E-004	10	..........a	-327.74
	287	0.048	2.11741E-001	-4.05566E-005	0.00000E+000	2.13000E-001	-6.29272E-004	10	..........a	-327.74
	294	0.049167	2.04841E-001	-4.40656E-005	0.00000E+000	2.06000E-001	-7.29272E-004	10	..........a	-327.74
	301	0.050333	1.97891E-001	-4.25618E-005	0.00000E+000	1.99000E-001	-8.29272E-004	10	..........a	-327.74
	308	0.0515	1.90741E-001	-4.45669E-005	0.00000E+000	1.92000E-001	-7.29272E-004	10	..........a	-327.74
	315	0.052667	1.83641E-001	-4.50682E-005	0.00000E+000	1.85000E-001	-8.29272E-004	10	..........a	-327.74
	322	0.053833	1.76841E-001	-4.35643E-005	0.00000E+000	1.78000E-001	-8.29272E-004	10	..........a	-327.74
	329	0.055	1.69741E-001	-4.25618E-005	0.00000E+000	1.71000E-001	-8.29272E-004	10	..........a	-327.74
	336	0.056167	1.62741E-001	-4.70734E-005	0.00000E+000	1.64000E-001	-8.29272E-004	10	..........a	-327.74
	343	0.057333	1.55691E-001	-4.95799E-005	0.00000E+000	1.57000E-001	-9.29272E-004	10	..........a	-327.74
	350	0.0585	1.48841E-001	-4.10579E-005	0.00000E+000	1.50000E-001	-8.29272E-004	10	..........a	-327.74
	357	0.059667	1.41741E-001	-5.05825E-005	0.00000E+000	1.43000E-001	-9.29272E-004	10	..........a	-327.74
	364	0.060833	1.34891E-001	-4.80760E-005	0.00000E+000	1.36000E-001	-6.29272E-004	10	..........a	-327.74
	371	0.062	1.27791E-001	-4.25618E-005	0.00000E+000	1.29000E-001	-8.29272E-004	10	..........a	-327.74
	378	0.063167	1.20891E-001	-4.50682E-005	0.00000E+000	1.22000E-001	-7.29272E-004	10	..........a	-327.74
	385	0.064333	1.13791E-001	-4.75747E-005	0.00000E+000	1.15000E-001	-7.29272E-004	10	..........a	-327.74
	392	0.0655	1.06791E-001	-4.90786E-005	0.00000E+000	1.08000E-001	-7.29272E-004	10	..........a	-327.74
	399	0.066667	9.96910E-002	-4.70734E-005	0.00000E+000	1.01000E-001	-6.29272E-004	10	..........a	-327.74
	406	0.067833	9.27910E-002	-5.15851E-005	0.00000E+000	9.40000E-002	-8.29272E-004	10	..........a	-327.74
	413	0.069	8.59910E-002	-4.90786E-005	0.00000E+000	8.70000E-002	-7.29272E-004	10	..........a	-327.74
	420	0.070167	7.87910E-002	-5.10838E-005	0.00000E+000	8.00000E-002	-7.29272E-004	10	..........a	-327.74
	427	0.071333	7.18410E-002	-4.95799E-005	0.00000E+000	7.30000E-002	-7.29272E-004	10	..........a	-327.74
	434	0.0725	6.49910E-002	-5.20864E-005	0.00000E+000	6.60000E-002	-8.29272E-004	10	..........a	-327.74
	441	0.073667	5.78410E-002	-5.20864E-005	0.00000E+000	5.90000E-002	-8.29272E-004	10	..........a	-327.74
	448	0.074833	5.07910E-002	-5.25877E-005	0.00000E+000	5.20000E-002	-8.29272E-004	10	..........a	-327.74
	455	0.076	4.36910E-002	-5.20864E-005	0.00000E+000	4.50000E-002	-6.29272E-004	10	..........a	-327.74
	462	0.077167	3.68910E-002	-5.10838E-005	0.00000E+000	3.80000E-002	-8.29272E-004	10	..........a	-327.74
	469	0.078333	2.98910E-002	-4.75747E-005	0.00000E+000	3.10000E-002	-9.29272E-004	10	..........a	-327.74
	476	0.0795	2.28910E-002	-5.30890E-005	0.00000E+000	2.40000E-002	-7.29272E-004	10	..........a	-327.74
	483	0.080667	1.59410E-002	-5.35903E-005	0.00000E+000	1.70000E-002	-8.29272E-004	10	..........a	-327.74
	490	0.081833	8.94100E-003	-5.05825E-005	0.00000E+000	9.99999E-003	-7.29272E-004	10	..........a	-327.74
	497	0.083	1.69100E-003	-5.25877E-005	0.00000E+000	2.99999E-003	-8.29272E-004	10	..........a	-327.74
	504	0.084167	-5.05900E-003	-5.25877E-005	0.00000E+000	-4.00001E-003	-7.29272E-004	10	..........a	-327.74
	511	0.085333	-1.22590E-002	-5.30890E-005	0.00000E+000	-1.10000E-002	-6.29272E-004	10	..........a	-327.74
	518	0.0865	-1.91090E-002	-5.35903E-005	0.00000E+000	-1.80000E-002	-7.29272E-004	10	..........a	-327.74
	525	0.087667	-2.60090E-002	-5.20864E-005	0.00000E+000	-2.50000E-002	-8.29272E-004	10	..........a	-327.74
	532	0.088833	-3.33590E-002	-5.25877E-005	0.00000E+000	-3.20000E-002	-7.29272E-004	10	..........a	-327.74
	539	0.09	-4.01590E-002	-5.35903E-005	0.00000E+000	-3.90000E-002	-6.29272E-004	10	..........a	-327.74
	546	0.091167	-4.71090E-002	-5.05825E-005	0.00000E+000	-4.60000E-002	-8.29272E-004	10	..........a	-327.74
	553	0.092333	-5.43590E-002	-5.55955E-005	0.00000E+000	-5.30000E-002	-7.29272E-004	10	..........a	-327.74
	560	0.0935	-6.11090E-002	-5.70994E-005	0.00000E+000	-6.00000E-002	-8.29272E-004	10	..........a	-327.74
	567	0.094667	-6.82590E-002	-5.81020E-005	0.00000E+000	-6.70000E-002	-8.29272E-004	10	..........a	-327.74
	574	0.095833	-7.51590E-002	-5.76007E-005	0.00000E+000	-7.40000E-002	-8.29272E-004	10	..........a	-327.74
	581	0.097	-8.22090E-002	-5.91046E-005	0.00000E+000	-8.10000E-002	-8.29272E-004	10	..........a	-327.74
	588	0.098167	-8.91090E-002	-5.86033E-005	0.00000E+000	-8.80000E-002	-7.29272E-004	10	..........a	-327.74
	595	0.099333	-9.62090E-002	-5.60968E-005	0.00000E+000	-9.50000E-002	-8.29272E-004	10	..........a	-327.74
	602	0.1005	-1.03109E-001	-5.60968E-005	0.00000E+000	-1.02000E-001	-9.29272E-004	10	..........a	-327.74
	609	0.101667	-1.10359E-001	-5.65981E-005	0.00000E+000	-1.09000E-001	-6.29272E-004	10	..........a	-327.74
	616	0.102833	-1.17059E-001	-5.81020E-005	0.00000E+000	-1.16000E-001	-8.29272E-004	10	..........a	-327.74
	623	0.104	-1.24159E-001	-6.01071E-005	0.00000E+000	-1.23000E-001	-8.29272E-004	10	..........a	-327.74
	630	0.105167	-1.31209E-001	-5.91046E-005	0.00000E+000	-1.30000E-001	-8.29272E-004	10	..........a	-327.74
	637	0.106333	-1.37959E-001	-6.26136E-005	0.00000E+000	-1.37000E-001	-7.29272E-004	10	..........a	-327.74
	644	0.1075	-1.45259E-001	-6.06084E-005	0.00000E+000	-1.44000E-001	-7.29272E-004	10	..........a	-327.74
	651	0.108667	-1.52259E-001	-6.26136E-005	0.00000E+000	-1.51000E-001	-8.29272E-004	10	..........a	-327.74
	658	0.109833	-1.59009E-001	-5.91046E-005	0.00000E+000	-1.58000E-001	-8.29272E-004	10	..........a	-327.74
	665	0.111	-1.66159E-001	-6.21123E-005	0.00000E+000	-1.65000E-001	-9.29272E-004	10	..........a	-327.74
	672	0.112167	-1.73109E-001	-6.11097E-005	0.00000E+000	-1.72000E-001	-8.29272E-004	10	..........a	-327.74
	679	0.113333	-1.80059E-001	-6.41175E-005	0.00000E+000	-1.79000E-001	-9.29272E-004	10	..........a	-327.74
	686	0.1145	-1.87159E-001	-6.66240E-005	0.00000E+000	-1.86000E-001	-7.29272E-004	10	..........a	-327.74
	693	0.115667	-1.93959E-001	-6.56214E-005	0.00000E+000	-1.93000E-001	-8.29272E-004	10	..........a	-327.74
	700	0.116833	-2.01059E-001	-6.36162E-005	0.00000E+000	-2.00000E-001	-9.29272E-004	10	..........a	-327.74
	707	0.118	-2.08009E-001	-6.91305E-005	0.00000E+000	-2.07000E-001	-7.29272E-004	10	..........a	-327.74
	714	0.119167	-2.15009E-001	-6.56214E-005	0.00000E+000	-2.14000E-001	-9.29272E-004	10	..........a	-327.74
	721	0.120333	-2.22109E-001	-7.06344E-005	0.00000E+000	-2.21000E-001	-9.29272E-004	10	..........a	-327.74
	728	0.1215	-2.29109E-001	-6.61227E-005	0.00000E+000	-2.28000E-001	-7.29272E-004	10	..........a	-327.74
	735	0.122667	-2.36109E-001	-6.81279E-005	0.00000E+000	-2.35000E-001	-9.29272E-004	10	..........a	-327.74
	742	0.123833	-2.43059E-001	-7.26396E-005	0.00000E+000	-2.42000E-001	-7.29272E-004	10	..........a	-327.74
	749	0.125	-2.50059E-001	-7.21383E-005	0.00000E+000	-2.49000E-001	-8.29272E-004	10	..........a	-327.74
	756	0.126167	-2.57159E-001	-7.56474E-005	0.00000E+000	-2.56000E-001	-7.29272E-004	10	..........a	-327.74
	763	0.127333	-2.64159E-001	-7.46448E-005	0.00000E+000	-2.63000E-001	-6.29272E-004	10	..........a	-327.74
	770	0.1285	-2.71059E-001	-7.61487E-005	0.00000E+000	-2.70000E-001	-9.29272E-004	10	..........a	-327.74
	777	0.129667	-2.77959E-001	-7.76525E-005	0.00000E+000	-2.77000E-001	-7.29272E-004	10	..........a	-327.74
	784	0.130833	-2.85009E-001	-7.96577E-005	0.00000E+000	-2.84000E-001	-9.29272E-004	10	..........a	-327.74
	791	0.132	-2.92059E-001	-8.11616E-005	0.00000E+000	-2.91000E-001	-7.29272E-004	10	..........a	-327.74
	798	0.133167	-2.99059E-001	-8.31668E-005	0.00000E+000	-2.98000E-001	-7.29272E-004	10	..........a	-327.74
	805	0.134333	-3.06009E-001	-8.86811E-005	0.00000E+000	-3.05000E-001	-8.29272E-004	10	..........a	-327.74
	812	0.1355	-3.13009E-001	-8.86811E-005	0.00000E+000	-3.12000E-001	-9.29272E-004	10	..........a	-327.74
	819	0.136667	-3.20009E-001	-8.56733E-005	0.00000E+000	-3.19000E-001	-6.29272E-004	10	..........a	-327.74
	826	0.137833	-3.26959E-001	-8.96837E-005	0.00000E+000	-3.26000E-001	-8.29272E-004	10	..........a	-327.74
	833	0.139	-3.34109E-001	-9.31927E-005	0.00000E+000	-3.33000E-001	-9.29272E-004	10	..........a	-327.74
	840	0.140167	-3.40909E-001	-9.41953E-005	0.00000E+000	-3.40000E-001	-8.29272E-004	10	..........a	-327.74
	847	0.141333	-3.48159E-001	-9.51979E-005	0.00000E+000	-3.47000E-001	-8.29272E-004	10	..........a	-327.74
	854	0.1425	-3.55109E-001	-1.00211E-004	0.00000E+000	-3.54000E-001	-9.29272E-004	10	..........a	-327.74
	861	0.143667	-3.62009E-001	-1.01715E-004	0.00000E+000	-3.61000E-001	-9.29272E-004	10	..........a	-327.74
	868	0.144833	-3.69009E-001	-1.01214E-004	0.00000E+000	-3.68000E-001	-6.29272E-004	10	..........a	-327.74
	875	0.146	-3.76009E-001	-1.09736E-004	0.00000E+000	-3.75000E-001	-8.29272E-004	10	..........a	-327.74
	882	0.147167	-3.83009E-001	-1.11741E-004	0.00000E+000	-3.82000E-001	-7.29272E-004	10	..........a	-327.74
	889	0.148333	-3.90059E-001	-1.18759E-004	0.00000E+000	-3.89000E-001	-9.29272E-004	10	..........a	-327.74
	896	0.1495	-3.97059E-001	-1.25276E-004	0.00000E+000	-3.96000E-001	-7.29272E-004	10	..........a	-327.74
	903	0.150667	-4.04159E-001	-1.31793E-004	0.00000E+000	-4.03000E-001	-6.29272E-004	10	..........a	-327.74
	910	0.151833	-4.11109E-001	-1.41317E-004	0.00000E+000	-4.10000E-001	-8.29272E-004	10	..........a	-327.74
	917	0.153	-4.17909E-001	-1.47333E-004	0.00000E+000	-4.17000E-001	-8.29272E-004	10	..........a	-327.74
	924	0.154167	-4.25009E-001	-1.62372E-004	0.00000E+000	-4.24000E-001	-8.29272E-004	10	..........a	-327.74
	931	0.155333	-4.32109E-001	-1.80920E-004	0.00000E+000	-4.31000E-001	-7.29272E-004	10	..........a	-327.74
	938	0.1565	-4.39059E-001	-1.98465E-004	0.00000E+000	-4.38000E-001	-8.29272E-004	10	..........a	-327.74
	945	0.157667	-4.46009E-001	-2.24533E-004	0.00000E+000	-4.45000E-001	-9.29272E-004	10	..........a	-327.74
	952	0.158833	-4.53009E-001	-2.51603E-004	0.00000E+000	-4.52000E-001	-7.29272E-004	10	..........a	-327.74
	959	0.16	-4.59909E-001	-2.75164E-004	0.00000E+000	-4.59000E-001	-9.29272E-004	10	..........a	-327.74
	966	0.161167	-4.67009E-001	-3.01732E-004	0.00000E+000	-4.66000E-001	-7.29272E-004	10	..........a	-327.74
	973	0.162333	-4.74059E-001	-3.31309E-004	0.00000E+000	-4.73000E-001	-9.29272E-004	10	..........a	-327.74
	980	0.1635	-4.81009E-001	-3.49356E-004	0.00000E+000	-4.80000E-001	-8.29272E-004	10	..........a	-327.74
	987	0.164667	-4.87959E-001	-3.79433E-004	0.00000E+000	-4.87000E-001	-8.29272E-004	10	..........a	-327.74
	994	0.165833	-4.94859E-001	-4.04498E-004	0.00000E+000	-4.94000E-001	-8.29272E-004	10	..........a	-327.74
	1001	0.167	-5.01959E-001	-4.31568E-004	0.00000E+000	-5.01000E-001	-8.29272E-004	10	..........a	-327.74
	1008	0.168167	-5.08959E-001	-4.61646E-004	0.00000E+000	-5.08000E-001	-9.29272E-004	10	..........a	-327.74
	1015	0.169333	-5.15809E-001	-4.96737E-004	0.00000E+000	-5.15000E-001	-9.29272E-004	10	..........a	-327.74
	1022	0.1705	-5.22909E-001	-5.39347E-004	0.00000E+000	-5.22000E-001	-7.29272E-004	10	..........a	-327.74
	1029	0.171667	-5.30009E-001	-5.86469E-004	0.00000E+000	-5.29000E-001	-8.29272E-004	10	..........a	-327.74
	1036	0.172833	-5.36959E-001	-6.44118E-004	0.00000E+000	-5.36000E-001	-7.29272E-004	10	..........a	-327.74
	1043	0.174	-5.44009E-001	-7.08284E-004	0.00000E+000	-5.43000E-001	-8.29272E-004	10	..........a	-327.74
	1050	0.175167	-5.50859E-001	-7.78967E-004	0.00000E+000	-5.50000E-001	-7.29272E-004	10	..........a	-327.74
	1057	0.176333	-5.58059E-001	-8.57169E-004	0.00000E+000	-5.57000E-001	-5.29272E-004	10	..........a	-327.74
	1064	0.1775	-5.65009E-001	-9.31863E-004	0.00000E+000	-5.64000E-001	-8.29272E-004	10	..........a	-327.74
	1071	0.178667	-5.71959E-001	-1.01006E-003	0.00000E+000	-5.71000E-001	-6.29272E-004	10	..........a	-327.74
	1078	0.179833	-5.78809E-001	-1.08075E-003	0.00000E+000	-5.78000E-001	-8.29272E-004	10	..........a	-327.74
	1085	0.181	-5.85909E-001	-1.13940E-003	0.00000E+000	-5.85000E-001	-7.29272E-004	10	..........a	-327.74
	1092	0.182167	-5.92859E-001	-1.19304E-003	0.00000E+000	-5.92000E-001	-7.29272E-004	10	..........a	-327.74
	1099	0.183333	-5.99859E-001	-1.23214E-003	0.00000E+000	-5.99000E-001	-9.29272E-004	10	..........a	-327.74
	1106	0.1845	-6.06959E-001	-1.26372E-003	0.00000E+000	-6.06000E-001	-6.29272E-004	10	..........a	-327.74
	1113	0.185667	-6.13909E-001	-1.27826E-003	0.00000E+000	-6.13000E-001	-9.29272E-004	10	..........a	-327.74
	1120	0.186833	-6.20959E-001	-1.28979E-003	0.00000E+000	-6.20000E-001	-7.29272E-004	10	..........a	-327.74
	1127	0.188	-6.27859E-001	-1.28879E-003	0.00000E+000	-6.27000E-001	-6.29272E-004	10	..........a	-327.74
	1134	0.189167	-6.34859E-001	-1.28127E-003	0.00000E+000	-6.34000E-001	-9.29272E-004	10	..........a	-327.74
	1141	0.190333	-6.41809E-001	-1.26974E-003	0.00000E+000	-6.41000E-001	-6.29272E-004	10	..........a	-327.74
	1148	0.1915	-6.48859E-001	-1.24868E-003	0.00000E+000	-6.48000E-001	-6.29272E-004	10	..........a	-327.74
	1155	0.192667	-6.55909E-001	-1.22913E-003	0.00000E+000	-6.55000E-001	-9.29272E-004	10	..........a	-327.74
	1162	0.193833	-6.62759E-001	-1.20657E-003	0.00000E+000	-6.62000E-001	-6.29272E-004	10	..........a	-327.74
	1169	0.195	-6.69909E-001	-1.17900E-003	0.00000E+000	-6.69000E-001	-8.29272E-004	10	..........a	-327.74
	1176	0.196167	-6.76909E-001	-1.15745E-003	0.00000E+000	-6.76000E-001	-7.29272E-004	10	..........a	-327.74
	1183	0.197333	-6.84009E-001	-1.12937E-003	0.00000E+000	-6.83000E-001	-6.29272E-004	10	..........a	-327.74
	1190	0.1985	-6.90859E-001	-1.11233E-003	0.00000E+000	-6.90000E-001	-8.29272E-004	10	..........a	-327.74
	1197	0.199667	-6.98009E-001	-1.09077E-003	0.00000E+000	-6.97000E-001	-7.29272E-004	10	..........a	-327.74
	1204	0.200833	-7.04909E-001	-1.06872E-003	0.00000E+000	-7.04000E-001	-7.29272E-004	10	..........a	-327.74
	1211	0.202	-7.11959E-001	-1.04917E-003	0.00000E+000	-7.11000E-001	-8.29272E-004	10	..........a	-327.74
	1218	0.203167	-7.18759E-001	-1.03062E-003	0.00000E+000	-7.18000E-001	-8.29272E-004	10	..........a	-327.74
	1225	0.204333	-7.25959E-001	-1.01708E-003	0.00000E+000	-7.25000E-001	-8.29272E-004	10	..........a	-327.74
	1232	0.2055	-7.32809E-001	-9.96530E-004	0.00000E+000	-7.32000E-001	-8.29272E-004	10	..........a	-327.74
	1239	0.206667	-7.39959E-001	-9.80488E-004	0.00000E+000	-7.39000E-001	-9.29272E-004	10	..........a	-327.74
	1246	0.207833	-7.46909E-001	-9.63444E-004	0.00000E+000	-7.46000E-001	-9.29272E-004	10	..........a	-327.74
	1253	0.209	-7.53909E-001	-9.48907E-004	0.00000E+000	-7.53000E-001	-8.29272E-004	10	..........a	-327.74
	1260	0.210167	-7.61009E-001	-9.35873E-004	0.00000E+000	-7.60000E-001	-8.29272E-004	10	..........a	-327.74
	1267	0.211333	-7.67959E-001	-9.21837E-004	0.00000E+000	-7.67000E-001	-8.29272E-004	10	..........a	-327.74
	1274	0.2125	-7.74809E-001	-9.03790E-004	0.00000E+000	-7.74000E-001	-8.29272E-004	10	..........a	-327.74
	1281	0.213667	-7.81859E-001	-8.93263E-004	0.00000E+000	-7.81000E-001	-8.29272E-004	10	..........a	-327.74
	1288	0.214833	-7.88959E-001	-8.85743E-004	0.00000E+000	-7.88000E-001	-8.29272E-004	10	..........a	-327.74
	1295	0.216	-7.95809E-001	-8.70704E-004	0.00000E+000	-7.95000E-001	-8.29272E-004	10	..........a	-327.74
	1302	0.217167	-8.02809E-001	-8.58172E-004	0.00000E+000	-8.02000E-001	-8.29272E-004	10	..........a	-327.74
	1309	0.218333	-8.09959E-001	-8.47143E-004	0.00000E+000	-8.09000E-001	-7.29272E-004	10	..........a	-327.74
	1316	0.2195	-8.16909E-001	-8.36616E-004	0.00000E+000	-8.16000E-001	-7.29272E-004	10	..........a	-327.74
	1323	0.220667	-8.23859E-001	-8.25588E-004	0.00000E+000	-8.23000E-001	-8.29272E-004	10	..........a	-327.74
	1330	0.221833	-8.30859E-001	-8.15562E-004	0.00000E+000	-8.30000E-001	-7.29272E-004	10	..........a	-327.74
	1337	0.223	-8.37809E-001	-8.07040E-004	0.00000E+000	-8.37000E-001	-6.29272E-004	10	..........a	-327.74
	1344	0.224167	-8.44759E-001	-7.97014E-004	0.00000E+000	-8.44000E-001	-8.29272E-004	10	..........a	-327.74
	1351	0.225333	-8.51759E-001	-7.85484E-004	0.00000E+000	-8.51000E-001	-7.29272E-004	10	..........a	-327.74
	1358	0.2265	-8.58809E-001	-7.81474E-004	0.00000E+000	-8.58000E-001	-9.29272E-004	10	..........a	-327.74
	1365	0.227667	-8.65909E-001	-7.69944E-004	0.00000E+000	-8.65000E-001	-5.29272E-004	10	..........a	-327.74
	1372	0.228833	-8.72709E-001	-7.61923E-004	0.00000E+000	-8.72000E-001	-8.29272E-004	10	..........a	-327.74
	1379	0.23	-8.79759E-001	-7.54403E-004	0.00000E+000	-8.79000E-001	-9.29272E-004	10	..........a	-327.74
	1386	0.231167	-8.86809E-001	-7.47385E-004	0.00000E+000	-8.86000E-001	-8.29272E-004	10	..........a	-327.74
	1393	0.232333	-8.93709E-001	-7.36858E-004	0.00000E+000	-8.93000E-001	-6.29272E-004	10	..........a	-327.74
	1400	0.2335	-9.00809E-001	-7.32346E-004	0.00000E+000	-9.00000E-001	-7.29272E-004	10	..........a	-327.74
	1407	0.234667	-9.07859E-001	-7.25328E-004	0.00000E+000	-9.07000E-001	-8.29272E-004	10	..........a	-327.74
	1414	0.235833	-9.14759E-001	-7.16305E-004	0.00000E+000	-9.14000E-001	-8.29272E-004	10	..........a	-327.74
	1421	0.237	-9.21709E-001	-7.10791E-004	0.00000E+000	-9.21000E-001	-7.29272E-004	10	..........a	-327.74
	1428	0.238167	-9.28709E-001	-7.03271E-004	0.00000E+000	-9.28000E-001	-8.29272E-004	10	..........a	-327.74
	1435	0.239333	-9.35759E-001	-7.01767E-004	0.00000E+000	-9.35000E-001	-7.29272E-004	10	..........a	-327.74
	1442	0.2405	-9.42709E-001	-6.95752E-004	0.00000E+000	-9.42000E-001	-9.29272E-004	10	..........a	-327.74
	1449	0.241667	-9.49709E-001	-6.85224E-004	0.00000E+000	-9.49000E-001	-9.29272E-004	10	..........a	-327.74
	1456	0.242833	-9.56859E-001	-6.84723E-004	0.00000E+000	-9.56000E-001	-6.29272E-004	10	..........a	-327.74
	1463	0.244	-9.63709E-001	-6.74697E-004	0.00000E+000	-9.63000E-001	-7.29272E-004	10	..........a	-327.74
	1470	0.245167	-9.70759E-001	-6.74697E-004	0.00000E+000	-9.70000E-001	-6.29272E-004	10	..........a	-327.74
	1477	0.246333	-9.77659E-001	-6.67178E-004	0.00000E+000	-9.77000E-001	-9.29272E-004	10	..........a	-327.74
	1484	0.2475	-9.84659E-001	-6.64170E-004	0.00000E+000	-9.84000E-001	-8.29272E-004	10	..........a	-327.74
	1491	0.248667	-9.91759E-001	-6.59658E-004	0.00000E+000	-9.91000E-001	-7.29272E-004	10	..........a	-327.74
	1498	0.249833	-9.98709E-001	-6.55648E-004	0.00000E+000	-9.98000E-001	-9.29272E-004	10	..........a	-327.74
	1505	0.251	-9.95809E-001	-5.91983E-004	0.00000E+000	-9.95000E-001	-9.29272E-004	10	..........a	-327.74
	1512	0.252167	-9.88809E-001	-5.55890E-004	0.00000E+000	-9.88000E-001	-7.29272E-004	10	..........a	-327.74
	1519	0.253333	-9.81759E-001	-5.26313E-004	0.00000E+000	-9.81000E-001	-8.29272E-004	10	..........a	-327.74
	1526	0.2545	-9.74759E-001	-5.08768E-004	0.00000E+000	-9.74000E-001	-7.29272E-004	10	..........a	-327.74
	1533	0.255667	-9.67859E-001	-4.88215E-004	0.00000E+000	-9.67000E-001	-6.29272E-004	10	..........a	-327.74
	1540	0.256833	-9.60659E-001	-4.75181E-004	0.00000E+000	-9.60000E-001	-8.29272E-004	10	..........a	-327.74
	1547	0.258	-9.53609E-001	-4.60643E-004	0.00000E+000	-9.53000E-001	-8.29272E-004	10	..........a	-327.74
	1554	0.259167	-9.46759E-001	-4.46607E-004	0.00000E+000	-9.46000E-001	-6.29272E-004	10	..........a	-327.74
	1561	0.260333	-9.39759E-001	-4.39088E-004	0.00000E+000	-9.39000E-001	-8.29272E-004	10	..........a	-327.74
	1568	0.2615	-9.32909E-001	-4.28560E-004	0.00000E+000	-9.32000E-001	-8.29272E-004	10	..........a	-327.74
	1575	0.262667	-9.25759E-001	-4.22545E-004	0.00000E+000	-9.25000E-001	-8.29272E-004	10	..........a	-327.74
	1582	0.263833	-9.18709E-001	-4.11015E-004	0.00000E+000	-9.18000E-001	-9.29272E-004	10	..........a	-327.74
	1589	0.265	-9.11659E-001	-4.02994E-004	0.00000E+000	-9.11000E-001	-6.29272E-004	10	..........a	-327.74
	1596	0.266167	-9.04959E-001	-3.98483E-004	0.00000E+000	-9.04000E-001	-7.29272E-004	10	..........a	-327.74
	1603	0.267333	-8.97759E-001	-3.88457E-004	0.00000E+000	-8.97000E-001	-7.29272E-004	10	..........a	-327.74
	1610	0.2685	-8.90809E-001	-3.84446E-004	0.00000E+000	-8.90000E-001	-8.29272E-004	10	..........a	-327.74
	1617	0.269667	-8.83809E-001	-3.80937E-004	0.00000E+000	-8.83000E-001	-9.29272E-004	10	..........a	-327.74
	1624	0.270833	-8.76809E-001	-3.70911E-004	0.00000E+000	-8.76000E-001	-5.29272E-004	10	..........a	-327.74
	1631	0.272	-8.69809E-001	-3.69909E-004	0.00000E+000	-8.69000E-001	-9.29272E-004	10	..........a	-327.74
	1638	0.273167	-8.62809E-001	-3.62389E-004	0.00000E+000	-8.62000E-001	-7.29272E-004	10	..........a	-327.74
	1645	0.274333	-8.56009E-001	-3.57878E-004	0.00000E+000	-8.55000E-001	-7.29272E-004	10	..........a	-327.74
	1652	0.2755	-8.48709E-001	-3.53867E-004	0.00000E+000	-8.48000E-001	-9.29272E-004	10	..........a	-327.74
	1659	0.276667	-8.41859E-001	-3.47852E-004	0.00000E+000	-8.41000E-001	-6.29272E-004	10	..........a	-327.74
	1666	0.277833	-8.34759E-001	-3.42337E-004	0.00000E+000	-8.34000E-001	-7.29272E-004	10	..........a	-327.74
	1673	0.279	-8.27909E-001	-3.40332E-004	0.00000E+000	-8.27000E-001	-6.29272E-004	10	..........a	-327.74
	1680	0.280167	-8.20759E-001	-3.32813E-004	0.00000E+000	-8.20000E-001	-8.29272E-004	10	..........a	-327.74
	1687	0.281333	-8.13909E-001	-3.27298E-004	0.00000E+000	-8.13000E-001	-8.29272E-004	10	..........a	-327.74
	1694	0.2825	-8.06909E-001	-3.23288E-004	0.00000E+000	-8.06000E-001	-9.29272E-004	10	..........a	-327.74
	1701	0.283667	-7.99859E-001	-3.21784E-004	0.00000E+000	-7.99000E-001	-8.29272E-004	10	..........a	-327.74
	1708	0.284833	-7.92909E-001	-3.15769E-004	0.00000E+000	-7.92000E-001	-7.29272E-004	10	..........a	-327.74
	1715	0.286	-7.85959E-001	-3.12761E-004	0.00000E+000	-7.85000E-001	-8.29272E-004	10	..........a	-327.74
	1722	0.287167	-7.78859E-001	-3.10254E-004	0.00000E+000	-7.78000E-001	-6.29272E-004	10	..........a	-327.74
	1729	0.288333	-7.71709E-001	-3.01732E-004	0.00000E+000	-7.71000E-001	-5.29272E-004	10	..........a	-327.74
	1736	0.2895	-7.65009E-001	-2.97722E-004	0.00000E+000	-7.64000E-001	-9.29272E-004	10	..........a	-327.74
	1743	0.290667	-7.57909E-001	-2.91205E-004	0.00000E+000	-7.57000E-001	-7.29272E-004	10	..........a	-327.74
	1750	0.291833	-7.50909E-001	-2.87696E-004	0.00000E+000	-7.50000E-001	-6.29272E-004	10	..........a	-327.74
	1757	0.293	-7.43959E-001	-2.82182E-004	0.00000E+000	-7.43000E-001	-8.29272E-004	10	..........a	-327.74
	1764	0.294167	-7.36909E-001	-2.78171E-004	0.00000E+000	-7.36000E-001	-6.29272E-004	10	..........a	-327.74
	1771	0.295333	-7.29909E-001	-2.74662E-004	0.00000E+000	-7.29000E-001	-7.29272E-004	10	..........a	-327.74
	1778	0.2965	-7.22809E-001	-2.69148E-004	0.00000E+000	-7.22000E-001	-7.29272E-004	10	..........a	-327.74
	1785	0.297667	-7.15909E-001	-2.65639E-004	0.00000E+000	-7.15000E-001	-8.29272E-004	10	..........a	-327.74
	1792	0.298833	-7.08809E-001	-2.56114E-004	0.00000E+000	-7.08000E-001	-8.29272E-004	10	..........a	-327.74
	1799	0.3	-7.01809E-001	-2.54109E-004	0.00000E+000	-7.01000E-001	-8.29272E-004	10	..........a	-327.74
	1806	0.301167	-6.94959E-001	-2.47091E-004	0.00000E+000	-6.94000E-001	-8.29272E-004	10	..........a	-327.74
	1813	0.302333	-6.88009E-001	-2.43081E-004	0.00000E+000	-6.87000E-001	-6.29272E-004	10	..........a	-327.74
	1820	0.3035	-6.80859E-001	-2.34057E-004	0.00000E+000	-6.80000E-001	-8.29272E-004	10	..........a	-327.74
	1827	0.304667	-6.73759E-001	-2.25034E-004	0.00000E+000	-6.73000E-001	-7.29272E-004	10	..........a	-327.74
	1834	0.305833	-6.66909E-001	-2.14005E-004	0.00000E+000	-6.66000E-001	-8.29272E-004	10	..........a	-327.74
	1841	0.307	-6.59959E-001	-2.02977E-004	0.00000E+000	-6.59000E-001	-7.29272E-004	10	..........a	-327.74
	1848	0.308167	-6.52959E-001	-1.95959E-004	0.00000E+000	-6.52000E-001	-6.29272E-004	10	..........a	-327.74
	1855	0.309333	-6.45959E-001	-1.81922E-004	0.00000E+000	-6.45000E-001	-9.29272E-004	10	..........a	-327.74
	1862	0.3105	-6.39109E-001	-1.69390E-004	0.00000E+000	-6.38000E-001	-7.29272E-004	10	..........a	-327.74
	1869	0.311667	-6.32059E-001	-1.53348E-004	0.00000E+000	-6.31000E-001	-8.29272E-004	10	..........a	-327.74
	1876	0.312833	-6.25059E-001	-1.38309E-004	0.00000E+000	-6.24000E-001	-8.29272E-004	10	..........a	-327.74
	1883	0.314	-6.17909E-001	-1.17756E-004	0.00000E+000	-6.17000E-001	-7.29272E-004	10	..........a	-327.74
	1890	0.315167	-6.11009E-001	-1.00712E-004	0.00000E+000	-6.10000E-001	-8.29272E-004	10	..........a	-327.74
	1897	0.316333	-6.03859E-001	-7.81538E-005	0.00000E+000	-6.03000E-001	-9.29272E-004	10	..........a	-327.74
	1904	0.3175	-5.96959E-001	-5.60968E-005	0.00000E+000	-5.96000E-001	-8.29272E-004	10	..........a	-327.74
	1911	0.318667	-5.90009E-001	-2.80241E-005	0.00000E+000	-5.89000E-001	-7.29272E-004	10	..........a	-327.74
	1918	0.319833	-5.83009E-001	-6.96967E-006	0.00000E+000	-5.82000E-001	-8.29272E-004	10	..........a	-327.74
	1925	0.321	-5.75959E-001	2.06017E-005	0.00000E+000	-5.75000E-001	-8.29272E-004	10	..........a	-327.74
	1932	0.322167	-5.68959E-001	4.76717E-005	0.00000E+000	-5.68000E-001	-8.29272E-004	10	..........a	-327.74
	1939	0.323333	-5.61909E-001	7.82508E-005	0.00000E+000	-5.61000E-001	-8.29272E-004	10	..........a	-327.74
	1946	0.3245	-5.55059E-001	1.01812E-004	0.00000E+000	-5.54000E-001	-8.29272E-004	10	..........a	-327.74
	1953	0.325667	-5.48009E-001	1.28882E-004	0.00000E+000	-5.47000E-001	-1.02927E-003	10	..........a	-327.74
	1960	0.326833	-5.40959E-001	1.56453E-004	0.00000E+000	-5.40000E-001	-9.29272E-004	10	..........a	-327.74
	1967	0.328	-5.33909E-001	1.85027E-004	0.00000E+000	-5.33000E-001	-9.29272E-004	10	..........a	-327.74
	1974	0.329167	-5.27009E-001	2.09591E-004	0.00000E+000	-5.26000E-001	-7.29272E-004	10	..........a	-327.74
	1981	0.330333	-5.19959E-001	2.40170E-004	0.00000E+000	-5.19000E-001	-8.29272E-004	10	..........a	-327.74
	1988	0.3315	-5.13009E-001	2.64733E-004	0.00000E+000	-5.12000E-001	-8.29272E-004	10	..........a	-327.74
	1995	0.332667	-5.05909E-001	2.95814E-004	0.00000E+000	-5.05000E-001	-8.29272E-004	10	..........a	-327.74
	2002	0.333833	-4.99009E-001	3.21881E-004	0.00000E+000	-4.98000E-001	-8.29272E-004	10	..........a	-327.74
	2009	0.335	-4.91909E-001	3.48951E-004	0.00000E+000	-4.91000E-001	-8.29272E-004	10	..........a	-327.74
	2016	0.336167	-4.84959E-001	3.71008E-004	0.00000E+000	-4.84000E-001	-8.29272E-004	10	..........a	-327.74
	2023	0.337333	-4.78009E-001	4.00585E-004	0.00000E+000	-4.77000E-001	-7.29272E-004	10	..........a	-327.74
	2030	0.3385	-4.70959E-001	4.23143E-004	0.00000E+000	-4.70000E-001	-8.29272E-004	10	..........a	-327.74
	2037	0.339667	-4.64009E-001	4.52720E-004	0.00000E+000	-4.63000E-001	-8.29272E-004	10	..........a	-327.74
	2044	0.340833	-4.57009E-001	4.66255E-004	0.00000E+000	-4.56000E-001	-8.29272E-004	10	..........a	-327.74
	2051	0.342	-4.50109E-001	4.85304E-004	0.00000E+000	-4.49000E-001	-8.29272E-004	10	..........a	-327.74
	2058	0.343167	-4.43159E-001	5.00844E-004	0.00000E+000	-4.42000E-001	-8.29272E-004	10	..........a	-327.74
	2065	0.344333	-4.36059E-001	5.08364E-004	0.00000E+000	-4.35000E-001	-8.29272E-004	10	..........a	-327.74
	2072	0.3455	-4.29059E-001	5.17888E-004	0.00000E+000	-4.28000E-001	-8.29272E-004	10	..........a	-327.74
	2079	0.346667	-4.22009E-001	5.21899E-004	0.00000E+000	-4.21000E-001	-8.29272E-004	10	..........a	-327.74
	2086	0.347833	-4.15109E-001	5.23403E-004	0.00000E+000	-4.14000E-001	-6.29272E-004	10	..........a	-327.74
	2093	0.349	-4.08009E-001	5.20395E-004	0.00000E+000	-4.07000E-001	-7.29272E-004	10	..........a	-327.74
	2100	0.350167	-4.01059E-001	5.15883E-004	0.00000E+000	-4.00000E-001	-8.29272E-004	10	..........a	-327.74
	2107	0.351333	-3.94009E-001	5.15382E-004	0.00000E+000	-3.93000E-001	-1.02927E-003	10	..........a	-327.74
	2114	0.3525	-3.87009E-001	5.06358E-004	0.00000E+000	-3.86000E-001	-8.29272E-004	10	..........a	-327.74
	2121	0.353667	-3.80109E-001	5.04855E-004	0.00000E+000	-3.79000E-001	-6.29272E-004	10	..........a	-327.74
	2128	0.354833	-3.73009E-001	4.98338E-004	0.00000E+000	-3.72000E-001	-8.29272E-004	10	..........a	-327.74
	2135	0.356	-3.66109E-001	4.96333E-004	0.00000E+000	-3.65000E-001	-7.29272E-004	10	..........a	-327.74
	2142	0.357167	-3.59059E-001	4.87309E-004	0.00000E+000	-3.58000E-001	-8.29272E-004	10	..........a	-327.74
	2149	0.358333	-3.52109E-001	4.82798E-004	0.00000E+000	-3.51000E-001	-8.29272E-004	10	..........a	-327.74
	2156	0.3595	-3.45059E-001	4.79790E-004	0.00000E+000	-3.44000E-001	-7.29272E-004	10	..........a	-327.74
	2163	0.360667	-3.38009E-001	4.76281E-004	0.00000E+000	-3.37000E-001	-8.29272E-004	10	..........a	-327.74
	2170	0.361833	-3.31009E-001	4.71769E-004	0.00000E+000	-3.30000E-001	-8.29272E-004	10	..........a	-327.74
	2177	0.363	-3.24159E-001	4.66255E-004	0.00000E+000	-3.23000E-001	-6.29272E-004	10	..........a	-327.74
	2184	0.364167	-3.17209E-001	4.62746E-004	0.00000E+000	-3.16000E-001	-8.29272E-004	10	..........a	-327.74
	2191	0.365333	-3.10259E-001	4.61743E-004	0.00000E+000	-3.09000E-001	-9.29272E-004	10	..........a	-327.74
	2198	0.3665	-3.03109E-001	4.58735E-004	0.00000E+000	-3.02000E-001	-8.29272E-004	10	..........a	-327.74
	2205	0.367667	-2.95959E-001	4.55226E-004	0.00000E+000	-2.95000E-001	-8.29272E-004	10	..........a	-327.74
	2212	0.368833	-2.89159E-001	4.56229E-004	0.00000E+000	-2.88000E-001	-8.29272E-004	10	..........a	-327.74
	2219	0.37	-2.82009E-001	4.55727E-004	0.00000E+000	-2.81000E-001	-8.29272E-004	10	..........a	-327.74
	2226	0.371167	-2.75059E-001	4.50213E-004	0.00000E+000	-2.74000E-001	-7.29272E-004	10	..........a	-327.74
	2233	0.372333	-2.68209E-001	4.48709E-004	0.00000E+000	-2.67000E-001	-8.29272E-004	10	..........a	-327.74
	2240	0.3735	-2.61109E-001	4.46203E-004	0.00000E+000	-2.60000E-001	-6.29272E-004	10	..........a	-327.74
	2247	0.374667	-2.54259E-001	4.41190E-004	0.00000E+000	-2.53000E-001	-7.29272E-004	10	..........a	-327.74
	2254	0.375833	-2.47209E-001	4.42192E-004	0.00000E+000	-2.46000E-001	-8.29272E-004	10	..........a	-327.74
	2261	0.377	-2.40209E-001	4.35174E-004	0.00000E+000	-2.39000E-001	-8.29272E-004	10	..........a	-327.74
	2268	0.378167	-2.32959E-001	4.32668E-004	0.00000E+000	-2.32000E-001	-9.29272E-004	10	..........a	-327.74
	2275	0.379333	-2.26009E-001	4.33169E-004	0.00000E+000	-2.25000E-001	-8.29272E-004	10	..........a	-327.74
	2282	0.3805	-2.19059E-001	4.28657E-004	0.00000E+000	-2.18000E-001	-7.29272E-004	10	..........a	-327.74
	2289	0.381667	-2.12159E-001	4.19634E-004	0.00000E+000	-2.11000E-001	-8.29272E-004	10	..........a	-327.74
	2296	0.382833	-2.05009E-001	4.13117E-004	0.00000E+000	-2.04000E-001	-6.29272E-004	10	..........a	-327.74
	2303	0.384	-1.97959E-001	4.14621E-004	0.00000E+000	-1.97000E-001	-8.29272E-004	10	..........a	-327.74
	2310	0.385167	-1.90959E-001	4.06099E-004	0.00000E+000	-1.90000E-001	-8.29272E-004	10	..........a	-327.74
	2317	0.386333	-1.84109E-001	4.03091E-004	0.00000E+000	-1.83000E-001	-6.29272E-004	10	..........a	-327.74
	2324	0.3875	-1.77159E-001	3.95572E-004	0.00000E+000	-1.76000E-001	-8.29272E-004	10	..........a	-327.74
	2331	0.388667	-1.70109E-001	3.95572E-004	0.00000E+000	-1.69000E-001	-9.29272E-004	10	..........a	-327.74
	2338	0.389833	-1.63209E-001	3.84543E-004	0.00000E+000	-1.62000E-001	-8.29272E-004	10	..........a	-327.74
	2345	0.391	-1.56109E-001	3.80032E-004	0.00000E+000	-1.55000E-001	-8.29272E-004	10	..........a	-327.74
	2352	0.392167	-1.48959E-001	3.73515E-004	0.00000E+000	-1.48000E-001	-6.29272E-004	10	..........a	-327.74
	2359	0.393333	-1.42109E-001	3.70507E-004	0.00000E+000	-1.41000E-001	-8.29272E-004	10	..........a	-327.74
	2366	0.3945	-1.35209E-001	3.63990E-004	0.00000E+000	-1.34000E-001	-9.29272E-004	10	..........a	-327.74
	2373	0.395667	-1.28159E-001	3.58476E-004	0.00000E+000	-1.27000E-001	-8.29272E-004	10	..........a	-327.74
	2380	0.396833	-1.21109E-001	3.55969E-004	0.00000E+000	-1.20000E-001	-7.29272E-004	10	..........a	-327.74
	2387	0.398	-1.14209E-001	3.49954E-004	0.00000E+000	-1.13000E-001	-8.29272E-004	10	..........a	-327.74
	2394	0.399167	-1.07159E-001	3.42936E-004	0.00000E+000	-1.06000E-001	-8.29272E-004	10	..........a	-327.74
	2401	0.400333	-1.00209E-001	3.41933E-004	0.00000E+000	-9.90000E-002	-8.29272E-004	10	..........a	-327.74
	2408	0.4015	-9.32090E-002	3.34414E-004	0.00000E+000	-9.20000E-002	-8.29272E-004	10	..........a	-327.74
	2415	0.402667	-8.60090E-002	3.30403E-004	0.00000E+000	-8.50000E-002	-8.29272E-004	10	..........a	-327.74
	2422	0.403833	-7.91590E-002	3.24388E-004	0.00000E+000	-7.80000E-002	-6.29272E-004	10	..........a	-327.74
	2429	0.405	-7.22090E-002	3.20377E-004	0.00000E+000	-7.10000E-002	-8.29272E-004	10	..........a	-327.74
	2436	0.406167	-6.50590E-002	3.15866E-004	0.00000E+000	-6.40000E-002	-8.29272E-004	10	..........a	-327.74
	2443	0.407333	-5.80090E-002	3.11354E-004	0.00000E+000	-5.70000E-002	-7.29272E-004	10	..........a	-327.74
	2450	0.4085	-5.11590E-002	3.09349E-004	0.00000E+000	-5.00000E-002	-9.29272E-004	10	..........a	-327.74
	2457	0.409667	-4.41090E-002	3.10853E-004	0.00000E+000	-4.30000E-002	-9.29272E-004	10	..........a	-327.74
	2464	0.410833	-3.72090E-002	3.07845E-004	0.00000E+000	-3.60000E-002	-8.29272E-004	10	..........a	-327.74
	2471	0.412	-3.00090E-002	3.02832E-004	0.00000E+000	-2.90000E-002	-8.29272E-004	10	..........a	-327.74
	2478	0.413167	-2.30590E-002	3.01328E-004	0.00000E+000	-2.20000E-002	-8.29272E-004	10	..........a	-327.74
	2485	0.414333	-1.61590E-002	3.00827E-004	0.00000E+000	-1.50000E-002	-8.29272E-004	10	..........a	-327.74
	2492	0.4155	-9.35900E-003	2.96315E-004	0.00000E+000	-8.00000E-003	-8.29272E-004	10	..........a	-327.74
	2499	0.416667	-2.15900E-003	2.93307E-004	0.00000E+000	-1.00000E-003	-8.29272E-004	10	..........a	-327.74
	2506	0.417833	4.84100E-003	2.92806E-004	0.00000E+000	5.99998E-003	-8.29272E-004	10	..........a	-327.74
	2513	0.419	1.17410E-002	2.93307E-004	0.00000E+000	1.30000E-002	-8.29272E-004	10	..........a	-327.74
	2520	0.420167	1.88410E-002	2.87793E-004	0.00000E+000	2.00000E-002	-8.29272E-004	10	..........a	-327.74
	2527	0.421333	2.58910E-002	2.90801E-004	0.00000E+000	2.70000E-002	-8.29272E-004	10	..........a	-327.74
	2534	0.4225	3.28910E-002	2.88796E-004	0.00000E+000	3.40000E-002	-8.29272E-004	10	..........a	-327.74
	2541	0.423667	3.99410E-002	2.90299E-004	0.00000E+000	4.10000E-002	-8.29272E-004	10	..........a	-327.74
	2548	0.424833	4.67910E-002	2.88294E-004	0.00000E+000	4.80000E-002	-8.29272E-004	10	..........a	-327.74
	2555	0.426	5.37410E-002	2.85286E-004	0.00000E+000	5.50000E-002	-6.29272E-004	10	..........a	-327.74
	2562	0.427167	6.07910E-002	2.86289E-004	0.00000E+000	6.20000E-002	-9.29272E-004	10	..........a	-327.74
	2569	0.428333	6.77910E-002	2.88796E-004	0.00000E+000	6.90000E-002	-8.29272E-004	10	..........a	-327.74
	2576	0.4295	7.49410E-002	2.87292E-004	0.00000E+000	7.60000E-002	-9.29272E-004	10	..........a	-327.74
	2583	0.430667	8.17410E-002	2.84284E-004	0.00000E+000	8.30000E-002	-1.02927E-003	10	..........a	-327.74
	2590	0.431833	8.88910E-002	2.87793E-004	0.00000E+000	9.00000E-002	-1.02927E-003	10	..........a	-327.74
	2597	0.433	9.57410E-002	2.87292E-004	0.00000E+000	9.70000E-002	-8.29272E-004	10	..........a	-327.74
	2604	0.434167	1.02791E-001	2.88796E-004	0.00000E+000	1.04000E-001	-9.29272E-004	10	..........a	-327.74
	2611	0.435333	1.09841E-001	2.89297E-004	0.00000E+000	1.11000E-001	-8.29272E-004	10	..........a	-327.74
	2618	0.4365	1.16641E-001	2.92305E-004	0.00000E+000	1.18000E-001	-8.29272E-004	10	..........a	-327.74
	2625	0.437667	1.23791E-001	2.90299E-004	0.00000E+000	1.25000E-001	-1.02927E-003	10	..........a	-327.74
	2632	0.438833	1.30841E-001	2.92305E-004	0.00000E+000	1.32000E-001	-8.29272E-004	10	..........a	-327.74
	2639	0.44	1.37891E-001	2.94310E-004	0.00000E+000	1.39000E-001	-8.29272E-004	10	..........a	-327.74
	2646	0.441167	1.44691E-001	2.94811E-004	0.00000E+000	1.46000E-001	-7.29272E-004	10	..........a	-327.74
	2653	0.442333	1.51791E-001	2.97819E-004	0.00000E+000	1.53000E-001	-8.29272E-004	10	..........a	-327.74
	2660	0.4435	1.58691E-001	3.01829E-004	0.00000E+000	1.60000E-001	-6.29272E-004	10	..........a	-327.74
	2667	0.444667	1.65891E-001	2.97819E-004	0.00000E+000	1.67000E-001	-8.29272E-004	10	..........a	-327.74
	2674	0.445833	1.72841E-001	2.99323E-004	0.00000E+000	1.74000E-001	-8.29272E-004	10	..........a	-327.74
	2681	0.447	1.79741E-001	3.04336E-004	0.00000E+000	1.81000E-001	-8.29272E-004	10	..........a	-327.74
	2688	0.448167	1.86841E-001	3.03333E-004	0.00000E+000	1.88000E-001	-8.29272E-004	10	..........a	-327.74
	2695	0.449333	1.93641E-001	3.01328E-004	0.00000E+000	1.95000E-001	-7.29272E-004	10	..........a	-327.74
	2702	0.4505	2.00841E-001	3.07344E-004	0.00000E+000	2.02000E-001	-8.29272E-004	10	..........a	-327.74
	2709	0.451667	2.07641E-001	3.03333E-004	0.00000E+000	2.09000E-001	-8.29272E-004	10	..........a	-327.74
	2716	0.452833	2.14791E-001	3.01829E-004	0.00000E+000	2.16000E-001	-8.29272E-004	10	..........a	-327.74
	2723	0.454	2.21791E-001	3.04336E-004	0.00000E+000	2.23000E-001	-9.29272E-004	10	..........a	-327.74
	2730	0.455167	2.28791E-001	3.04837E-004	0.00000E+000	2.30000E-001	-6.29272E-004	10	..........a	-327.74
	2737	0.456333	2.35741E-001	3.02331E-004	0.00000E+000	2.37000E-001	-7.29272E-004	10	..........a	-327.74
	2744	0.4575	2.42841E-001	3.04336E-004	0.00000E+000	2.44000E-001	-9.29272E-004	10	..........a	-327.74
	2751	0.458667	2.49841E-001	3.01328E-004	0.00000E+000	2.51000E-001	-8.29272E-004	10	..........a	-327.74
	2758	0.459833	2.56691E-001	2.98822E-004	0.00000E+000	2.58000E-001	-8.29272E-004	10	..........a	-327.74
	2765	0.461	2.63641E-001	2.95814E-004	0.00000E+000	2.65000E-001	-8.29272E-004	10	..........a	-327.74
	2772	0.462167	2.70741E-001	2.92305E-004	0.00000E+000	2.72000E-001	-8.29272E-004	10	..........a	-327.74
	2779	0.463333	2.77841E-001	2.92305E-004	0.00000E+000	2.79000E-001	-8.29272E-004	10	..........a	-327.74
	2786	0.4645	2.84691E-001	2.85788E-004	0.00000E+000	2.86000E-001	-8.29272E-004	10	..........a	-327.74
	2793	0.465667	2.91641E-001	2.83281E-004	0.00000E+000	2.93000E-001	-8.29272E-004	10	..........a	-327.74
	2800	0.466833	2.98841E-001	2.79772E-004	0.00000E+000	3.00000E-001	-8.29272E-004	10	..........a	-327.74
	2807	0.468	3.05641E-001	2.76263E-004	0.00000E+000	3.07000E-001	-8.29272E-004	10	..........a	-327.74
	2814	0.469167	3.12591E-001	2.69746E-004	0.00000E+000	3.14000E-001	-8.29272E-004	10	..........a	-327.74
	2821	0.470333	3.19791E-001	2.66237E-004	0.00000E+000	3.21000E-001	-8.29272E-004	10	..........a	-327.74
	2828	0.4715	3.26741E-001	2.67240E-004	0.00000E+000	3.28000E-001	-8.29272E-004	10	..........a	-327.74
	2835	0.472667	3.33691E-001	2.61224E-004	0.00000E+000	3.35000E-001	-8.29272E-004	10	..........a	-327.74
	2842	0.473833	3.40691E-001	2.58216E-004	0.00000E+000	3.42000E-001	-9.29272E-004	10	..........a	-327.74
	2849	0.475	3.47741E-001	2.55710E-004	0.00000E+000	3.49000E-001	-8.29272E-004	10	..........a	-327.74
	2856	0.476167	3.54691E-001	2.53203E-004	0.00000E+000	3.56000E-001	-6.29272E-004	10	..........a	-327.74
	2863	0.477333	3.61641E-001	2.48191E-004	0.00000E+000	3.63000E-001	-8.29272E-004	10	..........a	-327.74
	2870	0.4785	3.68591E-001	2.45684E-004	0.00000E+000	3.70000E-001	-8.29272E-004	10	..........a	-327.74
	2877	0.479667	3.75591E-001	2.45684E-004	0.00000E+000	3.77000E-001	-8.29272E-004	10	..........a	-327.74
	2884	0.480833	3.82791E-001	2.42175E-004	0.00000E+000	3.84000E-001	-8.29272E-004	10	..........a	-327.74
	2891	0.482	3.89791E-001	2.39668E-004	0.00000E+000	3.91000E-001	-7.29272E-004	10	..........a	-327.74
	2898	0.483167	3.96741E-001	2.37162E-004	0.00000E+000	3.98000E-001	-9.29272E-004	10	..........a	-327.74
	2905	0.484333	4.03741E-001	2.38666E-004	0.00000E+000	4.05000E-001	-6.29272E-004	10	..........a	-327.74
	2912	0.4855	4.10691E-001	2.32650E-004	0.00000E+000	4.12000E-001	-8.29272E-004	10	..........a	-327.74
	2919	0.486667	4.17641E-001	2.35157E-004	0.00000E+000	4.19000E-001	-9.29272E-004	10	..........a	-327.74
	2926	0.487833	4.24591E-001	2.27637E-004	0.00000E+000	4.26000E-001	-8.29272E-004	10	..........a	-327.74
	2933	0.489	4.31691E-001	2.31146E-004	0.00000E+000	4.33000E-001	-8.29272E-004	10	..........a	-327.74
	2940	0.490167	4.38691E-001	2.26635E-004	0.00000E+000	4.40000E-001	-7.29272E-004	10	..........a	-327.74
	2947	0.491333	4.45741E-001	2.26133E-004	0.00000E+000	4.47000E-001	-7.29272E-004	10	..........a	-327.74
	2954	0.4925	4.52791E-001	2.20619E-004	0.00000E+000	4.54000E-001	-6.29272E-004	10	..........a	-327.74
	2961	0.493667	4.59591E-001	2.23627E-004	0.00000E+000	4.61000E-001	-8.29272E-004	10	..........a	-327.74
	2968	0.494833	4.66691E-001	2.20118E-004	0.00000E+000	4.68000E-001	-8.29272E-004	10	..........a	-327.74
	2975	0.496	4.73591E-001	2.21622E-004	0.00000E+000	4.75000E-001	-8.29272E-004	10	..........a	-327.74
	2982	0.497167	4.80541E-001	2.17611E-004	0.00000E+000	4.82000E-001	-1.02927E-003	10	..........a	-327.74
	2989	0.498333	4.87591E-001	2.17611E-004	0.00000E+000	4.89000E-001	-7.29272E-004	10	..........a	-327.74
	2996	0.4995	4.94591E-001	2.11596E-004	0.00000E+000	4.96000E-001	-8.29272E-004	10	..........a	-327.74
	3000	0.500167	4.98491E-001	2.18614E-004	0.00000E+000	5.00000E-001	-7.29272E-004	10	..........a	-327.74
CURVE2	TABLE
	Pt	T	Vf	Im	Vu	Sig	Ach	IERange	Over	Temp
	#	s	V vs. Ref.	A	V	V	V	#	bits	deg C
	3001	0.500333	4.98591E-001	2.06583E-004	0.00000E+000	5.00000E-001	-8.29272E-004	10	..........a	-327.74