File: data/02-SI/Figures_S9_S11_RDE/15btmapaq-rde/1mkcl-15btmapaq-nitrogen-200mvpers.DTA
EXPLAIN
TAG	CV
TITLE	LABEL	Cyclic Voltammetry	Test &Identifier
DATE	LABEL	1/31/2023	Date
TIME	LABEL	18:17:47	Time
NOTES	NOTES	1	&Notes...

PSTAT	PSTAT	REF3000-21108	Potentiostat
VINIT	POTEN	5.00000E-001	F	Initial &E (V)
VLIMIT1	POTEN	-1.00000E+000	F	Scan Limit &1 (V)
VLIMIT2	POTEN	5.00000E-001	F	Scan Limit &2 (V)
VFINAL	POTEN	5.00000E-001	F	Final &E (V)
SCANRATE	QUANT	2.00000E+002	&Scan Rate (mV/s)
STEPSIZE	QUANT	1.00000E+000	St&ep Size (mV)
CYCLES	IQUANT	1	C&ycles (#)
IMODE	SELECTOR	1	I/E Range &Mode
IRANGE	QUANT	1.00000E+001	&Max Current (mA)
AREA	QUANT	1.00000E+000	Electrode &Area (cm^2)
ELECTRODETYPE	SELECTOR	0	Electrode Type
STRIPPING	TOGGLE	F	Used for Stripping
POLARITY	TOGGLE	F	Signal Polarity
CONDIT	TWOPARAM	F	1.50000E+001	0.00000E+000	Conditionin&g	Time(s)	E(V)
DELAY	TWOPARAM	F	5.00000E+000	0.00000E+000	Init. De&lay	Time(s)	Stab.(mV/s)
EQDELAY	QUANT	0.00000E+000	Equil. &Time (s)
IRCOMP	SELECTOR	0	IRCom&p
PFCOR	QUANT	5.00000E+001	PF Corr. (ohm)
SAMPLINGMODE	SELECTOR	1	Sampling &Mode
EOC	QUANT	0	Open Circuit (V)
PSTATMODEL	IQUANT	5	Pstat Model
PSTATSECTION	LABEL	REF3000-21108	Pstat Section
PSTATSERIALNO	LABEL	21108	Pstat Serial Number
CTRLMODE	IQUANT	1	Control Mode
ELECTROMETER	IQUANT	0	RE=0 or CS=1
IESTAB	IQUANT	2	I/E Stability
CASPEED	IQUANT	4	Control Amp Speed
CONVENTION	IQUANT	1	Current Convention
ICHRANGE	IQUANT	2	Ich Range
ICHRANGEMODE	TOGGLE	F	Ich Auto Range
ICHOFFSETENABLE	TOGGLE	F	Ich Offset Enable
ICHOFFSET	QUANT	0	Ich Offset (V)
ICHFILTER	IQUANT	2	Ich Filter
VCHRANGE	IQUANT	2	Vch Range
VCHRANGEMODE	TOGGLE	F	Vch Auto Range
VCHOFFSETENABLE	TOGGLE	F	Vch Offset Enable
VCHOFFSET	QUANT	0	Vch Offset (V)
VCHFILTER	IQUANT	2	Vch Filter
ACHRANGE	IQUANT	2	Ach Range
ACHOFFSETENABLE	TOGGLE	F	Ach Offset Enable
ACHOFFSET	QUANT	0	Ach Offset (V)
ACHFILTER	IQUANT	0	Ach Filter
IERANGELOWERLIMIT	IQUANT	2	I/E Range Lower Limit
IERANGEMODE	TOGGLE	F	I/E AutoRange
IERANGE	IQUANT	10	I/E Range
POSFEEDENABLE	TOGGLE	F	Positive Feedback IR Comp
POSFEEDRESISTANCE	QUANT	0	Positive Feedback Resistance (ohm)
ACHSELECT	IQUANT	0	Ach Select
SENSECABLEID	IQUANT	14	Sense Cable ID
PWRCABLEID	IQUANT	7	Power Cable ID
DCCALDATE	LABEL	11/9/2022	DC Calibration Date
ACCALDATE	LABEL	11/9/2022	AC Calibration Date
THERMOSELECT	IQUANT	1	Thermo Select
FRAMEWORKVERSION	LABEL	7.8.2	Framework Version
INSTRUMENTVERSION	LABEL	4.40	Instrument Version
COMPLIANCEVOLTAGE	IQUANT	0	Compliance Voltage
CURVE1	TABLE
	Pt	T	Vf	Im	Vu	Sig	Ach	IERange	Over	Temp
	#	s	V vs. Ref.	A	V	V	V	#	bits	deg C
	0	0.005	4.98828E-001	7.11216E-005	0.00000E+000	5.00000E-001	-7.02605E-004	10	..........a	-327.74
	7	0.04	4.91824E-001	5.07189E-005	0.00000E+000	4.93000E-001	-7.85939E-004	10	..........a	-327.74
	14	0.075	4.84824E-001	4.12444E-005	0.00000E+000	4.86000E-001	-7.75939E-004	10	..........a	-327.74
	21	0.11	4.77859E-001	3.54961E-005	0.00000E+000	4.79000E-001	-7.79272E-004	10	..........a	-327.74
	28	0.145	4.70833E-001	3.13688E-005	0.00000E+000	4.72000E-001	-7.75939E-004	10	..........a	-327.74
	35	0.18	4.63764E-001	2.84279E-005	0.00000E+000	4.65000E-001	-7.69272E-004	10	..........a	-327.74
	42	0.215	4.56928E-001	2.59381E-005	0.00000E+000	4.58000E-001	-7.29272E-004	10	..........a	-327.74
	49	0.25	4.49733E-001	2.38828E-005	0.00000E+000	4.51000E-001	-7.65939E-004	10	..........a	-327.74
	56	0.285	4.42864E-001	2.25794E-005	0.00000E+000	4.44000E-001	-7.72606E-004	10	..........a	-327.74
	63	0.32	4.35771E-001	2.11925E-005	0.00000E+000	4.37000E-001	-7.89272E-004	10	..........a	-327.74
	70	0.355	4.28826E-001	1.97721E-005	0.00000E+000	4.30000E-001	-7.79272E-004	10	..........a	-327.74
	77	0.39	4.21866E-001	1.88865E-005	0.00000E+000	4.23000E-001	-7.69272E-004	10	..........a	-327.74
	84	0.425	4.14843E-001	1.80176E-005	0.00000E+000	4.16000E-001	-7.45939E-004	10	..........a	-327.74
	91	0.46	4.07944E-001	1.73659E-005	0.00000E+000	4.09000E-001	-7.62605E-004	10	..........a	-327.74
	98	0.495	4.00966E-001	1.65638E-005	0.00000E+000	4.02000E-001	-7.75939E-004	10	..........a	-327.74
	105	0.53	3.93839E-001	1.57618E-005	0.00000E+000	3.95000E-001	-8.25939E-004	10	..........a	-327.74
	112	0.565	3.86873E-001	1.55111E-005	0.00000E+000	3.88000E-001	-7.82606E-004	10	..........a	-327.74
	119	0.6	3.79858E-001	1.48761E-005	0.00000E+000	3.81000E-001	-7.42605E-004	10	..........a	-327.74
	126	0.635	3.72828E-001	1.44083E-005	0.00000E+000	3.74000E-001	-7.95939E-004	10	..........a	-327.74
	133	0.67	3.65908E-001	1.42913E-005	0.00000E+000	3.67000E-001	-7.79272E-004	10	..........a	-327.74
	140	0.705	3.58843E-001	1.36062E-005	0.00000E+000	3.60000E-001	-7.62605E-004	10	..........a	-327.74
	147	0.74	3.51803E-001	1.31884E-005	0.00000E+000	3.53000E-001	-7.62605E-004	10	..........a	-327.74
	154	0.775	3.44881E-001	1.28709E-005	0.00000E+000	3.46000E-001	-7.59272E-004	10	..........a	-327.74
	161	0.81	3.37849E-001	1.24031E-005	0.00000E+000	3.39000E-001	-7.25939E-004	10	..........a	-327.74
	168	0.845	3.30873E-001	1.21691E-005	0.00000E+000	3.32000E-001	-7.52606E-004	10	..........a	-327.74
	175	0.88	3.23791E-001	1.15843E-005	0.00000E+000	3.25000E-001	-7.12606E-004	10	..........a	-327.74
	182	0.915	3.16878E-001	1.14673E-005	0.00000E+000	3.18000E-001	-7.75939E-004	10	..........a	-327.74
	189	0.95	3.09874E-001	1.12000E-005	0.00000E+000	3.11000E-001	-7.45939E-004	10	..........a	-327.74
	196	0.985	3.02879E-001	1.07822E-005	0.00000E+000	3.04000E-001	-7.59272E-004	10	..........a	-327.74
	203	1.02	2.95899E-001	1.03812E-005	0.00000E+000	2.97000E-001	-7.42605E-004	10	..........a	-327.74
	210	1.055	2.88938E-001	9.96342E-006	0.00000E+000	2.90000E-001	-7.15939E-004	10	..........a	-327.74
	217	1.09	2.81906E-001	9.91329E-006	0.00000E+000	2.83000E-001	-7.65939E-004	10	..........a	-327.74
	224	1.125	2.74919E-001	9.79632E-006	0.00000E+000	2.76000E-001	-7.39272E-004	10	..........a	-327.74
	231	1.16	2.67951E-001	9.37857E-006	0.00000E+000	2.69000E-001	-7.29272E-004	10	..........a	-327.74
	238	1.195	2.60871E-001	9.19476E-006	0.00000E+000	2.62000E-001	-7.52606E-004	10	..........a	-327.74
	245	1.23	2.53946E-001	9.21147E-006	0.00000E+000	2.55000E-001	-7.69272E-004	10	..........a	-327.74
	252	1.265	2.46978E-001	8.94412E-006	0.00000E+000	2.48000E-001	-7.19272E-004	10	..........a	-327.74
	259	1.3	2.39913E-001	8.49295E-006	0.00000E+000	2.41000E-001	-7.39272E-004	10	..........a	-327.74
	266	1.335	2.32953E-001	8.22559E-006	0.00000E+000	2.34000E-001	-7.32606E-004	10	..........a	-327.74
	273	1.37	2.25924E-001	7.75771E-006	0.00000E+000	2.27000E-001	-7.99272E-004	10	..........a	-327.74
	280	1.405	2.18973E-001	7.44022E-006	0.00000E+000	2.20000E-001	-7.72606E-004	10	..........a	-327.74
	287	1.44	2.11934E-001	7.15616E-006	0.00000E+000	2.13000E-001	-7.49272E-004	10	..........a	-327.74
	294	1.475	2.04894E-001	6.75512E-006	0.00000E+000	2.06000E-001	-7.35939E-004	10	..........a	-327.74
	301	1.51	1.97978E-001	6.45434E-006	0.00000E+000	1.99000E-001	-7.55939E-004	10	..........a	-327.74
	308	1.545	1.90921E-001	6.01988E-006	0.00000E+000	1.92000E-001	-7.39272E-004	10	..........a	-327.74
	315	1.58	1.83908E-001	5.91962E-006	0.00000E+000	1.85000E-001	-7.62605E-004	10	..........a	-327.74
	322	1.615	1.76976E-001	5.58543E-006	0.00000E+000	1.78000E-001	-7.29272E-004	10	..........a	-327.74
	329	1.65	1.69919E-001	5.13426E-006	0.00000E+000	1.71000E-001	-7.99272E-004	10	..........a	-327.74
	336	1.685	1.62918E-001	4.85019E-006	0.00000E+000	1.64000E-001	-7.39272E-004	10	..........a	-327.74
	343	1.72	1.55914E-001	4.49928E-006	0.00000E+000	1.57000E-001	-7.15939E-004	10	..........a	-327.74
	350	1.755	1.48928E-001	3.96457E-006	0.00000E+000	1.50000E-001	-7.95939E-004	10	..........a	-327.74
	357	1.79	1.41948E-001	3.98128E-006	0.00000E+000	1.43000E-001	-7.75939E-004	10	..........a	-327.74
	364	1.825	1.34926E-001	3.46327E-006	0.00000E+000	1.36000E-001	-7.62605E-004	10	..........a	-327.74
	371	1.86	1.28021E-001	2.81158E-006	0.00000E+000	1.29000E-001	-7.99272E-004	10	..........a	-327.74
	378	1.895	1.21051E-001	2.56093E-006	0.00000E+000	1.22000E-001	-7.55939E-004	10	..........a	-327.74
	385	1.93	1.14004E-001	2.24345E-006	0.00000E+000	1.15000E-001	-7.82606E-004	10	..........a	-327.74
	392	1.965	1.06994E-001	2.12648E-006	0.00000E+000	1.08000E-001	-7.12606E-004	10	..........a	-327.74
	399	2	1.00076E-001	1.65860E-006	0.00000E+000	1.01000E-001	-7.39272E-004	10	..........a	-327.74
	406	2.035	9.29794E-002	1.64189E-006	0.00000E+000	9.40000E-002	-7.72606E-004	10	..........a	-327.74
	413	2.07	8.60561E-002	1.65860E-006	0.00000E+000	8.70000E-002	-7.35939E-004	10	..........a	-327.74
	420	2.105	7.90244E-002	1.42466E-006	0.00000E+000	8.00000E-002	-7.52606E-004	10	..........a	-327.74
	427	2.14	7.20294E-002	1.10717E-006	0.00000E+000	7.30000E-002	-7.49272E-004	10	..........a	-327.74
	434	2.175	6.51127E-002	1.32440E-006	0.00000E+000	6.60000E-002	-7.59272E-004	10	..........a	-327.74
	441	2.21	5.79977E-002	9.56784E-007	0.00000E+000	5.90000E-002	-7.62605E-004	10	..........a	-327.74
	448	2.245	5.10461E-002	8.39814E-007	0.00000E+000	5.20000E-002	-7.82606E-004	10	..........a	-327.74
	455	2.28	4.41061E-002	7.39555E-007	0.00000E+000	4.50000E-002	-7.82606E-004	10	..........a	-327.74
	462	2.315	3.70061E-002	7.22845E-007	0.00000E+000	3.80000E-002	-7.95939E-004	10	..........a	-327.74
	469	2.35	3.00461E-002	4.88906E-007	0.00000E+000	3.10000E-002	-7.85939E-004	10	..........a	-327.74
	476	2.385	2.30511E-002	5.39036E-007	0.00000E+000	2.40000E-002	-8.02606E-004	10	..........a	-327.74
	483	2.42	1.60444E-002	3.38517E-007	0.00000E+000	1.70000E-002	-7.95939E-004	10	..........a	-327.74
	490	2.455	9.05106E-003	3.21808E-007	0.00000E+000	9.99999E-003	-7.52606E-004	10	..........a	-327.74
	497	2.49	2.06273E-003	2.54968E-007	0.00000E+000	2.99999E-003	-7.65939E-004	10	..........a	-327.74
	504	2.525	-4.92227E-003	4.22067E-007	0.00000E+000	-4.00001E-003	-7.75939E-004	10	..........a	-327.74
	511	2.56	-1.18706E-002	3.55227E-007	0.00000E+000	-1.10000E-002	-7.79272E-004	10	..........a	-327.74
	518	2.595	-1.89906E-002	1.21289E-007	0.00000E+000	-1.80000E-002	-7.79272E-004	10	..........a	-327.74
	525	2.63	-2.59473E-002	2.88388E-007	0.00000E+000	-2.50000E-002	-7.65939E-004	10	..........a	-327.74
	532	2.665	-3.29373E-002	2.71678E-007	0.00000E+000	-3.20000E-002	-7.75939E-004	10	..........a	-327.74
	539	2.7	-3.99706E-002	8.78689E-008	0.00000E+000	-3.90000E-002	-7.42605E-004	10	..........a	-327.74
	546	2.735	-4.69489E-002	1.04579E-007	0.00000E+000	-4.60000E-002	-7.69272E-004	10	..........a	-327.74
	553	2.77	-5.39456E-002	-1.29360E-007	0.00000E+000	-5.30000E-002	-8.09272E-004	10	..........a	-327.74
	560	2.805	-6.09239E-002	-6.25202E-008	0.00000E+000	-6.00000E-002	-7.59272E-004	10	..........a	-327.74
	567	2.84	-6.79323E-002	3.77392E-008	0.00000E+000	-6.70000E-002	-7.55939E-004	10	..........a	-327.74
	574	2.875	-7.49523E-002	4.31940E-009	0.00000E+000	-7.40000E-002	-8.02606E-004	10	..........a	-327.74
	581	2.91	-8.19323E-002	-1.12650E-007	0.00000E+000	-8.10000E-002	-7.82606E-004	10	..........a	-327.74
	588	2.945	-8.88456E-002	-1.23905E-008	0.00000E+000	-8.80000E-002	-7.65939E-004	10	..........a	-327.74
	595	2.98	-9.59689E-002	2.10292E-008	0.00000E+000	-9.50000E-002	-7.65939E-004	10	..........a	-327.74
	602	3.015	-1.02921E-001	-1.12650E-007	0.00000E+000	-1.02000E-001	-7.55939E-004	10	..........a	-327.74
	609	3.05	-1.09937E-001	-9.59400E-008	0.00000E+000	-1.09000E-001	-7.82606E-004	10	..........a	-327.74
	616	3.085	-1.16941E-001	-1.12650E-007	0.00000E+000	-1.16000E-001	-8.05939E-004	10	..........a	-327.74
	623	3.12	-1.23932E-001	2.10292E-008	0.00000E+000	-1.23000E-001	-7.99272E-004	10	..........a	-327.74
	630	3.155	-1.30909E-001	-1.23905E-008	0.00000E+000	-1.30000E-001	-8.22606E-004	10	..........a	-327.74
	637	3.19	-1.37926E-001	-3.13169E-007	0.00000E+000	-1.37000E-001	-7.59272E-004	10	..........a	-327.74
	644	3.225	-1.44934E-001	-2.12909E-007	0.00000E+000	-1.44000E-001	-7.82606E-004	10	..........a	-327.74
	651	3.26	-1.51936E-001	-2.79749E-007	0.00000E+000	-1.51000E-001	-7.92605E-004	10	..........a	-327.74
	658	3.295	-1.58907E-001	-3.46589E-007	0.00000E+000	-1.58000E-001	-8.12605E-004	10	..........a	-327.74
	665	3.33	-1.65897E-001	-5.47107E-007	0.00000E+000	-1.65000E-001	-7.82606E-004	10	..........a	-327.74
	672	3.365	-1.72904E-001	-3.80008E-007	0.00000E+000	-1.72000E-001	-7.52606E-004	10	..........a	-327.74
	679	3.4	-1.79836E-001	-6.13947E-007	0.00000E+000	-1.79000E-001	-7.72606E-004	10	..........a	-327.74
	686	3.435	-1.86929E-001	-4.13428E-007	0.00000E+000	-1.86000E-001	-7.79272E-004	10	..........a	-327.74
	693	3.47	-1.93914E-001	-5.63817E-007	0.00000E+000	-1.93000E-001	-8.12605E-004	10	..........a	-327.74
	700	3.505	-2.00922E-001	-6.47367E-007	0.00000E+000	-2.00000E-001	-7.85939E-004	10	..........a	-327.74
	707	3.54	-2.07904E-001	-1.03169E-006	0.00000E+000	-2.07000E-001	-7.55939E-004	10	..........a	-327.74
	714	3.575	-2.14911E-001	-8.14466E-007	0.00000E+000	-2.14000E-001	-7.85939E-004	10	..........a	-327.74
	721	3.61	-2.21884E-001	-1.01498E-006	0.00000E+000	-2.21000E-001	-7.45939E-004	10	..........a	-327.74
	728	3.645	-2.28881E-001	-1.28234E-006	0.00000E+000	-2.28000E-001	-7.69272E-004	10	..........a	-327.74
	735	3.68	-2.35852E-001	-1.28234E-006	0.00000E+000	-2.35000E-001	-7.79272E-004	10	..........a	-327.74
	742	3.715	-2.42841E-001	-1.51628E-006	0.00000E+000	-2.42000E-001	-7.49272E-004	10	..........a	-327.74
	749	3.75	-2.49882E-001	-1.38260E-006	0.00000E+000	-2.49000E-001	-7.62605E-004	10	..........a	-327.74
	756	3.785	-2.56847E-001	-1.81706E-006	0.00000E+000	-2.56000E-001	-7.59272E-004	10	..........a	-327.74
	763	3.82	-2.63906E-001	-1.98416E-006	0.00000E+000	-2.63000E-001	-7.29272E-004	10	..........a	-327.74
	770	3.855	-2.70829E-001	-1.93403E-006	0.00000E+000	-2.70000E-001	-7.62605E-004	10	..........a	-327.74
	777	3.89	-2.77934E-001	-2.41862E-006	0.00000E+000	-2.77000E-001	-7.45939E-004	10	..........a	-327.74
	784	3.925	-2.84854E-001	-2.60242E-006	0.00000E+000	-2.84000E-001	-7.15939E-004	10	..........a	-327.74
	791	3.96	-2.91836E-001	-2.95333E-006	0.00000E+000	-2.91000E-001	-7.35939E-004	10	..........a	-327.74
	798	3.995	-2.98862E-001	-3.00346E-006	0.00000E+000	-2.98000E-001	-7.29272E-004	10	..........a	-327.74
	805	4.03	-3.05936E-001	-3.18727E-006	0.00000E+000	-3.05000E-001	-7.42605E-004	10	..........a	-327.74
	812	4.065	-3.12887E-001	-3.65515E-006	0.00000E+000	-3.12000E-001	-7.32606E-004	10	..........a	-327.74
	819	4.1	-3.19881E-001	-3.85567E-006	0.00000E+000	-3.19000E-001	-7.39272E-004	10	..........a	-327.74
	826	4.135	-3.26864E-001	-4.40709E-006	0.00000E+000	-3.26000E-001	-7.35939E-004	10	..........a	-327.74
	833	4.17	-3.33866E-001	-4.72458E-006	0.00000E+000	-3.33000E-001	-7.19272E-004	10	..........a	-327.74
	840	4.205	-3.40829E-001	-5.32614E-006	0.00000E+000	-3.40000E-001	-7.35939E-004	10	..........a	-327.74
	847	4.24	-3.47867E-001	-5.59350E-006	0.00000E+000	-3.47000E-001	-7.15939E-004	10	..........a	-327.74
	854	4.275	-3.54851E-001	-6.41228E-006	0.00000E+000	-3.54000E-001	-7.39272E-004	10	..........a	-327.74
	861	4.31	-3.61784E-001	-6.98042E-006	0.00000E+000	-3.61000E-001	-7.12606E-004	10	..........a	-327.74
	868	4.345	-3.68754E-001	-8.11669E-006	0.00000E+000	-3.68000E-001	-7.39272E-004	10	..........a	-327.74
	875	4.38	-3.75882E-001	-9.52032E-006	0.00000E+000	-3.75000E-001	-7.49272E-004	10	..........a	-327.74
	882	4.415	-3.82846E-001	-1.05229E-005	0.00000E+000	-3.82000E-001	-7.25939E-004	10	..........a	-327.74
	889	4.45	-3.89866E-001	-1.26952E-005	0.00000E+000	-3.89000E-001	-7.29272E-004	10	..........a	-327.74
	896	4.485	-3.96812E-001	-1.47839E-005	0.00000E+000	-3.96000E-001	-7.32606E-004	10	..........a	-327.74
	903	4.52	-4.03819E-001	-1.76079E-005	0.00000E+000	-4.03000E-001	-7.79272E-004	10	..........a	-327.74
	910	4.555	-4.10806E-001	-2.09833E-005	0.00000E+000	-4.10000E-001	-6.99272E-004	10	..........a	-327.74
	917	4.59	-4.17881E-001	-2.51441E-005	0.00000E+000	-4.17000E-001	-7.15939E-004	10	..........a	-327.74
	924	4.625	-4.24812E-001	-2.95555E-005	0.00000E+000	-4.24000E-001	-7.45939E-004	10	..........a	-327.74
	931	4.66	-4.31864E-001	-3.41006E-005	0.00000E+000	-4.31000E-001	-7.22606E-004	10	..........a	-327.74
	938	4.695	-4.38811E-001	-3.90801E-005	0.00000E+000	-4.38000E-001	-7.22606E-004	10	..........a	-327.74
	945	4.73	-4.45899E-001	-4.40597E-005	0.00000E+000	-4.45000E-001	-7.69272E-004	10	..........a	-327.74
	952	4.765	-4.52801E-001	-4.93901E-005	0.00000E+000	-4.52000E-001	-7.59272E-004	10	..........a	-327.74
	959	4.8	-4.59811E-001	-5.45702E-005	0.00000E+000	-4.59000E-001	-7.29272E-004	10	..........a	-327.74
	966	4.835	-4.66796E-001	-6.01346E-005	0.00000E+000	-4.66000E-001	-7.55939E-004	10	..........a	-327.74
	973	4.87	-4.73841E-001	-6.54818E-005	0.00000E+000	-4.73000E-001	-7.62605E-004	10	..........a	-327.74
	980	4.905	-4.80777E-001	-7.15976E-005	0.00000E+000	-4.80000E-001	-7.32606E-004	10	..........a	-327.74
	987	4.94	-4.87831E-001	-7.79975E-005	0.00000E+000	-4.87000E-001	-7.25939E-004	10	..........a	-327.74
	994	4.975	-4.94862E-001	-8.48987E-005	0.00000E+000	-4.94000E-001	-7.29272E-004	10	..........a	-327.74
	1001	5.01	-5.01829E-001	-9.34542E-005	0.00000E+000	-5.01000E-001	-7.59272E-004	10	..........a	-327.74
	1008	5.045	-5.08787E-001	-1.02594E-004	0.00000E+000	-5.08000E-001	-7.05939E-004	10	..........a	-327.74
	1015	5.08	-5.15789E-001	-1.13189E-004	0.00000E+000	-5.15000E-001	-7.65939E-004	10	..........a	-327.74
	1022	5.115	-5.22749E-001	-1.25637E-004	0.00000E+000	-5.22000E-001	-7.75939E-004	10	..........a	-327.74
	1029	5.15	-5.29819E-001	-1.39055E-004	0.00000E+000	-5.29000E-001	-7.55939E-004	10	..........a	-327.74
	1036	5.185	-5.36762E-001	-1.53660E-004	0.00000E+000	-5.36000E-001	-7.12606E-004	10	..........a	-327.74
	1043	5.22	-5.43899E-001	-1.67830E-004	0.00000E+000	-5.43000E-001	-7.35939E-004	10	..........a	-327.74
	1050	5.255	-5.50769E-001	-1.82000E-004	0.00000E+000	-5.50000E-001	-7.62605E-004	10	..........a	-327.74
	1057	5.29	-5.57837E-001	-1.94633E-004	0.00000E+000	-5.57000E-001	-7.52606E-004	10	..........a	-327.74
	1064	5.325	-5.64766E-001	-2.05177E-004	0.00000E+000	-5.64000E-001	-7.49272E-004	10	..........a	-327.74
	1071	5.36	-5.71804E-001	-2.13097E-004	0.00000E+000	-5.71000E-001	-7.39272E-004	10	..........a	-327.74
	1078	5.395	-5.78767E-001	-2.18177E-004	0.00000E+000	-5.78000E-001	-7.69272E-004	10	..........a	-327.74
	1085	5.43	-5.85844E-001	-2.20667E-004	0.00000E+000	-5.85000E-001	-7.89272E-004	10	..........a	-327.74
	1092	5.465	-5.92742E-001	-2.20182E-004	0.00000E+000	-5.92000E-001	-7.32606E-004	10	..........a	-327.74
	1099	5.5	-5.99877E-001	-2.18361E-004	0.00000E+000	-5.99000E-001	-7.32606E-004	10	..........a	-327.74
	1106	5.535	-6.06764E-001	-2.13749E-004	0.00000E+000	-6.06000E-001	-7.55939E-004	10	..........a	-327.74
	1113	5.57	-6.13731E-001	-2.08335E-004	0.00000E+000	-6.13000E-001	-7.32606E-004	10	..........a	-327.74
	1120	5.605	-6.20752E-001	-2.02369E-004	0.00000E+000	-6.20000E-001	-7.65939E-004	10	..........a	-327.74
	1127	5.64	-6.27744E-001	-1.96253E-004	0.00000E+000	-6.27000E-001	-7.89272E-004	10	..........a	-327.74
	1134	5.675	-6.34727E-001	-1.90238E-004	0.00000E+000	-6.34000E-001	-7.62605E-004	10	..........a	-327.74
	1141	5.71	-6.41714E-001	-1.83955E-004	0.00000E+000	-6.41000E-001	-7.72606E-004	10	..........a	-327.74
	1148	5.745	-6.48702E-001	-1.78223E-004	0.00000E+000	-6.48000E-001	-7.32606E-004	10	..........a	-327.74
	1155	5.78	-6.55739E-001	-1.73712E-004	0.00000E+000	-6.55000E-001	-7.65939E-004	10	..........a	-327.74
	1162	5.815	-6.62724E-001	-1.68431E-004	0.00000E+000	-6.62000E-001	-7.52606E-004	10	..........a	-327.74
	1169	5.85	-6.69806E-001	-1.63920E-004	0.00000E+000	-6.69000E-001	-6.89272E-004	10	..........a	-327.74
	1176	5.885	-6.76749E-001	-1.59575E-004	0.00000E+000	-6.76000E-001	-7.52606E-004	10	..........a	-327.74
	1183	5.92	-6.83701E-001	-1.55364E-004	0.00000E+000	-6.83000E-001	-7.59272E-004	10	..........a	-327.74
	1190	5.955	-6.90707E-001	-1.51755E-004	0.00000E+000	-6.90000E-001	-7.25939E-004	10	..........a	-327.74
	1197	5.99	-6.97757E-001	-1.48898E-004	0.00000E+000	-6.97000E-001	-7.42605E-004	10	..........a	-327.74
	1204	6.025	-7.04682E-001	-1.45288E-004	0.00000E+000	-7.04000E-001	-7.45939E-004	10	..........a	-327.74
	1211	6.06	-7.11716E-001	-1.42397E-004	0.00000E+000	-7.11000E-001	-7.62605E-004	10	..........a	-327.74
	1218	6.095	-7.18734E-001	-1.39657E-004	0.00000E+000	-7.18000E-001	-7.52606E-004	10	..........a	-327.74
	1225	6.13	-7.25736E-001	-1.37351E-004	0.00000E+000	-7.25000E-001	-7.29272E-004	10	..........a	-327.74
	1232	6.165	-7.32727E-001	-1.34845E-004	0.00000E+000	-7.32000E-001	-7.42605E-004	10	..........a	-327.74
	1239	6.2	-7.39702E-001	-1.32756E-004	0.00000E+000	-7.39000E-001	-7.35939E-004	10	..........a	-327.74
	1246	6.235	-7.46706E-001	-1.29865E-004	0.00000E+000	-7.46000E-001	-7.65939E-004	10	..........a	-327.74
	1253	6.27	-7.53674E-001	-1.27943E-004	0.00000E+000	-7.53000E-001	-7.39272E-004	10	..........a	-327.74
	1260	6.305	-7.60661E-001	-1.25938E-004	0.00000E+000	-7.60000E-001	-7.65939E-004	10	..........a	-327.74
	1267	6.34	-7.67717E-001	-1.24083E-004	0.00000E+000	-7.67000E-001	-7.59272E-004	10	..........a	-327.74
	1274	6.375	-7.74719E-001	-1.22212E-004	0.00000E+000	-7.74000E-001	-7.35939E-004	10	..........a	-327.74
	1281	6.41	-7.81654E-001	-1.20507E-004	0.00000E+000	-7.81000E-001	-7.32606E-004	10	..........a	-327.74
	1288	6.445	-7.88726E-001	-1.18937E-004	0.00000E+000	-7.88000E-001	-7.32606E-004	10	..........a	-327.74
	1295	6.48	-7.95654E-001	-1.17767E-004	0.00000E+000	-7.95000E-001	-7.29272E-004	10	..........a	-327.74
	1302	6.515	-8.02731E-001	-1.15762E-004	0.00000E+000	-8.02000E-001	-7.02605E-004	10	..........a	-327.74
	1309	6.55	-8.09642E-001	-1.14291E-004	0.00000E+000	-8.09000E-001	-7.09272E-004	10	..........a	-327.74
	1316	6.585	-8.16637E-001	-1.12921E-004	0.00000E+000	-8.16000E-001	-7.19272E-004	10	..........a	-327.74
	1323	6.62	-8.23591E-001	-1.11685E-004	0.00000E+000	-8.23000E-001	-7.49272E-004	10	..........a	-327.74
	1330	6.655	-8.30584E-001	-1.10548E-004	0.00000E+000	-8.30000E-001	-7.29272E-004	10	..........a	-327.74
	1337	6.69	-8.37631E-001	-1.09379E-004	0.00000E+000	-8.37000E-001	-7.59272E-004	10	..........a	-327.74
	1344	6.725	-8.44656E-001	-1.08042E-004	0.00000E+000	-8.44000E-001	-7.59272E-004	10	..........a	-327.74
	1351	6.76	-8.51582E-001	-1.06705E-004	0.00000E+000	-8.51000E-001	-7.62605E-004	10	..........a	-327.74
	1358	6.795	-8.58641E-001	-1.05970E-004	0.00000E+000	-8.58000E-001	-7.52606E-004	10	..........a	-327.74
	1365	6.83	-8.65616E-001	-1.04900E-004	0.00000E+000	-8.65000E-001	-7.15939E-004	10	..........a	-327.74
	1372	6.865	-8.72584E-001	-1.03614E-004	0.00000E+000	-8.72000E-001	-7.05939E-004	10	..........a	-327.74
	1379	6.9	-8.79666E-001	-1.02945E-004	0.00000E+000	-8.79000E-001	-7.29272E-004	10	..........a	-327.74
	1386	6.935	-8.86592E-001	-1.02110E-004	0.00000E+000	-8.86000E-001	-7.19272E-004	10	..........a	-327.74
	1393	6.97	-8.93589E-001	-1.01308E-004	0.00000E+000	-8.93000E-001	-7.02605E-004	10	..........a	-327.74
	1400	7.005	-9.00684E-001	-1.00188E-004	0.00000E+000	-9.00000E-001	-7.09272E-004	10	..........a	-327.74
	1407	7.04	-9.07591E-001	-9.94196E-005	0.00000E+000	-9.07000E-001	-7.29272E-004	10	..........a	-327.74
	1414	7.075	-9.14627E-001	-9.84337E-005	0.00000E+000	-9.14000E-001	-6.92606E-004	10	..........a	-327.74
	1421	7.11	-9.21579E-001	-9.77653E-005	0.00000E+000	-9.21000E-001	-7.49272E-004	10	..........a	-327.74
	1428	7.145	-9.28577E-001	-9.67627E-005	0.00000E+000	-9.28000E-001	-7.49272E-004	10	..........a	-327.74
	1435	7.18	-9.35581E-001	-9.64118E-005	0.00000E+000	-9.35000E-001	-7.75939E-004	10	..........a	-327.74
	1442	7.215	-9.42576E-001	-9.54259E-005	0.00000E+000	-9.42000E-001	-7.39272E-004	10	..........a	-327.74
	1449	7.25	-9.49492E-001	-9.49413E-005	0.00000E+000	-9.49000E-001	-7.35939E-004	10	..........a	-327.74
	1456	7.285	-9.56552E-001	-9.44902E-005	0.00000E+000	-9.56000E-001	-7.52606E-004	10	..........a	-327.74
	1463	7.32	-9.63572E-001	-9.37215E-005	0.00000E+000	-9.63000E-001	-7.49272E-004	10	..........a	-327.74
	1470	7.355	-9.70639E-001	-9.29361E-005	0.00000E+000	-9.70000E-001	-7.25939E-004	10	..........a	-327.74
	1477	7.39	-9.77586E-001	-9.25184E-005	0.00000E+000	-9.77000E-001	-8.09272E-004	10	..........a	-327.74
	1484	7.425	-9.84569E-001	-9.14824E-005	0.00000E+000	-9.84000E-001	-7.22606E-004	10	..........a	-327.74
	1491	7.46	-9.91601E-001	-9.12986E-005	0.00000E+000	-9.91000E-001	-7.52606E-004	10	..........a	-327.74
	1498	7.495	-9.98611E-001	-9.07304E-005	0.00000E+000	-9.98000E-001	-7.69272E-004	10	..........a	-327.74
	1505	7.53	-9.95564E-001	-8.74386E-005	0.00000E+000	-9.95000E-001	-7.65939E-004	10	..........a	-327.74
	1512	7.565	-9.88616E-001	-8.56840E-005	0.00000E+000	-9.88000E-001	-7.29272E-004	10	..........a	-327.74
	1519	7.6	-9.81597E-001	-8.40131E-005	0.00000E+000	-9.81000E-001	-7.29272E-004	10	..........a	-327.74
	1526	7.635	-9.74617E-001	-8.24089E-005	0.00000E+000	-9.74000E-001	-7.35939E-004	10	..........a	-327.74
	1533	7.67	-9.67586E-001	-8.11891E-005	0.00000E+000	-9.67000E-001	-7.72606E-004	10	..........a	-327.74
	1540	7.705	-9.60567E-001	-8.02032E-005	0.00000E+000	-9.60000E-001	-7.65939E-004	10	..........a	-327.74
	1547	7.74	-9.53561E-001	-7.91839E-005	0.00000E+000	-9.53000E-001	-7.45939E-004	10	..........a	-327.74
	1554	7.775	-9.46567E-001	-7.84152E-005	0.00000E+000	-9.46000E-001	-7.45939E-004	10	..........a	-327.74
	1561	7.81	-9.39586E-001	-7.76633E-005	0.00000E+000	-9.39000E-001	-7.52606E-004	10	..........a	-327.74
	1568	7.845	-9.32631E-001	-7.68278E-005	0.00000E+000	-9.32000E-001	-7.45939E-004	10	..........a	-327.74
	1575	7.88	-9.25552E-001	-7.59756E-005	0.00000E+000	-9.25000E-001	-7.59272E-004	10	..........a	-327.74
	1582	7.915	-9.18704E-001	-7.53573E-005	0.00000E+000	-9.18000E-001	-7.62605E-004	10	..........a	-327.74
	1589	7.95	-9.11589E-001	-7.46388E-005	0.00000E+000	-9.11000E-001	-7.72606E-004	10	..........a	-327.74
	1596	7.985	-9.04567E-001	-7.41041E-005	0.00000E+000	-9.04000E-001	-7.75939E-004	10	..........a	-327.74
	1603	8.02	-8.97586E-001	-7.31683E-005	0.00000E+000	-8.97000E-001	-7.65939E-004	10	..........a	-327.74
	1610	8.055	-8.90599E-001	-7.25166E-005	0.00000E+000	-8.90000E-001	-6.92606E-004	10	..........a	-327.74
	1617	8.09	-8.83594E-001	-7.17814E-005	0.00000E+000	-8.83000E-001	-7.09272E-004	10	..........a	-327.74
	1624	8.125	-8.76706E-001	-7.15140E-005	0.00000E+000	-8.76000E-001	-6.99272E-004	10	..........a	-327.74
	1631	8.16	-8.69556E-001	-7.09626E-005	0.00000E+000	-8.69000E-001	-7.29272E-004	10	..........a	-327.74
	1638	8.195	-8.62621E-001	-7.02107E-005	0.00000E+000	-8.62000E-001	-7.25939E-004	10	..........a	-327.74
	1645	8.23	-8.55624E-001	-6.99935E-005	0.00000E+000	-8.55000E-001	-7.49272E-004	10	..........a	-327.74
	1652	8.265	-8.48641E-001	-6.93752E-005	0.00000E+000	-8.48000E-001	-7.79272E-004	10	..........a	-327.74
	1659	8.3	-8.41637E-001	-6.87903E-005	0.00000E+000	-8.41000E-001	-7.62605E-004	10	..........a	-327.74
	1666	8.335	-8.34652E-001	-6.80050E-005	0.00000E+000	-8.34000E-001	-7.55939E-004	10	..........a	-327.74
	1673	8.37	-8.27651E-001	-6.77209E-005	0.00000E+000	-8.27000E-001	-7.22606E-004	10	..........a	-327.74
	1680	8.405	-8.20647E-001	-6.73533E-005	0.00000E+000	-8.20000E-001	-7.59272E-004	10	..........a	-327.74
	1687	8.44	-8.13694E-001	-6.68186E-005	0.00000E+000	-8.13000E-001	-7.05939E-004	10	..........a	-327.74
	1694	8.475	-8.06704E-001	-6.62504E-005	0.00000E+000	-8.06000E-001	-7.22606E-004	10	..........a	-327.74
	1701	8.51	-7.99649E-001	-6.58995E-005	0.00000E+000	-7.99000E-001	-7.12606E-004	10	..........a	-327.74
	1708	8.545	-7.92656E-001	-6.53648E-005	0.00000E+000	-7.92000E-001	-7.49272E-004	10	..........a	-327.74
	1715	8.58	-7.85716E-001	-6.46797E-005	0.00000E+000	-7.85000E-001	-7.32606E-004	10	..........a	-327.74
	1722	8.615	-7.78661E-001	-6.44123E-005	0.00000E+000	-7.78000E-001	-7.39272E-004	10	..........a	-327.74
	1729	8.65	-7.71684E-001	-6.38275E-005	0.00000E+000	-7.71000E-001	-7.79272E-004	10	..........a	-327.74
	1736	8.685	-7.64729E-001	-6.35434E-005	0.00000E+000	-7.64000E-001	-7.52606E-004	10	..........a	-327.74
	1743	8.72	-7.57649E-001	-6.28416E-005	0.00000E+000	-7.57000E-001	-6.99272E-004	10	..........a	-327.74
	1750	8.755	-7.50687E-001	-6.23069E-005	0.00000E+000	-7.50000E-001	-7.29272E-004	10	..........a	-327.74
	1757	8.79	-7.43679E-001	-6.20395E-005	0.00000E+000	-7.43000E-001	-7.52606E-004	10	..........a	-327.74
	1764	8.825	-7.36674E-001	-6.14714E-005	0.00000E+000	-7.36000E-001	-7.65939E-004	10	..........a	-327.74
	1771	8.86	-7.29724E-001	-6.09033E-005	0.00000E+000	-7.29000E-001	-7.82606E-004	10	..........a	-327.74
	1778	8.895	-7.22732E-001	-6.03686E-005	0.00000E+000	-7.22000E-001	-7.22606E-004	10	..........a	-327.74
	1785	8.93	-7.15699E-001	-5.98171E-005	0.00000E+000	-7.15000E-001	-7.22606E-004	10	..........a	-327.74
	1792	8.965	-7.08751E-001	-5.92490E-005	0.00000E+000	-7.08000E-001	-7.29272E-004	10	..........a	-327.74
	1799	9	-7.01807E-001	-5.88647E-005	0.00000E+000	-7.01000E-001	-7.42605E-004	10	..........a	-327.74
	1806	9.035	-6.94721E-001	-5.81628E-005	0.00000E+000	-6.94000E-001	-7.19272E-004	10	..........a	-327.74
	1813	9.07	-6.87762E-001	-5.76114E-005	0.00000E+000	-6.87000E-001	-7.75939E-004	10	..........a	-327.74
	1820	9.105	-6.80701E-001	-5.67091E-005	0.00000E+000	-6.80000E-001	-7.62605E-004	10	..........a	-327.74
	1827	9.14	-6.73699E-001	-5.59738E-005	0.00000E+000	-6.73000E-001	-7.25939E-004	10	..........a	-327.74
	1834	9.175	-6.66714E-001	-5.50715E-005	0.00000E+000	-6.66000E-001	-7.42605E-004	10	..........a	-327.74
	1841	9.21	-6.59716E-001	-5.41023E-005	0.00000E+000	-6.59000E-001	-7.02605E-004	10	..........a	-327.74
	1848	9.245	-6.52732E-001	-5.33337E-005	0.00000E+000	-6.52000E-001	-6.99272E-004	10	..........a	-327.74
	1855	9.28	-6.45786E-001	-5.20136E-005	0.00000E+000	-6.45000E-001	-7.49272E-004	10	..........a	-327.74
	1862	9.315	-6.38741E-001	-5.07102E-005	0.00000E+000	-6.38000E-001	-7.29272E-004	10	..........a	-327.74
	1869	9.35	-6.31767E-001	-4.88721E-005	0.00000E+000	-6.31000E-001	-7.75939E-004	10	..........a	-327.74
	1876	9.385	-6.24666E-001	-4.69505E-005	0.00000E+000	-6.24000E-001	-7.65939E-004	10	..........a	-327.74
	1883	9.42	-6.17789E-001	-4.48451E-005	0.00000E+000	-6.17000E-001	-7.69272E-004	10	..........a	-327.74
	1890	9.455	-6.10752E-001	-4.16535E-005	0.00000E+000	-6.10000E-001	-7.45939E-004	10	..........a	-327.74
	1897	9.49	-6.03761E-001	-3.86123E-005	0.00000E+000	-6.03000E-001	-7.19272E-004	10	..........a	-327.74
	1904	9.525	-5.96796E-001	-3.44682E-005	0.00000E+000	-5.96000E-001	-7.09272E-004	10	..........a	-327.74
	1911	9.56	-5.89722E-001	-2.97560E-005	0.00000E+000	-5.89000E-001	-7.42605E-004	10	..........a	-327.74
	1918	9.595	-5.82774E-001	-2.35901E-005	0.00000E+000	-5.82000E-001	-7.32606E-004	10	..........a	-327.74
	1925	9.63	-5.75781E-001	-1.67223E-005	0.00000E+000	-5.75000E-001	-7.42605E-004	10	..........a	-327.74
	1932	9.665	-5.68714E-001	-8.88535E-006	0.00000E+000	-5.68000E-001	-7.25939E-004	10	..........a	-327.74
	1939	9.7	-5.61777E-001	3.05098E-007	0.00000E+000	-5.61000E-001	-7.69272E-004	10	..........a	-327.74
	1946	9.735	-5.54767E-001	9.94671E-006	0.00000E+000	-5.54000E-001	-7.29272E-004	10	..........a	-327.74
	1953	9.77	-5.47796E-001	2.06243E-005	0.00000E+000	-5.47000E-001	-7.62605E-004	10	..........a	-327.74
	1960	9.805	-5.40767E-001	3.13187E-005	0.00000E+000	-5.40000E-001	-7.82606E-004	10	..........a	-327.74
	1967	9.84	-5.33747E-001	4.19629E-005	0.00000E+000	-5.33000E-001	-7.02605E-004	10	..........a	-327.74
	1974	9.875	-5.26787E-001	5.26572E-005	0.00000E+000	-5.26000E-001	-7.55939E-004	10	..........a	-327.74
	1981	9.91	-5.19831E-001	6.26664E-005	0.00000E+000	-5.19000E-001	-7.59272E-004	10	..........a	-327.74
	1988	9.945	-5.12759E-001	7.22412E-005	0.00000E+000	-5.12000E-001	-7.25939E-004	10	..........a	-327.74
	1995	9.98	-5.05821E-001	8.06463E-005	0.00000E+000	-5.05000E-001	-7.72606E-004	10	..........a	-327.74
	2002	10.015	-4.98821E-001	8.89678E-005	0.00000E+000	-4.98000E-001	-7.19272E-004	10	..........a	-327.74
	2009	10.05	-4.91777E-001	9.59359E-005	0.00000E+000	-4.91000E-001	-7.72606E-004	10	..........a	-327.74
	2016	10.085	-4.84872E-001	1.02202E-004	0.00000E+000	-4.84000E-001	-7.62605E-004	10	..........a	-327.74
	2023	10.12	-4.77824E-001	1.07081E-004	0.00000E+000	-4.77000E-001	-7.42605E-004	10	..........a	-327.74
	2030	10.155	-4.70791E-001	1.12161E-004	0.00000E+000	-4.70000E-001	-7.42605E-004	10	..........a	-327.74
	2037	10.19	-4.63861E-001	1.14785E-004	0.00000E+000	-4.63000E-001	-7.52606E-004	10	..........a	-327.74
	2044	10.225	-4.56821E-001	1.17375E-004	0.00000E+000	-4.56000E-001	-7.12606E-004	10	..........a	-327.74
	2051	10.26	-4.49871E-001	1.18093E-004	0.00000E+000	-4.49000E-001	-7.49272E-004	10	..........a	-327.74
	2058	10.295	-4.42814E-001	1.17943E-004	0.00000E+000	-4.42000E-001	-7.65939E-004	10	..........a	-327.74
	2065	10.33	-4.35827E-001	1.17241E-004	0.00000E+000	-4.35000E-001	-7.25939E-004	10	..........a	-327.74
	2072	10.365	-4.28834E-001	1.14835E-004	0.00000E+000	-4.28000E-001	-7.49272E-004	10	..........a	-327.74
	2079	10.4	-4.21749E-001	1.12880E-004	0.00000E+000	-4.21000E-001	-8.19272E-004	10	..........a	-327.74
	2086	10.435	-4.14814E-001	1.10507E-004	0.00000E+000	-4.14000E-001	-7.62605E-004	10	..........a	-327.74
	2093	10.47	-4.07886E-001	1.07131E-004	0.00000E+000	-4.07000E-001	-7.42605E-004	10	..........a	-327.74
	2100	10.505	-4.00841E-001	1.04775E-004	0.00000E+000	-4.00000E-001	-7.32606E-004	10	..........a	-327.74
	2107	10.54	-3.93911E-001	1.01885E-004	0.00000E+000	-3.93000E-001	-7.29272E-004	10	..........a	-327.74
	2114	10.575	-3.86839E-001	9.89269E-005	0.00000E+000	-3.86000E-001	-7.39272E-004	10	..........a	-327.74
	2121	10.61	-3.79822E-001	9.65040E-005	0.00000E+000	-3.79000E-001	-7.99272E-004	10	..........a	-327.74
	2128	10.645	-3.72832E-001	9.39140E-005	0.00000E+000	-3.72000E-001	-7.02605E-004	10	..........a	-327.74
	2135	10.68	-3.65847E-001	9.10399E-005	0.00000E+000	-3.65000E-001	-7.45939E-004	10	..........a	-327.74
	2142	10.715	-3.58819E-001	8.93689E-005	0.00000E+000	-3.58000E-001	-7.65939E-004	10	..........a	-327.74
	2149	10.75	-3.51876E-001	8.70963E-005	0.00000E+000	-3.51000E-001	-7.55939E-004	10	..........a	-327.74
	2156	10.785	-3.44899E-001	8.52081E-005	0.00000E+000	-3.44000E-001	-7.19272E-004	10	..........a	-327.74
	2163	10.82	-3.37857E-001	8.27517E-005	0.00000E+000	-3.37000E-001	-7.62605E-004	10	..........a	-327.74
	2170	10.855	-3.30934E-001	8.14484E-005	0.00000E+000	-3.30000E-001	-7.92605E-004	10	..........a	-327.74
	2177	10.89	-3.23849E-001	7.99278E-005	0.00000E+000	-3.23000E-001	-7.02605E-004	10	..........a	-327.74
	2184	10.925	-3.16896E-001	7.87414E-005	0.00000E+000	-3.16000E-001	-7.99272E-004	10	..........a	-327.74
	2191	10.96	-3.09921E-001	7.71873E-005	0.00000E+000	-3.09000E-001	-7.62605E-004	10	..........a	-327.74
	2198	10.995	-3.02867E-001	7.54997E-005	0.00000E+000	-3.02000E-001	-7.59272E-004	10	..........a	-327.74
	2205	11.03	-2.95884E-001	7.44803E-005	0.00000E+000	-2.95000E-001	-7.52606E-004	10	..........a	-327.74
	2212	11.065	-2.88774E-001	7.33274E-005	0.00000E+000	-2.88000E-001	-7.15939E-004	10	..........a	-327.74
	2219	11.1	-2.81847E-001	7.21911E-005	0.00000E+000	-2.81000E-001	-7.49272E-004	10	..........a	-327.74
	2226	11.135	-2.74904E-001	7.10715E-005	0.00000E+000	-2.74000E-001	-7.59272E-004	10	..........a	-327.74
	2233	11.17	-2.67826E-001	6.99520E-005	0.00000E+000	-2.67000E-001	-7.62605E-004	10	..........a	-327.74
	2240	11.205	-2.60944E-001	6.86486E-005	0.00000E+000	-2.60000E-001	-7.55939E-004	10	..........a	-327.74
	2247	11.24	-2.53917E-001	6.73953E-005	0.00000E+000	-2.53000E-001	-7.55939E-004	10	..........a	-327.74
	2254	11.275	-2.46849E-001	6.64095E-005	0.00000E+000	-2.46000E-001	-7.65939E-004	10	..........a	-327.74
	2261	11.31	-2.39931E-001	6.53233E-005	0.00000E+000	-2.39000E-001	-8.09272E-004	10	..........a	-327.74
	2268	11.345	-2.32836E-001	6.43207E-005	0.00000E+000	-2.32000E-001	-7.85939E-004	10	..........a	-327.74
	2275	11.38	-2.25914E-001	6.29672E-005	0.00000E+000	-2.25000E-001	-7.65939E-004	10	..........a	-327.74
	2282	11.415	-2.18871E-001	6.18644E-005	0.00000E+000	-2.18000E-001	-7.55939E-004	10	..........a	-327.74
	2289	11.45	-2.11857E-001	6.07949E-005	0.00000E+000	-2.11000E-001	-7.62605E-004	10	..........a	-327.74
	2296	11.485	-2.04916E-001	5.94916E-005	0.00000E+000	-2.04000E-001	-7.22606E-004	10	..........a	-327.74
	2303	11.52	-1.97921E-001	5.83720E-005	0.00000E+000	-1.97000E-001	-7.35939E-004	10	..........a	-327.74
	2310	11.555	-1.90887E-001	5.75365E-005	0.00000E+000	-1.90000E-001	-7.52606E-004	10	..........a	-327.74
	2317	11.59	-1.83961E-001	5.64337E-005	0.00000E+000	-1.83000E-001	-7.52606E-004	10	..........a	-327.74
	2324	11.625	-1.76942E-001	5.56483E-005	0.00000E+000	-1.76000E-001	-7.52606E-004	10	..........a	-327.74
	2331	11.66	-1.69929E-001	5.46624E-005	0.00000E+000	-1.69000E-001	-7.62605E-004	10	..........a	-327.74
	2338	11.695	-1.63042E-001	5.37601E-005	0.00000E+000	-1.62000E-001	-7.59272E-004	10	..........a	-327.74
	2345	11.73	-1.55887E-001	5.29413E-005	0.00000E+000	-1.55000E-001	-7.32606E-004	10	..........a	-327.74
	2352	11.765	-1.48979E-001	5.17716E-005	0.00000E+000	-1.48000E-001	-7.59272E-004	10	..........a	-327.74
	2359	11.8	-1.41937E-001	5.11700E-005	0.00000E+000	-1.41000E-001	-7.59272E-004	10	..........a	-327.74
	2366	11.835	-1.34877E-001	5.01674E-005	0.00000E+000	-1.34000E-001	-7.79272E-004	10	..........a	-327.74
	2373	11.87	-1.27936E-001	4.95826E-005	0.00000E+000	-1.27000E-001	-7.95939E-004	10	..........a	-327.74
	2380	11.905	-1.20916E-001	4.90312E-005	0.00000E+000	-1.20000E-001	-7.72606E-004	10	..........a	-327.74
	2387	11.94	-1.13952E-001	4.82458E-005	0.00000E+000	-1.13000E-001	-7.62605E-004	10	..........a	-327.74
	2394	11.975	-1.06969E-001	4.72599E-005	0.00000E+000	-1.06000E-001	-7.85939E-004	10	..........a	-327.74
	2401	12.01	-9.99273E-002	4.69257E-005	0.00000E+000	-9.90000E-002	-7.69272E-004	10	..........a	-327.74
	2408	12.045	-9.29823E-002	4.58229E-005	0.00000E+000	-9.20000E-002	-7.55939E-004	10	..........a	-327.74
	2415	12.08	-8.59573E-002	4.51712E-005	0.00000E+000	-8.50000E-002	-7.35939E-004	10	..........a	-327.74
	2422	12.115	-7.89439E-002	4.48370E-005	0.00000E+000	-7.80000E-002	-7.92605E-004	10	..........a	-327.74
	2429	12.15	-7.19773E-002	4.38511E-005	0.00000E+000	-7.10000E-002	-7.65939E-004	10	..........a	-327.74
	2436	12.185	-6.49989E-002	4.36172E-005	0.00000E+000	-6.40000E-002	-7.72606E-004	10	..........a	-327.74
	2443	12.22	-5.80189E-002	4.30490E-005	0.00000E+000	-5.70000E-002	-7.52606E-004	10	..........a	-327.74
	2450	12.255	-5.09989E-002	4.24140E-005	0.00000E+000	-5.00000E-002	-7.69272E-004	10	..........a	-327.74
	2457	12.29	-4.39473E-002	4.20464E-005	0.00000E+000	-4.30000E-002	-7.29272E-004	10	..........a	-327.74
	2464	12.325	-3.68739E-002	4.16287E-005	0.00000E+000	-3.60000E-002	-7.42605E-004	10	..........a	-327.74
	2471	12.36	-2.99689E-002	4.12611E-005	0.00000E+000	-2.90000E-002	-7.52606E-004	10	..........a	-327.74
	2478	12.395	-2.29773E-002	4.10438E-005	0.00000E+000	-2.20000E-002	-7.42605E-004	10	..........a	-327.74
	2485	12.43	-1.59639E-002	4.05760E-005	0.00000E+000	-1.50000E-002	-7.45939E-004	10	..........a	-327.74
	2492	12.465	-8.94394E-003	3.99911E-005	0.00000E+000	-8.00000E-003	-7.32606E-004	10	..........a	-327.74
	2499	12.5	-1.99727E-003	3.95399E-005	0.00000E+000	-1.00000E-003	-7.22606E-004	10	..........a	-327.74
	2506	12.535	4.98273E-003	3.92057E-005	0.00000E+000	5.99998E-003	-7.59272E-004	10	..........a	-327.74
	2513	12.57	1.20361E-002	3.86042E-005	0.00000E+000	1.30000E-002	-7.15939E-004	10	..........a	-327.74
	2520	12.605	1.89994E-002	3.84371E-005	0.00000E+000	2.00000E-002	-7.75939E-004	10	..........a	-327.74
	2527	12.64	2.59477E-002	3.82533E-005	0.00000E+000	2.70000E-002	-7.82606E-004	10	..........a	-327.74
	2534	12.675	3.30227E-002	3.78690E-005	0.00000E+000	3.40000E-002	-7.62605E-004	10	..........a	-327.74
	2541	12.71	3.99361E-002	3.80026E-005	0.00000E+000	4.10000E-002	-7.75939E-004	10	..........a	-327.74
	2548	12.745	4.69427E-002	3.75682E-005	0.00000E+000	4.80000E-002	-7.25939E-004	10	..........a	-327.74
	2555	12.78	5.39944E-002	3.73509E-005	0.00000E+000	5.50000E-002	-7.69272E-004	10	..........a	-327.74
	2562	12.815	6.09577E-002	3.71337E-005	0.00000E+000	6.20000E-002	-7.29272E-004	10	..........a	-327.74
	2569	12.85	6.80311E-002	3.70167E-005	0.00000E+000	6.90000E-002	-7.32606E-004	10	..........a	-327.74
	2576	12.885	7.49311E-002	3.69666E-005	0.00000E+000	7.60000E-002	-7.62605E-004	10	..........a	-327.74
	2583	12.92	8.19377E-002	3.69332E-005	0.00000E+000	8.30000E-002	-7.49272E-004	10	..........a	-327.74
	2590	12.955	8.89944E-002	3.71337E-005	0.00000E+000	9.00000E-002	-7.95939E-004	10	..........a	-327.74
	2597	12.99	9.59677E-002	3.67661E-005	0.00000E+000	9.70000E-002	-7.69272E-004	10	..........a	-327.74
	2604	13.025	1.02889E-001	3.67494E-005	0.00000E+000	1.04000E-001	-7.35939E-004	10	..........a	-327.74
	2611	13.06	1.09991E-001	3.72340E-005	0.00000E+000	1.11000E-001	-7.72606E-004	10	..........a	-327.74
	2618	13.095	1.16853E-001	3.73008E-005	0.00000E+000	1.18000E-001	-7.52606E-004	10	..........a	-327.74
	2625	13.13	1.23963E-001	3.79358E-005	0.00000E+000	1.25000E-001	-7.45939E-004	10	..........a	-327.74
	2632	13.165	1.30953E-001	3.82533E-005	0.00000E+000	1.32000E-001	-7.65939E-004	10	..........a	-327.74
	2639	13.2	1.37968E-001	3.86209E-005	0.00000E+000	1.39000E-001	-7.59272E-004	10	..........a	-327.74
	2646	13.235	1.45004E-001	3.91222E-005	0.00000E+000	1.46000E-001	-7.19272E-004	10	..........a	-327.74
	2653	13.27	1.51983E-001	3.95232E-005	0.00000E+000	1.53000E-001	-7.95939E-004	10	..........a	-327.74
	2660	13.305	1.58981E-001	4.00412E-005	0.00000E+000	1.60000E-001	-7.75939E-004	10	..........a	-327.74
	2667	13.34	1.65994E-001	4.01582E-005	0.00000E+000	1.67000E-001	-7.49272E-004	10	..........a	-327.74
	2674	13.375	1.72888E-001	4.06428E-005	0.00000E+000	1.74000E-001	-7.65939E-004	10	..........a	-327.74
	2681	13.41	1.80011E-001	4.08767E-005	0.00000E+000	1.81000E-001	-7.39272E-004	10	..........a	-327.74
	2688	13.445	1.86956E-001	4.09937E-005	0.00000E+000	1.88000E-001	-7.35939E-004	10	..........a	-327.74
	2695	13.48	1.93936E-001	4.10438E-005	0.00000E+000	1.95000E-001	-7.39272E-004	10	..........a	-327.74
	2702	13.515	2.00978E-001	4.06261E-005	0.00000E+000	2.02000E-001	-7.55939E-004	10	..........a	-327.74
	2709	13.55	2.07894E-001	4.08266E-005	0.00000E+000	2.09000E-001	-7.42605E-004	10	..........a	-327.74
	2716	13.585	2.14929E-001	4.03086E-005	0.00000E+000	2.16000E-001	-7.89272E-004	10	..........a	-327.74
	2723	13.62	2.21928E-001	4.02250E-005	0.00000E+000	2.23000E-001	-7.59272E-004	10	..........a	-327.74
	2730	13.655	2.28876E-001	3.93896E-005	0.00000E+000	2.30000E-001	-7.79272E-004	10	..........a	-327.74
	2737	13.69	2.35914E-001	3.98574E-005	0.00000E+000	2.37000E-001	-8.05939E-004	10	..........a	-327.74
	2744	13.725	2.42904E-001	3.92057E-005	0.00000E+000	2.44000E-001	-7.29272E-004	10	..........a	-327.74
	2751	13.76	2.49874E-001	3.86710E-005	0.00000E+000	2.51000E-001	-7.49272E-004	10	..........a	-327.74
	2758	13.795	2.56933E-001	3.82867E-005	0.00000E+000	2.58000E-001	-7.75939E-004	10	..........a	-327.74
	2765	13.83	2.63883E-001	3.80528E-005	0.00000E+000	2.65000E-001	-7.49272E-004	10	..........a	-327.74
	2772	13.865	2.70838E-001	3.72841E-005	0.00000E+000	2.72000E-001	-7.92605E-004	10	..........a	-327.74
	2779	13.9	2.77903E-001	3.71838E-005	0.00000E+000	2.79000E-001	-7.62605E-004	10	..........a	-327.74
	2786	13.935	2.84858E-001	3.68664E-005	0.00000E+000	2.86000E-001	-7.55939E-004	10	..........a	-327.74
	2793	13.97	2.91878E-001	3.60977E-005	0.00000E+000	2.93000E-001	-7.42605E-004	10	..........a	-327.74
	2800	14.005	2.98889E-001	3.58638E-005	0.00000E+000	3.00000E-001	-7.65939E-004	10	..........a	-327.74
	2807	14.04	3.05899E-001	3.54460E-005	0.00000E+000	3.07000E-001	-7.42605E-004	10	..........a	-327.74
	2814	14.075	3.12934E-001	3.48779E-005	0.00000E+000	3.14000E-001	-7.52606E-004	10	..........a	-327.74
	2821	14.11	3.19906E-001	3.44267E-005	0.00000E+000	3.21000E-001	-7.79272E-004	10	..........a	-327.74
	2828	14.145	3.26909E-001	3.42429E-005	0.00000E+000	3.28000E-001	-7.92605E-004	10	..........a	-327.74
	2835	14.18	3.33949E-001	3.38586E-005	0.00000E+000	3.35000E-001	-7.35939E-004	10	..........a	-327.74
	2842	14.215	3.40863E-001	3.35912E-005	0.00000E+000	3.42000E-001	-7.45939E-004	10	..........a	-327.74
	2849	14.25	3.48011E-001	3.31568E-005	0.00000E+000	3.49000E-001	-8.05939E-004	10	..........a	-327.74
	2856	14.285	3.54894E-001	3.28560E-005	0.00000E+000	3.56000E-001	-7.62605E-004	10	..........a	-327.74
	2863	14.32	3.61868E-001	3.27390E-005	0.00000E+000	3.63000E-001	-7.72606E-004	10	..........a	-327.74
	2870	14.355	3.68911E-001	3.22544E-005	0.00000E+000	3.70000E-001	-7.72606E-004	10	..........a	-327.74
	2877	14.39	3.75898E-001	3.21542E-005	0.00000E+000	3.77000E-001	-7.82606E-004	10	..........a	-327.74
	2884	14.425	3.82871E-001	3.18701E-005	0.00000E+000	3.84000E-001	-7.69272E-004	10	..........a	-327.74
	2891	14.46	3.89889E-001	3.14356E-005	0.00000E+000	3.91000E-001	-7.82606E-004	10	..........a	-327.74
	2898	14.495	3.96839E-001	3.15359E-005	0.00000E+000	3.98000E-001	-7.92605E-004	10	..........a	-327.74
	2905	14.53	4.03836E-001	3.09343E-005	0.00000E+000	4.05000E-001	-7.55939E-004	10	..........a	-327.74
	2912	14.565	4.10866E-001	3.07672E-005	0.00000E+000	4.12000E-001	-7.59272E-004	10	..........a	-327.74
	2919	14.6	4.17843E-001	3.02827E-005	0.00000E+000	4.19000E-001	-7.42605E-004	10	..........a	-327.74
	2926	14.635	4.24893E-001	3.00153E-005	0.00000E+000	4.26000E-001	-7.65939E-004	10	..........a	-327.74
	2933	14.67	4.31778E-001	2.97981E-005	0.00000E+000	4.33000E-001	-7.42605E-004	10	..........a	-327.74
	2940	14.705	4.38816E-001	2.93803E-005	0.00000E+000	4.40000E-001	-7.25939E-004	10	..........a	-327.74
	2947	14.74	4.45864E-001	2.90795E-005	0.00000E+000	4.47000E-001	-7.29272E-004	10	..........a	-327.74
	2954	14.775	4.52806E-001	2.87286E-005	0.00000E+000	4.54000E-001	-7.52606E-004	10	..........a	-327.74
	2961	14.81	4.59759E-001	2.84780E-005	0.00000E+000	4.61000E-001	-7.15939E-004	10	..........a	-327.74
	2968	14.845	4.66838E-001	2.82273E-005	0.00000E+000	4.68000E-001	-7.22606E-004	10	..........a	-327.74
	2975	14.88	4.73834E-001	2.80101E-005	0.00000E+000	4.75000E-001	-7.75939E-004	10	..........a	-327.74
	2982	14.915	4.80901E-001	2.77595E-005	0.00000E+000	4.82000E-001	-7.35939E-004	10	..........a	-327.74
	2989	14.95	4.87764E-001	2.73083E-005	0.00000E+000	4.89000E-001	-6.99272E-004	10	..........a	-327.74
	2996	14.985	4.94826E-001	2.72247E-005	0.00000E+000	4.96000E-001	-7.32606E-004	10	..........a	-327.74
	3000	15.005	4.98829E-001	2.73918E-005	0.00000E+000	5.00000E-001	-7.59272E-004	10	..........a	-327.74
CURVE2	TABLE
	Pt	T	Vf	Im	Vu	Sig	Ach	IERange	Over	Temp
	#	s	V vs. Ref.	A	V	V	V	#	bits	deg C
	3001	15.01	4.98799E-001	2.69073E-005	0.00000E+000	5.00000E-001	-7.45939E-004	10	..........a	-327.74