File: data/02-SI/Figures_S9_S11_RDE/15btmapaq-rde/1mkcl-5mmolar15btmapaq-nitrogen-rde900mvpers-50mvpers.DTA
EXPLAIN
TAG	LSV
TITLE	LABEL	Linear Sweep Voltammetry	Test &Identifier
DATE	LABEL	1/31/2023	Date
TIME	LABEL	18:26:21	Time
NOTES	NOTES	1	&Notes...

PSTAT	PSTAT	REF3000-21108	Potentiostat
VINIT	POTEN	5.00000E-001	F	&Initial E (V)
VFINAL	POTEN	-1.00000E+000	F	&Final E (V)
SCANRATE	QUANT	4.99999E+001	&Scan Rate (mV/s)
STEPSIZE	QUANT	1.00000E-001	St&ep Size (mV)
IMODE	SELECTOR	0	I/E Range &Mode
IRANGE	QUANT	1.00000E+002	&Max Current (mA)
AREA	QUANT	1.00000E+000	Electrode &Area (cm^2)
ELECTRODETYPE	SELECTOR	0	Electrode Type
STRIPPING	TOGGLE	F	Used for Stripping
POLARITY	TOGGLE	F	Signal Polarity
CONDIT	TWOPARAM	F	1.50000E+001	0.00000E+000	Conditionin&g	Time(s)	E(V)
DELAY	TWOPARAM	F	3.00000E+001	0.00000E+000	Init. De&lay	Time(s)	Stab.(mV/s)
EQDELAY	QUANT	0.00000E+000	Equil. &Time (s)
IRCOMP	SELECTOR	0	IRCom&p
PFCOR	QUANT	5.00000E+001	PF Corr. (ohm)
SAMPLINGMODE	SELECTOR	1	Sampling &Mode
EOC	QUANT	0	Open Circuit (V)
PSTATMODEL	IQUANT	5	Pstat Model
PSTATSECTION	LABEL	REF3000-21108	Pstat Section
PSTATSERIALNO	LABEL	21108	Pstat Serial Number
CTRLMODE	IQUANT	1	Control Mode
ELECTROMETER	IQUANT	0	RE=0 or CS=1
IESTAB	IQUANT	2	I/E Stability
CASPEED	IQUANT	4	Control Amp Speed
CONVENTION	IQUANT	1	Current Convention
ICHRANGE	IQUANT	2	Ich Range
ICHRANGEMODE	TOGGLE	F	Ich Auto Range
ICHOFFSETENABLE	TOGGLE	F	Ich Offset Enable
ICHOFFSET	QUANT	0	Ich Offset (V)
ICHFILTER	IQUANT	2	Ich Filter
VCHRANGE	IQUANT	2	Vch Range
VCHRANGEMODE	TOGGLE	T	Vch Auto Range
VCHOFFSETENABLE	TOGGLE	F	Vch Offset Enable
VCHOFFSET	QUANT	0	Vch Offset (V)
VCHFILTER	IQUANT	2	Vch Filter
ACHRANGE	IQUANT	2	Ach Range
ACHOFFSETENABLE	TOGGLE	F	Ach Offset Enable
ACHOFFSET	QUANT	0	Ach Offset (V)
ACHFILTER	IQUANT	0	Ach Filter
IERANGELOWERLIMIT	IQUANT	2	I/E Range Lower Limit
IERANGEMODE	TOGGLE	T	I/E AutoRange
IERANGE	IQUANT	11	I/E Range
POSFEEDENABLE	TOGGLE	F	Positive Feedback IR Comp
POSFEEDRESISTANCE	QUANT	0	Positive Feedback Resistance (ohm)
ACHSELECT	IQUANT	0	Ach Select
SENSECABLEID	IQUANT	14	Sense Cable ID
PWRCABLEID	IQUANT	7	Power Cable ID
DCCALDATE	LABEL	11/9/2022	DC Calibration Date
ACCALDATE	LABEL	11/9/2022	AC Calibration Date
THERMOSELECT	IQUANT	1	Thermo Select
FRAMEWORKVERSION	LABEL	7.8.2	Framework Version
INSTRUMENTVERSION	LABEL	4.40	Instrument Version
COMPLIANCEVOLTAGE	IQUANT	0	Compliance Voltage
CURVE	TABLE	15001
	Pt	T	Vf	Im	Vu	Sig	Ach	IERange	Over	Cycle	Temp
	#	s	V vs. Ref.	A	V	V	V	#	bits	#	deg C
	0	0.002	4.99667E-001	-3.83826E-005	0.00000E+000	5.00000E-001	-8.12605E-004	11	..........a	0	-327.74
	32	0.066	4.95606E-001	8.09589E-006	0.00000E+000	4.96800E-001	-8.04272E-004	8	..........a	0	-327.74
	64	0.13	4.92343E-001	5.43319E-006	0.00000E+000	4.93600E-001	-8.04272E-004	8	..........a	0	-327.74
	96	0.194	4.89197E-001	4.00997E-006	0.00000E+000	4.90400E-001	-8.29272E-004	8	..........a	0	-327.74
	128	0.258	4.86006E-001	3.24420E-006	0.00000E+000	4.87200E-001	-7.87605E-004	8	..........a	0	-327.74
	160	0.322	4.82822E-001	2.77007E-006	0.00000E+000	4.84000E-001	-8.20939E-004	8	..........a	0	-327.74
	192	0.386	4.79610E-001	2.37260E-006	0.00000E+000	4.80800E-001	-8.45939E-004	8	..........a	0	-327.74
	224	0.45	4.76402E-001	2.10887E-006	0.00000E+000	4.77600E-001	-8.04272E-004	8	..........a	0	-327.74
	256	0.514	4.73181E-001	1.86473E-006	0.00000E+000	4.74400E-001	-8.54272E-004	8	..........a	0	-327.74
	288	0.578	4.70022E-001	1.70224E-006	0.00000E+000	4.71200E-001	-8.04272E-004	8	..........a	0	-327.74
	320	0.642	4.66802E-001	1.48726E-006	0.00000E+000	4.68000E-001	-8.29272E-004	8	..........a	0	-327.74
	352	0.706	4.63585E-001	1.29186E-006	0.00000E+000	4.64800E-001	-8.20939E-004	8	..........a	0	-327.74
	384	0.77	4.60427E-001	1.34394E-006	0.00000E+000	4.61600E-001	-8.62605E-004	8	..........a	0	-327.74
	416	0.834	4.57222E-001	1.18436E-006	0.00000E+000	4.58400E-001	-8.54272E-004	8	..........a	0	-327.74
	448	0.898	4.54006E-001	1.04729E-006	0.00000E+000	4.55200E-001	-8.29272E-004	8	..........a	0	-327.74
	480	0.962	4.50810E-001	1.06312E-006	0.00000E+000	4.52000E-001	-7.95939E-004	8	..........a	0	-327.74
	512	1.026	4.47585E-001	8.32726E-007	0.00000E+000	4.48800E-001	-8.20939E-004	8	..........a	0	-327.74
	544	1.09	4.44389E-001	9.83131E-007	0.00000E+000	4.45600E-001	-8.62605E-004	8	..........a	0	-327.74
	576	1.154	4.41206E-001	8.34393E-007	0.00000E+000	4.42400E-001	-8.20939E-004	8	..........a	0	-327.74
	608	1.218	4.38006E-001	7.07736E-007	0.00000E+000	4.39200E-001	-8.37606E-004	8	..........a	0	-327.74
	640	1.282	4.34827E-001	8.88555E-007	0.00000E+000	4.36000E-001	-8.54272E-004	8	..........a	0	-327.74
	672	1.346	4.31622E-001	6.73989E-007	0.00000E+000	4.32800E-001	-8.37606E-004	8	..........a	0	-327.74
	704	1.41	4.28414E-001	7.18152E-007	0.00000E+000	4.29600E-001	-7.70939E-004	8	..........a	0	-327.74
	736	1.474	4.25210E-001	6.38159E-007	0.00000E+000	4.26400E-001	-8.12605E-004	8	..........a	0	-327.74
	768	1.538	4.22006E-001	5.09419E-007	0.00000E+000	4.23200E-001	-8.37606E-004	8	..........a	0	-327.74
	800	1.602	4.18777E-001	4.56507E-007	0.00000E+000	4.20000E-001	-8.37606E-004	8	..........a	0	-327.74
	832	1.666	4.15602E-001	5.34834E-007	0.00000E+000	4.16800E-001	-8.29272E-004	8	..........a	0	-327.74
	864	1.73	4.12397E-001	5.36500E-007	0.00000E+000	4.13600E-001	-8.20939E-004	8	..........a	0	-327.74
	896	1.794	4.09247E-001	5.58998E-007	0.00000E+000	4.10400E-001	-8.20939E-004	8	..........a	0	-327.74
	928	1.858	4.06010E-001	5.32751E-007	0.00000E+000	4.07200E-001	-8.37606E-004	8	..........a	0	-327.74
	960	1.922	4.02806E-001	3.74013E-007	0.00000E+000	4.04000E-001	-8.37606E-004	8	..........a	0	-327.74
	992	1.986	3.99622E-001	3.60264E-007	0.00000E+000	4.00800E-001	-8.04272E-004	8	..........a	0	-327.74
	1024	2.05	3.96397E-001	3.77763E-007	0.00000E+000	3.97600E-001	-8.37606E-004	8	..........a	0	-327.74
	1056	2.114	3.93214E-001	3.18184E-007	0.00000E+000	3.94400E-001	-8.20939E-004	8	..........a	0	-327.74
	1088	2.178	3.89993E-001	2.74855E-007	0.00000E+000	3.91200E-001	-8.04272E-004	8	..........a	0	-327.74
	1120	2.242	3.86797E-001	4.05261E-007	0.00000E+000	3.88000E-001	-8.29272E-004	8	..........a	0	-327.74
	1152	2.306	3.83635E-001	4.28592E-007	0.00000E+000	3.84800E-001	-8.20939E-004	8	..........a	0	-327.74
	1184	2.37	3.80422E-001	2.66938E-007	0.00000E+000	3.81600E-001	-8.12605E-004	8	..........a	0	-327.74
	1216	2.434	3.77243E-001	3.18184E-007	0.00000E+000	3.78400E-001	-7.95939E-004	8	..........a	0	-327.74
	1248	2.498	3.74031E-001	3.18184E-007	0.00000E+000	3.75200E-001	-8.37606E-004	8	..........a	0	-327.74
	1280	2.562	3.70814E-001	3.21101E-007	0.00000E+000	3.72000E-001	-7.87605E-004	8	..........a	0	-327.74
	1312	2.626	3.67606E-001	1.59447E-007	0.00000E+000	3.68800E-001	-8.37606E-004	8	..........a	0	-327.74
	1344	2.69	3.64389E-001	2.17776E-007	0.00000E+000	3.65600E-001	-8.29272E-004	8	..........a	0	-327.74
	1376	2.754	3.61214E-001	2.19442E-007	0.00000E+000	3.62400E-001	-7.95939E-004	8	..........a	0	-327.74
	1408	2.818	3.58043E-001	2.14026E-007	0.00000E+000	3.59200E-001	-8.04272E-004	8	..........a	0	-327.74
	1440	2.882	3.54827E-001	2.26942E-007	0.00000E+000	3.56000E-001	-8.54272E-004	8	..........a	0	-327.74
	1472	2.946	3.51656E-001	2.07777E-007	0.00000E+000	3.52800E-001	-8.04272E-004	8	..........a	0	-327.74
	1504	3.01	3.48431E-001	1.79862E-007	0.00000E+000	3.49600E-001	-8.20939E-004	8	..........a	0	-327.74
	1536	3.074	3.45239E-001	2.47773E-007	0.00000E+000	3.46400E-001	-7.95939E-004	8	..........a	0	-327.74
	1568	3.138	3.42039E-001	1.23200E-007	0.00000E+000	3.43200E-001	-7.62605E-004	8	..........a	0	-327.74
	1600	3.202	3.38847E-001	1.42365E-007	0.00000E+000	3.40000E-001	-8.54272E-004	8	..........a	0	-327.74
	1632	3.266	3.35618E-001	2.01944E-007	0.00000E+000	3.36800E-001	-7.70939E-004	8	..........a	0	-327.74
	1664	3.33	3.32456E-001	7.94535E-008	0.00000E+000	3.33600E-001	-8.29272E-004	8	..........a	0	-327.74
	1696	3.394	3.29243E-001	4.57062E-008	0.00000E+000	3.30400E-001	-8.12605E-004	8	..........a	0	-327.74
	1728	3.458	3.26081E-001	1.61114E-007	0.00000E+000	3.27200E-001	-8.04272E-004	8	..........a	0	-327.74
	1760	3.522	3.22835E-001	1.49865E-007	0.00000E+000	3.24000E-001	-8.12605E-004	8	..........a	0	-327.74
	1792	3.586	3.19622E-001	1.04452E-007	0.00000E+000	3.20800E-001	-7.95939E-004	8	..........a	0	-327.74
	1824	3.65	3.16452E-001	1.05285E-007	0.00000E+000	3.17600E-001	-8.54272E-004	8	..........a	0	-327.74
	1856	3.714	3.13239E-001	8.20926E-009	0.00000E+000	3.14400E-001	-8.12605E-004	8	..........a	0	-327.74
	1888	3.778	3.10018E-001	8.94527E-008	0.00000E+000	3.11200E-001	-8.04272E-004	8	..........a	0	-327.74
	1920	3.842	3.06847E-001	7.36207E-008	0.00000E+000	3.08000E-001	-8.62605E-004	8	..........a	0	-327.74
	1952	3.906	3.03652E-001	1.42365E-007	0.00000E+000	3.04800E-001	-8.79272E-004	8	..........a	0	-327.74
	1984	3.97	3.00464E-001	2.65411E-008	0.00000E+000	3.01600E-001	-8.29272E-004	8	..........a	0	-327.74
	2016	4.034	2.97235E-001	-1.97052E-008	0.00000E+000	2.98400E-001	-8.12605E-004	8	..........a	0	-327.74
	2048	4.098	2.94052E-001	1.29033E-007	0.00000E+000	2.95200E-001	-8.37606E-004	8	..........a	0	-327.74
	2080	4.162	2.90860E-001	7.79263E-009	0.00000E+000	2.92000E-001	-8.79272E-004	8	..........a	0	-327.74
	2112	4.226	2.87635E-001	4.02900E-008	0.00000E+000	2.88800E-001	-7.87605E-004	8	..........a	0	-327.74
	2144	4.29	2.84472E-001	9.45916E-009	0.00000E+000	2.85600E-001	-8.45939E-004	8	..........a	0	-327.74
	2176	4.354	2.81227E-001	5.70946E-009	0.00000E+000	2.82400E-001	-8.12605E-004	8	..........a	0	-327.74
	2208	4.418	2.78027E-001	7.82036E-008	0.00000E+000	2.79200E-001	-8.45939E-004	8	..........a	0	-327.74
	2240	4.482	2.74864E-001	3.48738E-008	0.00000E+000	2.76000E-001	-8.54272E-004	8	..........a	0	-327.74
	2272	4.546	2.71685E-001	-2.59547E-008	0.00000E+000	2.72800E-001	-8.12605E-004	8	..........a	0	-327.74
	2304	4.61	2.68431E-001	-1.26224E-008	0.00000E+000	2.69600E-001	-8.12605E-004	8	..........a	0	-327.74
	2336	4.674	2.65247E-001	-1.37331E-009	0.00000E+000	2.66400E-001	-8.29272E-004	8	..........a	0	-327.74
	2368	4.738	2.62060E-001	-1.51222E-008	0.00000E+000	2.63200E-001	-8.37606E-004	8	..........a	0	-327.74
	2400	4.802	2.58847E-001	3.77902E-008	0.00000E+000	2.60000E-001	-8.29272E-004	8	..........a	0	-327.74
	2432	4.866	2.55664E-001	7.79263E-009	0.00000E+000	2.56800E-001	-8.20939E-004	8	..........a	0	-327.74
	2464	4.93	2.52452E-001	3.02908E-008	0.00000E+000	2.53600E-001	-8.12605E-004	8	..........a	0	-327.74
	2496	4.994	2.49252E-001	2.69578E-008	0.00000E+000	2.50400E-001	-8.79272E-004	8	..........a	0	-327.74
	2528	5.058	2.46043E-001	6.86211E-008	0.00000E+000	2.47200E-001	-8.12605E-004	8	..........a	0	-327.74
	2560	5.122	2.42792E-001	4.48730E-008	0.00000E+000	2.44000E-001	-8.20939E-004	8	......s...a	0	-327.74
	2592	5.186	2.39570E-001	-7.97003E-008	0.00000E+000	2.40800E-001	-8.62605E-004	8	..........a	0	-327.74
	2624	5.25	2.36386E-001	2.23748E-008	0.00000E+000	2.37600E-001	-8.37606E-004	8	..........a	0	-327.74
	2656	5.314	2.33176E-001	-3.63705E-008	0.00000E+000	2.34400E-001	-8.04272E-004	8	..........a	0	-327.74
	2688	5.378	2.29976E-001	-8.88663E-008	0.00000E+000	2.31200E-001	-8.29272E-004	8	..........a	0	-327.74
	2720	5.442	2.26770E-001	-7.05344E-008	0.00000E+000	2.28000E-001	-8.37606E-004	8	..........a	0	-327.74
	2752	5.506	2.23597E-001	-3.97036E-008	0.00000E+000	2.24800E-001	-8.04272E-004	8	..........a	0	-327.74
	2784	5.57	2.20390E-001	-1.07198E-007	0.00000E+000	2.21600E-001	-7.79272E-004	8	..........a	0	-327.74
	2816	5.634	2.17191E-001	-1.06365E-007	0.00000E+000	2.18400E-001	-7.79272E-004	8	..........a	0	-327.74
	2848	5.698	2.13991E-001	-6.17851E-008	0.00000E+000	2.15200E-001	-8.37606E-004	8	..........a	0	-327.74
	2880	5.762	2.10808E-001	-7.47008E-008	0.00000E+000	2.12000E-001	-8.62605E-004	8	..........a	0	-327.74
	2912	5.826	2.07618E-001	-1.42889E-008	0.00000E+000	2.08800E-001	-8.62605E-004	8	..........a	0	-327.74
	2944	5.89	2.04399E-001	-9.84488E-008	0.00000E+000	2.05600E-001	-8.12605E-004	8	..........a	0	-327.74
	2976	5.954	2.01206E-001	-4.59531E-008	0.00000E+000	2.02400E-001	-7.70939E-004	8	..........a	0	-327.74
	3008	6.018	1.98004E-001	-1.46362E-007	0.00000E+000	1.99200E-001	-7.70939E-004	8	..........a	0	-327.74
	3040	6.082	1.94800E-001	-7.22009E-008	0.00000E+000	1.96000E-001	-8.37606E-004	8	..........a	0	-327.74
	3072	6.146	1.91603E-001	-3.13709E-008	0.00000E+000	1.92800E-001	-8.12605E-004	8	..........a	0	-327.74
	3104	6.21	1.88397E-001	-7.47008E-008	0.00000E+000	1.89600E-001	-8.29272E-004	8	..........a	0	-327.74
	3136	6.274	1.85209E-001	2.19582E-008	0.00000E+000	1.86400E-001	-7.70939E-004	8	..........a	0	-327.74
	3168	6.338	1.82006E-001	-1.94275E-007	0.00000E+000	1.83200E-001	-8.04272E-004	8	..........a	0	-327.74
	3200	6.402	1.78819E-001	-4.84529E-008	0.00000E+000	1.80000E-001	-8.20939E-004	8	..........a	0	-327.74
	3232	6.466	1.75607E-001	-1.20114E-007	0.00000E+000	1.76800E-001	-8.04272E-004	8	..........a	0	-327.74
	3264	6.53	1.72411E-001	-1.32196E-007	0.00000E+000	1.73600E-001	-8.12605E-004	8	..........a	0	-327.74
	3296	6.594	1.69216E-001	-8.80330E-008	0.00000E+000	1.70400E-001	-7.79272E-004	8	..........a	0	-327.74
	3328	6.658	1.66021E-001	-1.46362E-007	0.00000E+000	1.67200E-001	-8.04272E-004	8	..........a	0	-327.74
	3360	6.722	1.62819E-001	-4.38699E-008	0.00000E+000	1.64000E-001	-8.12605E-004	8	..........a	0	-327.74
	3392	6.786	1.59612E-001	-1.39279E-007	0.00000E+000	1.60800E-001	-8.12605E-004	8	..........a	0	-327.74
	3424	6.85	1.56414E-001	-1.39279E-007	0.00000E+000	1.57600E-001	-8.20939E-004	8	..........a	0	-327.74
	3456	6.914	1.53216E-001	-1.00532E-007	0.00000E+000	1.54400E-001	-8.37606E-004	8	..........a	0	-327.74
	3488	6.978	1.50021E-001	-1.23030E-007	0.00000E+000	1.51200E-001	-7.79272E-004	8	..........a	0	-327.74
	3520	7.042	1.46818E-001	-8.96995E-008	0.00000E+000	1.48000E-001	-7.87605E-004	8	..........a	0	-327.74
	3552	7.106	1.43613E-001	-1.41779E-007	0.00000E+000	1.44800E-001	-8.37606E-004	8	..........a	0	-327.74
	3584	7.17	1.40429E-001	-1.46778E-007	0.00000E+000	1.41600E-001	-8.37606E-004	8	..........a	0	-327.74
	3616	7.234	1.37240E-001	-1.20947E-007	0.00000E+000	1.38400E-001	-8.37606E-004	8	..........a	0	-327.74
	3648	7.298	1.34043E-001	-8.59498E-008	0.00000E+000	1.35200E-001	-7.70939E-004	8	..........a	0	-327.74
	3680	7.362	1.30845E-001	-1.28446E-007	0.00000E+000	1.32000E-001	-7.62605E-004	8	..........a	0	-327.74
	3712	7.426	1.27640E-001	-1.71360E-007	0.00000E+000	1.28800E-001	-8.12605E-004	8	..........a	0	-327.74
	3744	7.49	1.24441E-001	-1.79692E-007	0.00000E+000	1.25600E-001	-7.20939E-004	8	..........a	0	-327.74
	3776	7.554	1.21244E-001	-2.18023E-007	0.00000E+000	1.22400E-001	-7.70939E-004	8	..........a	0	-327.74
	3808	7.618	1.18034E-001	-8.26168E-008	0.00000E+000	1.19200E-001	-8.20939E-004	8	..........a	0	-327.74
	3840	7.682	1.14843E-001	-9.09494E-008	0.00000E+000	1.16000E-001	-8.37606E-004	8	..........a	0	-327.74
	3872	7.746	1.11647E-001	-1.95941E-007	0.00000E+000	1.12800E-001	-7.87605E-004	8	..........a	0	-327.74
	3904	7.81	1.08433E-001	-2.55103E-007	0.00000E+000	1.09600E-001	-8.12605E-004	8	..........a	0	-327.74
	3936	7.874	1.05255E-001	-1.15531E-007	0.00000E+000	1.06400E-001	-8.45939E-004	8	..........a	0	-327.74
	3968	7.938	1.02048E-001	-2.03440E-007	0.00000E+000	1.03200E-001	-8.20939E-004	8	..........a	0	-327.74
	4000	8.002	9.88564E-002	-2.23855E-007	0.00000E+000	1.00000E-001	-8.04272E-004	8	..........a	0	-327.74
	4032	8.066	9.56601E-002	-1.20114E-007	0.00000E+000	9.68000E-002	-8.04272E-004	8	..........a	0	-327.74
	4064	8.13	9.24568E-002	-2.86350E-007	0.00000E+000	9.36000E-002	-7.62605E-004	8	..........a	0	-327.74
	4096	8.194	8.92685E-002	-2.18023E-007	0.00000E+000	9.04000E-002	-7.95939E-004	8	..........a	0	-327.74
	4128	8.258	8.60551E-002	-2.70102E-007	0.00000E+000	8.72000E-002	-8.29272E-004	8	..........a	0	-327.74
	4160	8.322	8.28547E-002	-1.77609E-007	0.00000E+000	8.40000E-002	-8.04272E-004	8	..........a	0	-327.74
	4192	8.386	7.96647E-002	-1.98441E-007	0.00000E+000	8.08000E-002	-7.04272E-004	8	..........a	0	-327.74
	4224	8.45	7.64589E-002	-2.65102E-007	0.00000E+000	7.76000E-002	-8.12605E-004	8	..........a	0	-327.74
	4256	8.514	7.32668E-002	-1.42612E-007	0.00000E+000	7.44000E-002	-8.12605E-004	8	..........a	0	-327.74
	4288	8.578	7.00510E-002	-2.28855E-007	0.00000E+000	7.12000E-002	-8.04272E-004	8	..........a	0	-327.74
	4320	8.642	6.68672E-002	-1.90525E-007	0.00000E+000	6.80000E-002	-7.95939E-004	8	..........a	0	-327.74
	4352	8.706	6.36722E-002	-2.47604E-007	0.00000E+000	6.48000E-002	-8.12605E-004	8	..........a	0	-327.74
	4384	8.77	6.04731E-002	-2.12190E-007	0.00000E+000	6.16000E-002	-7.70939E-004	8	..........a	0	-327.74
	4416	8.834	5.72714E-002	-1.88025E-007	0.00000E+000	5.84000E-002	-7.87605E-004	8	..........a	0	-327.74
	4448	8.898	5.40685E-002	-2.78018E-007	0.00000E+000	5.52000E-002	-7.70939E-004	8	..........a	0	-327.74
	4480	8.962	5.08831E-002	-2.11356E-007	0.00000E+000	5.20000E-002	-7.79272E-004	8	..........a	0	-327.74
	4512	9.026	4.76693E-002	-2.19689E-007	0.00000E+000	4.88000E-002	-7.87605E-004	8	..........a	0	-327.74
	4544	9.09	4.44735E-002	-3.01349E-007	0.00000E+000	4.56000E-002	-8.37606E-004	8	..........a	0	-327.74
	4576	9.154	4.12793E-002	-2.27605E-007	0.00000E+000	4.24000E-002	-7.95939E-004	8	..........a	0	-327.74
	4608	9.218	3.80797E-002	-2.55103E-007	0.00000E+000	3.92000E-002	-8.29272E-004	8	..........a	0	-327.74
	4640	9.282	3.48789E-002	-1.99274E-007	0.00000E+000	3.60000E-002	-7.87605E-004	8	..........a	0	-327.74
	4672	9.346	3.16806E-002	-2.80101E-007	0.00000E+000	3.28000E-002	-8.29272E-004	8	..........a	0	-327.74
	4704	9.41	2.84981E-002	-2.20106E-007	0.00000E+000	2.96000E-002	-7.70939E-004	8	..........a	0	-327.74
	4736	9.474	2.52893E-002	-2.44270E-007	0.00000E+000	2.64000E-002	-8.04272E-004	8	..........a	0	-327.74
	4768	9.538	2.20704E-002	-2.01357E-007	0.00000E+000	2.32000E-002	-7.95939E-004	8	..........a	0	-327.74
	4800	9.602	1.88731E-002	-3.40096E-007	0.00000E+000	2.00000E-002	-8.04272E-004	8	..........a	0	-327.74
	4832	9.666	1.56828E-002	-1.20530E-007	0.00000E+000	1.68000E-002	-8.04272E-004	8	..........a	0	-327.74
	4864	9.73	1.24839E-002	-3.10932E-007	0.00000E+000	1.36000E-002	-8.20939E-004	8	..........a	0	-327.74
	4896	9.794	9.27927E-003	-2.02191E-007	0.00000E+000	1.04000E-002	-8.45939E-004	8	..........a	0	-327.74
	4928	9.858	6.08564E-003	-1.97608E-007	0.00000E+000	7.20000E-003	-8.45939E-004	8	..........a	0	-327.74
	4960	9.922	2.88314E-003	-2.07190E-007	0.00000E+000	4.00001E-003	-8.62605E-004	8	..........a	0	-327.74
	4992	9.986	-3.00359E-004	-1.93025E-007	0.00000E+000	7.99984E-004	-8.20939E-004	8	..........a	0	-327.74
	5024	10.05	-3.51061E-003	-2.61769E-007	0.00000E+000	-2.40001E-003	-8.37606E-004	8	..........a	0	-327.74
	5056	10.114	-6.71598E-003	-3.34263E-007	0.00000E+000	-5.60001E-003	-8.04272E-004	8	..........a	0	-327.74
	5088	10.178	-9.89286E-003	-2.97183E-007	0.00000E+000	-8.80000E-003	-8.04272E-004	8	..........a	0	-327.74
	5120	10.242	-1.31041E-002	-3.07599E-007	0.00000E+000	-1.20000E-002	-7.79272E-004	8	..........a	0	-327.74
	5152	10.306	-1.63081E-002	-2.87184E-007	0.00000E+000	-1.52000E-002	-8.12605E-004	8	..........a	0	-327.74
	5184	10.37	-1.95016E-002	-3.17181E-007	0.00000E+000	-1.84000E-002	-8.45939E-004	8	..........a	0	-327.74
	5216	10.434	-2.27029E-002	-3.64677E-007	0.00000E+000	-2.16000E-002	-8.12605E-004	8	..........a	0	-327.74
	5248	10.498	-2.58812E-002	-2.56353E-007	0.00000E+000	-2.48000E-002	-7.54272E-004	8	..........a	0	-327.74
	5280	10.562	-2.90953E-002	-3.06349E-007	0.00000E+000	-2.80000E-002	-7.62605E-004	8	..........a	0	-327.74
	5312	10.626	-3.22965E-002	-3.65511E-007	0.00000E+000	-3.12000E-002	-7.79272E-004	8	..........a	0	-327.74
	5344	10.69	-3.54857E-002	-2.91767E-007	0.00000E+000	-3.44000E-002	-7.87605E-004	8	..........a	0	-327.74
	5376	10.754	-3.86878E-002	-3.28847E-007	0.00000E+000	-3.76000E-002	-7.79272E-004	8	..........a	0	-327.74
	5408	10.818	-4.18886E-002	-3.49679E-007	0.00000E+000	-4.08000E-002	-7.87605E-004	8	..........a	0	-327.74
	5440	10.882	-4.50911E-002	-3.57595E-007	0.00000E+000	-4.40000E-002	-7.37606E-004	8	..........a	0	-327.74
	5472	10.946	-4.82903E-002	-3.76760E-007	0.00000E+000	-4.72000E-002	-8.29272E-004	8	..........a	0	-327.74
	5504	11.01	-5.14861E-002	-3.92175E-007	0.00000E+000	-5.04000E-002	-7.87605E-004	8	..........a	0	-327.74
	5536	11.074	-5.46894E-002	-3.42596E-007	0.00000E+000	-5.36000E-002	-8.12605E-004	8	..........a	0	-327.74
	5568	11.138	-5.78744E-002	-2.94683E-007	0.00000E+000	-5.68000E-002	-7.87605E-004	8	..........a	0	-327.74
	5600	11.202	-6.10953E-002	-3.53012E-007	0.00000E+000	-6.00000E-002	-8.12605E-004	8	..........a	0	-327.74
	5632	11.266	-6.42732E-002	-4.53837E-007	0.00000E+000	-6.32000E-002	-7.79272E-004	8	..........a	0	-327.74
	5664	11.33	-6.74836E-002	-4.59253E-007	0.00000E+000	-6.64000E-002	-8.54272E-004	8	..........a	0	-327.74
	5696	11.394	-7.06753E-002	-4.66753E-007	0.00000E+000	-6.96000E-002	-7.79272E-004	8	..........a	0	-327.74
	5728	11.458	-7.38719E-002	-4.85085E-007	0.00000E+000	-7.28000E-002	-7.79272E-004	8	..........a	0	-327.74
	5760	11.522	-7.70507E-002	-4.83418E-007	0.00000E+000	-7.60000E-002	-7.20939E-004	8	..........a	0	-327.74
	5792	11.586	-8.02599E-002	-5.37164E-007	0.00000E+000	-7.92000E-002	-8.29272E-004	8	..........a	0	-327.74
	5824	11.65	-8.34578E-002	-4.81335E-007	0.00000E+000	-8.24000E-002	-7.87605E-004	8	..........a	0	-327.74
	5856	11.714	-8.66511E-002	-4.87584E-007	0.00000E+000	-8.56000E-002	-7.70939E-004	8	..........a	0	-327.74
	5888	11.778	-8.98636E-002	-5.93409E-007	0.00000E+000	-8.88000E-002	-7.79272E-004	8	..........a	0	-327.74
	5920	11.842	-9.30607E-002	-5.88409E-007	0.00000E+000	-9.20000E-002	-8.29272E-004	8	..........a	0	-327.74
	5952	11.906	-9.62582E-002	-5.88409E-007	0.00000E+000	-9.52000E-002	-8.12605E-004	8	..........a	0	-327.74
	5984	11.97	-9.94611E-002	-6.72569E-007	0.00000E+000	-9.84000E-002	-8.29272E-004	8	..........a	0	-327.74
	6016	12.034	-1.02652E-001	-6.66737E-007	0.00000E+000	-1.01600E-001	-7.95939E-004	8	..........a	0	-327.74
	6048	12.098	-1.05856E-001	-7.94643E-007	0.00000E+000	-1.04800E-001	-7.95939E-004	8	..........a	0	-327.74
	6080	12.162	-1.09036E-001	-7.56313E-007	0.00000E+000	-1.08000E-001	-8.70939E-004	8	..........a	0	-327.74
	6112	12.226	-1.12242E-001	-7.05067E-007	0.00000E+000	-1.11200E-001	-7.95939E-004	8	..........a	0	-327.74
	6144	12.29	-1.15441E-001	-8.23807E-007	0.00000E+000	-1.14400E-001	-7.87605E-004	8	..........a	0	-327.74
	6176	12.354	-1.18634E-001	-8.85469E-007	0.00000E+000	-1.17600E-001	-8.12605E-004	8	..........a	0	-327.74
	6208	12.418	-1.21843E-001	-9.37131E-007	0.00000E+000	-1.20800E-001	-7.87605E-004	8	..........a	0	-327.74
	6240	12.482	-1.25032E-001	-1.00504E-006	0.00000E+000	-1.24000E-001	-8.29272E-004	8	..........a	0	-327.74
	6272	12.546	-1.28233E-001	-1.18378E-006	0.00000E+000	-1.27200E-001	-7.62605E-004	8	..........a	0	-327.74
	6304	12.61	-1.31425E-001	-1.20586E-006	0.00000E+000	-1.30400E-001	-8.12605E-004	8	..........a	0	-327.74
	6336	12.674	-1.34639E-001	-1.33252E-006	0.00000E+000	-1.33600E-001	-8.12605E-004	8	..........a	0	-327.74
	6368	12.738	-1.37819E-001	-1.16420E-006	0.00000E+000	-1.36800E-001	-7.70939E-004	8	..........a	0	-327.74
	6400	12.802	-1.41019E-001	-1.38085E-006	0.00000E+000	-1.40000E-001	-8.20939E-004	8	..........a	0	-327.74
	6432	12.866	-1.44231E-001	-1.46126E-006	0.00000E+000	-1.43200E-001	-8.20939E-004	8	..........a	0	-327.74
	6464	12.93	-1.47423E-001	-1.44709E-006	0.00000E+000	-1.46400E-001	-7.95939E-004	8	..........a	0	-327.74
	6496	12.994	-1.50627E-001	-1.62874E-006	0.00000E+000	-1.49600E-001	-8.37606E-004	8	..........a	0	-327.74
	6528	13.058	-1.53827E-001	-1.74373E-006	0.00000E+000	-1.52800E-001	-8.04272E-004	8	..........a	0	-327.74
	6560	13.122	-1.57017E-001	-1.79081E-006	0.00000E+000	-1.56000E-001	-8.62605E-004	8	..........a	0	-327.74
	6592	13.186	-1.60221E-001	-1.91205E-006	0.00000E+000	-1.59200E-001	-8.29272E-004	8	..........a	0	-327.74
	6624	13.25	-1.63434E-001	-2.13454E-006	0.00000E+000	-1.62400E-001	-7.79272E-004	8	..........a	0	-327.74
	6656	13.314	-1.66627E-001	-2.36743E-006	0.00000E+000	-1.65600E-001	-7.70939E-004	8	..........a	0	-327.74
	6688	13.378	-1.69836E-001	-2.43618E-006	0.00000E+000	-1.68800E-001	-7.87605E-004	8	..........a	0	-327.74
	6720	13.442	-1.73029E-001	-2.49367E-006	0.00000E+000	-1.72000E-001	-7.95939E-004	8	..........a	0	-327.74
	6752	13.506	-1.76221E-001	-2.77323E-006	0.00000E+000	-1.75200E-001	-7.54272E-004	8	..........a	0	-327.74
	6784	13.57	-1.79416E-001	-2.99988E-006	0.00000E+000	-1.78400E-001	-7.79272E-004	8	..........a	0	-327.74
	6816	13.634	-1.82614E-001	-3.11529E-006	0.00000E+000	-1.81600E-001	-7.79272E-004	8	..........a	0	-327.74
	6848	13.698	-1.85809E-001	-3.37819E-006	0.00000E+000	-1.84800E-001	-8.20939E-004	8	..........a	0	-327.74
	6880	13.762	-1.89005E-001	-3.55192E-006	0.00000E+000	-1.88000E-001	-8.29272E-004	8	..........a	0	-327.74
	6912	13.826	-1.92200E-001	-3.84481E-006	0.00000E+000	-1.91200E-001	-7.54272E-004	8	..........a	0	-327.74
	6944	13.89	-1.95403E-001	-4.15646E-006	0.00000E+000	-1.94400E-001	-8.12605E-004	8	..........a	0	-327.74
	6976	13.954	-1.98606E-001	-4.33811E-006	0.00000E+000	-1.97600E-001	-7.79272E-004	8	..........a	0	-327.74
	7008	14.018	-2.01799E-001	-4.62225E-006	0.00000E+000	-2.00800E-001	-8.12605E-004	8	..........a	0	-327.74
	7040	14.082	-2.05007E-001	-5.08471E-006	0.00000E+000	-2.04000E-001	-8.04272E-004	8	..........a	0	-327.74
	7072	14.146	-2.08193E-001	-5.32511E-006	0.00000E+000	-2.07200E-001	-7.87605E-004	8	..........a	0	-327.74
	7104	14.21	-2.11399E-001	-5.58509E-006	0.00000E+000	-2.10400E-001	-8.04272E-004	8	..........a	0	-327.74
	7136	14.274	-2.14609E-001	-5.97256E-006	0.00000E+000	-2.13600E-001	-7.79272E-004	8	..........a	0	-327.74
	7168	14.338	-2.17787E-001	-6.33753E-006	0.00000E+000	-2.16800E-001	-8.20939E-004	8	..........a	0	-327.74
	7200	14.402	-2.20994E-001	-6.81166E-006	0.00000E+000	-2.20000E-001	-8.79272E-004	8	..........a	0	-327.74
	7232	14.466	-2.24187E-001	-7.20954E-006	0.00000E+000	-2.23200E-001	-8.04272E-004	8	..........a	0	-327.74
	7264	14.53	-2.27386E-001	-7.77783E-006	0.00000E+000	-2.26400E-001	-7.95939E-004	8	..........a	0	-327.74
	7296	14.594	-2.30588E-001	-7.94074E-006	0.00000E+000	-2.29600E-001	-7.70939E-004	8	..........a	0	-327.74
	7328	14.658	-2.33786E-001	-8.49736E-006	0.00000E+000	-2.32800E-001	-7.70939E-004	8	..........a	0	-327.74
	7360	14.722	-2.36989E-001	-9.07440E-006	0.00000E+000	-2.36000E-001	-7.54272E-004	8	..........a	0	-327.74
	7392	14.786	-2.40186E-001	-9.38562E-006	0.00000E+000	-2.39200E-001	-7.54272E-004	8	..........a	0	-327.74
	7424	14.85	-2.43384E-001	-9.92016E-006	0.00000E+000	-2.42400E-001	-7.29272E-004	8	..........a	0	-327.74
	7456	14.914	-2.46562E-001	-1.02185E-005	0.00000E+000	-2.45600E-001	-7.79272E-004	8	..........a	0	-327.74
	7488	14.978	-2.49774E-001	-1.09188E-005	0.00000E+000	-2.48800E-001	-7.95939E-004	8	..........a	0	-327.74
	7520	15.042	-2.52977E-001	-1.13096E-005	0.00000E+000	-2.52000E-001	-7.95939E-004	8	..........a	0	-327.74
	7552	15.106	-2.56168E-001	-1.19183E-005	0.00000E+000	-2.55200E-001	-8.04272E-004	8	..........a	0	-327.74
	7584	15.17	-2.59365E-001	-1.23883E-005	0.00000E+000	-2.58400E-001	-8.04272E-004	8	..........a	0	-327.74
	7616	15.234	-2.62579E-001	-1.29137E-005	0.00000E+000	-2.61600E-001	-7.62605E-004	8	..........a	0	-327.74
	7648	15.298	-2.65768E-001	-1.32607E-005	0.00000E+000	-2.64800E-001	-8.04272E-004	8	..........a	0	-327.74
	7680	15.362	-2.68932E-001	-1.39723E-005	0.00000E+000	-2.68000E-001	-8.12605E-004	8	..........a	0	-327.74
	7712	15.426	-2.72082E-001	-1.44631E-005	0.00000E+000	-2.71200E-001	-8.20939E-004	8	..........a	0	-327.74
	7744	15.49	-2.75298E-001	-1.48548E-005	0.00000E+000	-2.74400E-001	-8.20939E-004	8	..........a	0	-327.74
	7776	15.554	-2.78573E-001	-1.52693E-005	0.00000E+000	-2.77600E-001	-8.04272E-004	8	..........a	0	-327.74
	7808	15.618	-2.81690E-001	-1.60018E-005	0.00000E+000	-2.80800E-001	-7.95939E-004	8	..........a	0	-327.74
	7840	15.682	-2.84928E-001	-1.64359E-005	0.00000E+000	-2.84000E-001	-8.37606E-004	8	..........a	0	-327.74
	7872	15.746	-2.88086E-001	-1.69108E-005	0.00000E+000	-2.87200E-001	-8.12605E-004	8	..........a	0	-327.74
	7904	15.81	-2.91328E-001	-1.72642E-005	0.00000E+000	-2.90400E-001	-8.54272E-004	8	..........a	0	-327.74
	7936	15.874	-2.94469E-001	-1.76816E-005	0.00000E+000	-2.93600E-001	-8.20939E-004	8	..........a	0	-327.74
	7968	15.938	-2.97707E-001	-1.82295E-005	0.00000E+000	-2.96800E-001	-7.54272E-004	8	..........a	0	-327.74
	8000	16.002	-3.00898E-001	-1.86065E-005	0.00000E+000	-3.00000E-001	-7.87605E-004	8	..........a	0	-327.74
	8032	16.066	-3.04073E-001	-1.89894E-005	0.00000E+000	-3.03200E-001	-8.20939E-004	8	..........a	0	-327.74
	8064	16.13	-3.07290E-001	-1.96740E-005	0.00000E+000	-3.06400E-001	-8.20939E-004	8	..........a	0	-327.74
	8096	16.194	-3.10503E-001	-1.99598E-005	0.00000E+000	-3.09600E-001	-8.45939E-004	8	..........a	0	-327.74
	8128	16.258	-3.13728E-001	-2.03114E-005	0.00000E+000	-3.12800E-001	-8.29272E-004	8	..........a	0	-327.74
	8160	16.322	-3.16953E-001	-2.07585E-005	0.00000E+000	-3.16000E-001	-8.12605E-004	8	..........a	0	-327.74
	8192	16.386	-3.20061E-001	-2.11638E-005	0.00000E+000	-3.19200E-001	-8.45939E-004	8	..........a	0	-327.74
	8224	16.45	-3.23269E-001	-2.15726E-005	0.00000E+000	-3.22400E-001	-8.04272E-004	8	..........a	0	-327.74
	8256	16.514	-3.26503E-001	-2.19275E-005	0.00000E+000	-3.25600E-001	-8.04272E-004	8	..........a	0	-327.74
	8288	16.578	-3.29711E-001	-2.23942E-005	0.00000E+000	-3.28800E-001	-7.87605E-004	8	..........a	0	-327.74
	8320	16.642	-3.32861E-001	-2.27504E-005	0.00000E+000	-3.32000E-001	-7.95939E-004	8	..........a	0	-327.74
	8352	16.706	-3.36065E-001	-2.31179E-005	0.00000E+000	-3.35200E-001	-8.37606E-004	8	..........a	0	-327.74
	8384	16.77	-3.39303E-001	-2.34941E-005	0.00000E+000	-3.38400E-001	-8.04272E-004	8	..........a	0	-327.74
	8416	16.834	-3.42540E-001	-2.38636E-005	0.00000E+000	-3.41600E-001	-7.54272E-004	8	..........a	0	-327.74
	8448	16.898	-3.45678E-001	-2.43465E-005	0.00000E+000	-3.44800E-001	-8.29272E-004	8	..........a	0	-327.74
	8480	16.962	-3.48873E-001	-2.45557E-005	0.00000E+000	-3.48000E-001	-7.87605E-004	8	..........a	0	-327.74
	8512	17.026	-3.52061E-001	-2.50189E-005	0.00000E+000	-3.51200E-001	-7.70939E-004	8	..........a	0	-327.74
	8544	17.09	-3.55265E-001	-2.52810E-005	0.00000E+000	-3.54400E-001	-7.54272E-004	8	..........a	0	-327.74
	8576	17.154	-3.58440E-001	-2.56889E-005	0.00000E+000	-3.57600E-001	-8.37606E-004	8	..........a	0	-327.74
	8608	17.218	-3.61644E-001	-2.61609E-005	0.00000E+000	-3.60800E-001	-7.87605E-004	8	..........a	0	-327.74
	8640	17.282	-3.64890E-001	-2.65259E-005	0.00000E+000	-3.64000E-001	-8.45939E-004	8	..........a	0	-327.74
	8672	17.346	-3.68107E-001	-2.69517E-005	0.00000E+000	-3.67200E-001	-8.20939E-004	8	..........a	0	-327.74
	8704	17.41	-3.71236E-001	-2.74071E-005	0.00000E+000	-3.70400E-001	-7.95939E-004	8	..........a	0	-327.74
	8736	17.474	-3.74465E-001	-2.78979E-005	0.00000E+000	-3.73600E-001	-7.62605E-004	8	..........a	0	-327.74
	8768	17.538	-3.77686E-001	-2.83062E-005	0.00000E+000	-3.76800E-001	-8.04272E-004	8	..........a	0	-327.74
	8800	17.602	-3.80857E-001	-2.89849E-005	0.00000E+000	-3.80000E-001	-8.12605E-004	8	..........a	0	-327.74
	8832	17.666	-3.84061E-001	-2.95952E-005	0.00000E+000	-3.83200E-001	-8.20939E-004	8	..........a	0	-327.74
	8864	17.73	-3.87286E-001	-3.01802E-005	0.00000E+000	-3.86400E-001	-8.29272E-004	8	..........a	0	-327.74
	8896	17.794	-3.90415E-001	-3.10239E-005	0.00000E+000	-3.89600E-001	-7.95939E-004	8	..........a	0	-327.74
	8928	17.858	-3.93736E-001	-3.17509E-005	0.00000E+000	-3.92800E-001	-8.37606E-004	8	..........a	0	-327.74
	8960	17.922	-3.96836E-001	-3.26154E-005	0.00000E+000	-3.96000E-001	-8.12605E-004	8	..........a	0	-327.74
	8992	17.986	-4.00053E-001	-3.36291E-005	0.00000E+000	-3.99200E-001	-8.29272E-004	8	..........a	0	-327.74
	9024	18.05	-4.03248E-001	-3.47098E-005	0.00000E+000	-4.02400E-001	-8.04272E-004	8	..........a	0	-327.74
	9056	18.114	-4.06453E-001	-3.59756E-005	0.00000E+000	-4.05600E-001	-8.20939E-004	8	..........a	0	-327.74
	9088	18.178	-4.09632E-001	-3.71917E-005	0.00000E+000	-4.08800E-001	-8.20939E-004	8	..........a	0	-327.74
	9120	18.242	-4.12848E-001	-3.84954E-005	0.00000E+000	-4.12000E-001	-8.37606E-004	8	..........a	0	-327.74
	9152	18.306	-4.16003E-001	-4.01706E-005	0.00000E+000	-4.15200E-001	-8.04272E-004	8	..........a	0	-327.74
	9184	18.37	-4.19248E-001	-4.14880E-005	0.00000E+000	-4.18400E-001	-7.79272E-004	8	..........a	0	-327.74
	9216	18.434	-4.22407E-001	-4.30804E-005	0.00000E+000	-4.21600E-001	-8.20939E-004	8	..........a	0	-327.74
	9248	18.498	-4.25607E-001	-4.49536E-005	0.00000E+000	-4.24800E-001	-8.29272E-004	8	..........a	0	-327.74
	9280	18.562	-4.28840E-001	-4.69905E-005	0.00000E+000	-4.28000E-001	-7.37606E-004	8	..........a	0	-327.74
	9312	18.626	-4.32019E-001	-4.89599E-005	0.00000E+000	-4.31200E-001	-7.79272E-004	8	..........a	0	-327.74
	9344	18.69	-4.35207E-001	-5.09065E-005	0.00000E+000	-4.34400E-001	-7.37606E-004	8	..........a	0	-327.74
	9376	18.754	-4.38394E-001	-5.30229E-005	0.00000E+000	-4.37600E-001	-8.12605E-004	8	..........a	0	-327.74
	9408	18.818	-4.41619E-001	-5.52144E-005	0.00000E+000	-4.40800E-001	-7.87605E-004	8	..........a	0	-327.74
	9440	18.882	-4.44823E-001	-5.72718E-005	0.00000E+000	-4.44000E-001	-7.79272E-004	8	..........a	0	-327.74
	9472	18.946	-4.47973E-001	-5.94820E-005	0.00000E+000	-4.47200E-001	-8.12605E-004	8	..........a	0	-327.74
	9504	19.01	-4.51186E-001	-6.18602E-005	0.00000E+000	-4.50400E-001	-8.45939E-004	8	..........a	0	-327.74
	9536	19.074	-4.54390E-001	-6.43783E-005	0.00000E+000	-4.53600E-001	-8.04272E-004	8	..........a	0	-327.74
	9568	19.138	-4.57607E-001	-6.69997E-005	0.00000E+000	-4.56800E-001	-8.29272E-004	8	..........a	0	-327.74
	9600	19.202	-4.60786E-001	-6.95187E-005	0.00000E+000	-4.60000E-001	-8.12605E-004	8	..........a	0	-327.74
	9632	19.266	-4.63982E-001	-7.22439E-005	0.00000E+000	-4.63200E-001	-8.04272E-004	8	..........a	0	-327.74
	9664	19.33	-4.67178E-001	-7.47962E-005	0.00000E+000	-4.66400E-001	-7.95939E-004	8	..........a	0	-327.74
	9696	19.394	-4.70378E-001	-7.78922E-005	0.00000E+000	-4.69600E-001	-8.04272E-004	8	..........a	0	-327.74
	9728	19.458	-4.73573E-001	-8.07507E-005	0.00000E+000	-4.72800E-001	-7.95939E-004	8	..........a	0	-327.74
	9760	19.522	-4.76757E-001	-8.37359E-005	0.00000E+000	-4.76000E-001	-8.04272E-004	8	..........a	0	-327.74
	9792	19.586	-4.79978E-001	-8.68423E-005	0.00000E+000	-4.79200E-001	-7.87605E-004	8	..........a	0	-327.74
	9824	19.65	-4.83182E-001	-9.01358E-005	0.00000E+000	-4.82400E-001	-7.79272E-004	8	..........a	0	-327.74
	9856	19.714	-4.86378E-001	-9.32435E-005	0.00000E+000	-4.85600E-001	-7.70939E-004	8	..........a	0	-327.74
	9888	19.778	-4.89582E-001	-9.71632E-005	0.00000E+000	-4.88800E-001	-8.20939E-004	8	..........a	0	-327.74
	9920	19.842	-4.92765E-001	-1.00655E-004	0.00000E+000	-4.92000E-001	-7.87605E-004	8	..........a	0	-327.74
	9952	19.906	-4.95944E-001	-1.04703E-004	0.00000E+000	-4.95200E-001	-8.04272E-004	8	..........a	0	-327.74
	9984	19.97	-4.99119E-001	-1.08996E-004	0.00000E+000	-4.98400E-001	-8.04272E-004	8	..........a	0	-327.74
	10016	20.034	-5.02348E-001	-1.13683E-004	0.00000E+000	-5.01600E-001	-7.70939E-004	8	..........a	0	-327.74
	10048	20.098	-5.05569E-001	-1.18503E-004	0.00000E+000	-5.04800E-001	-7.95939E-004	8	..........a	0	-327.74
	10080	20.162	-5.08744E-001	-1.23429E-004	0.00000E+000	-5.08000E-001	-7.37606E-004	8	..........a	0	-327.74
	10112	20.226	-5.11932E-001	-1.28840E-004	0.00000E+000	-5.11200E-001	-7.70939E-004	8	..........a	0	-327.74
	10144	20.29	-5.15144E-001	-1.34303E-004	0.00000E+000	-5.14400E-001	-8.20939E-004	8	..........a	0	-327.74
	10176	20.354	-5.18323E-001	-1.40406E-004	0.00000E+000	-5.17600E-001	-7.95939E-004	8	..........a	0	-327.74
	10208	20.418	-5.21557E-001	-1.46850E-004	0.00000E+000	-5.20800E-001	-8.12605E-004	8	..........a	0	-327.74
	10240	20.482	-5.24661E-001	-1.53342E-004	0.00000E+000	-5.24000E-001	-7.70939E-004	8	..........a	0	-327.74
	10272	20.546	-5.27873E-001	-1.60201E-004	0.00000E+000	-5.27200E-001	-7.95939E-004	8	..........a	0	-327.74
	10304	20.61	-5.31098E-001	-1.67098E-004	0.00000E+000	-5.30400E-001	-7.79272E-004	8	..........a	0	-327.74
	10336	20.674	-5.34286E-001	-1.74137E-004	0.00000E+000	-5.33600E-001	-8.20939E-004	8	..........a	0	-327.74
	10368	20.738	-5.37482E-001	-1.81256E-004	0.00000E+000	-5.36800E-001	-8.62605E-004	8	..........a	0	-327.74
	10400	20.802	-5.40640E-001	-1.88677E-004	0.00000E+000	-5.40000E-001	-7.95939E-004	8	..........a	0	-327.74
	10432	20.866	-5.43873E-001	-1.96366E-004	0.00000E+000	-5.43200E-001	-7.70939E-004	8	..........a	0	-327.74
	10464	20.93	-5.47069E-001	-2.04139E-004	0.00000E+000	-5.46400E-001	-7.95939E-004	8	..........a	0	-327.74
	10496	20.994	-5.50207E-001	-2.11701E-004	0.00000E+000	-5.49600E-001	-7.79272E-004	8	..........a	0	-327.74
	10528	21.058	-5.53394E-001	-2.18769E-004	0.00000E+000	-5.52800E-001	-8.04272E-004	8	..........a	0	-327.74
	10560	21.122	-5.56573E-001	-2.26271E-004	0.00000E+000	-5.56000E-001	-7.87605E-004	8	..........a	0	-327.74
	10592	21.186	-5.59790E-001	-2.33212E-004	0.00000E+000	-5.59200E-001	-8.20939E-004	8	..........a	0	-327.74
	10624	21.25	-5.62973E-001	-2.40165E-004	0.00000E+000	-5.62400E-001	-8.20939E-004	8	..........a	0	-327.74
	10656	21.314	-5.66128E-001	-2.46434E-004	0.00000E+000	-5.65600E-001	-8.37606E-004	8	..........a	0	-327.74
	10688	21.378	-5.69378E-001	-2.52428E-004	0.00000E+000	-5.68800E-001	-8.37606E-004	8	..........a	0	-327.74
	10720	21.442	-5.72532E-001	-2.57913E-004	0.00000E+000	-5.72000E-001	-8.54272E-004	8	..........a	0	-327.74
	10752	21.506	-5.75648E-001	-2.63066E-004	0.00000E+000	-5.75200E-001	-8.37606E-004	8	..........a	0	-327.74
	10784	21.57	-5.79200E-001	-2.69121E-004	0.00000E+000	-5.78400E-001	-8.79272E-004	9	..........a	0	-327.74
	10816	21.634	-5.82392E-001	-2.73776E-004	0.00000E+000	-5.81600E-001	-7.79272E-004	9	..........a	0	-327.74
	10848	21.698	-5.85550E-001	-2.78928E-004	0.00000E+000	-5.84800E-001	-7.62605E-004	9	..........a	0	-327.74
	10880	21.762	-5.88767E-001	-2.84060E-004	0.00000E+000	-5.88000E-001	-8.12605E-004	9	..........a	0	-327.74
	10912	21.826	-5.91967E-001	-2.88673E-004	0.00000E+000	-5.91200E-001	-8.20939E-004	9	..........a	0	-327.74
	10944	21.89	-5.95150E-001	-2.92743E-004	0.00000E+000	-5.94400E-001	-7.79272E-004	9	..........a	0	-327.74
	10976	21.954	-5.98342E-001	-2.96232E-004	0.00000E+000	-5.97600E-001	-8.62605E-004	9	..........a	0	-327.74
	11008	22.018	-6.01546E-001	-2.99045E-004	0.00000E+000	-6.00800E-001	-7.95939E-004	9	..........a	0	-327.74
	11040	22.082	-6.04775E-001	-3.01552E-004	0.00000E+000	-6.04000E-001	-7.87605E-004	9	..........a	0	-327.74
	11072	22.146	-6.07979E-001	-3.03846E-004	0.00000E+000	-6.07200E-001	-8.04272E-004	9	..........a	0	-327.74
	11104	22.21	-6.11179E-001	-3.06466E-004	0.00000E+000	-6.10400E-001	-7.62605E-004	9	..........a	0	-327.74
	11136	22.274	-6.14337E-001	-3.08200E-004	0.00000E+000	-6.13600E-001	-8.20939E-004	9	..........a	0	-327.74
	11168	22.338	-6.17542E-001	-3.09646E-004	0.00000E+000	-6.16800E-001	-8.04272E-004	9	..........a	0	-327.74
	11200	22.402	-6.20729E-001	-3.11430E-004	0.00000E+000	-6.20000E-001	-7.45939E-004	9	..........a	0	-327.74
	11232	22.466	-6.23942E-001	-3.13336E-004	0.00000E+000	-6.23200E-001	-8.29272E-004	9	..........a	0	-327.74
	11264	22.53	-6.27125E-001	-3.14886E-004	0.00000E+000	-6.26400E-001	-7.62605E-004	9	..........a	0	-327.74
	11296	22.594	-6.30325E-001	-3.15960E-004	0.00000E+000	-6.29600E-001	-7.95939E-004	9	..........a	0	-327.74
	11328	22.658	-6.33571E-001	-3.16821E-004	0.00000E+000	-6.32800E-001	-7.95939E-004	9	..........a	0	-327.74
	11360	22.722	-6.36737E-001	-3.17661E-004	0.00000E+000	-6.36000E-001	-8.04272E-004	9	..........a	0	-327.74
	11392	22.786	-6.39929E-001	-3.18279E-004	0.00000E+000	-6.39200E-001	-7.87605E-004	9	..........a	0	-327.74
	11424	22.85	-6.43133E-001	-3.19671E-004	0.00000E+000	-6.42400E-001	-7.45939E-004	9	..........a	0	-327.74
	11456	22.914	-6.46317E-001	-3.21334E-004	0.00000E+000	-6.45600E-001	-7.95939E-004	9	..........a	0	-327.74
	11488	22.978	-6.49529E-001	-3.22821E-004	0.00000E+000	-6.48800E-001	-8.12605E-004	9	..........a	0	-327.74
	11520	23.042	-6.52721E-001	-3.23340E-004	0.00000E+000	-6.52000E-001	-8.12605E-004	9	..........a	0	-327.74
	11552	23.106	-6.55908E-001	-3.23991E-004	0.00000E+000	-6.55200E-001	-7.95939E-004	9	..........a	0	-327.74
	11584	23.17	-6.59146E-001	-3.23741E-004	0.00000E+000	-6.58400E-001	-8.04272E-004	9	..........a	0	-327.74
	11616	23.234	-6.62342E-001	-3.23415E-004	0.00000E+000	-6.61600E-001	-8.37606E-004	9	..........a	0	-327.74
	11648	23.298	-6.65550E-001	-3.23314E-004	0.00000E+000	-6.64800E-001	-8.20939E-004	9	..........a	0	-327.74
	11680	23.362	-6.68767E-001	-3.24255E-004	0.00000E+000	-6.68000E-001	-7.95939E-004	9	..........a	0	-327.74
	11712	23.426	-6.71933E-001	-3.25199E-004	0.00000E+000	-6.71200E-001	-8.20939E-004	9	..........a	0	-327.74
	11744	23.49	-6.75133E-001	-3.25880E-004	0.00000E+000	-6.74400E-001	-7.95939E-004	9	..........a	0	-327.74
	11776	23.554	-6.78317E-001	-3.26574E-004	0.00000E+000	-6.77600E-001	-7.87605E-004	9	..........a	0	-327.74
	11808	23.618	-6.81521E-001	-3.26666E-004	0.00000E+000	-6.80800E-001	-8.29272E-004	9	..........a	0	-327.74
	11840	23.682	-6.84687E-001	-3.26448E-004	0.00000E+000	-6.84000E-001	-8.12605E-004	9	..........a	0	-327.74
	11872	23.746	-6.87904E-001	-3.26950E-004	0.00000E+000	-6.87200E-001	-7.70939E-004	9	..........a	0	-327.74
	11904	23.81	-6.91108E-001	-3.27109E-004	0.00000E+000	-6.90400E-001	-7.87605E-004	9	..........a	0	-327.74
	11936	23.874	-6.94354E-001	-3.27560E-004	0.00000E+000	-6.93600E-001	-8.29272E-004	9	..........a	0	-327.74
	11968	23.938	-6.97517E-001	-3.27593E-004	0.00000E+000	-6.96800E-001	-8.20939E-004	9	..........a	0	-327.74
	12000	24.002	-7.00737E-001	-3.28275E-004	0.00000E+000	-7.00000E-001	-8.12605E-004	9	..........a	0	-327.74
	12032	24.066	-7.03896E-001	-3.28684E-004	0.00000E+000	-7.03200E-001	-7.70939E-004	9	..........a	0	-327.74
	12064	24.13	-7.07083E-001	-3.29035E-004	0.00000E+000	-7.06400E-001	-8.12605E-004	9	..........a	0	-327.74
	12096	24.194	-7.10308E-001	-3.29654E-004	0.00000E+000	-7.09600E-001	-7.87605E-004	9	..........a	0	-327.74
	12128	24.258	-7.13533E-001	-3.29378E-004	0.00000E+000	-7.12800E-001	-7.45939E-004	9	..........a	0	-327.74
	12160	24.322	-7.16708E-001	-3.29089E-004	0.00000E+000	-7.16000E-001	-7.70939E-004	9	..........a	0	-327.74
	12192	24.386	-7.19921E-001	-3.29160E-004	0.00000E+000	-7.19200E-001	-8.45939E-004	9	..........a	0	-327.74
	12224	24.45	-7.23104E-001	-3.28918E-004	0.00000E+000	-7.22400E-001	-8.12605E-004	9	..........a	0	-327.74
	12256	24.514	-7.26329E-001	-3.28901E-004	0.00000E+000	-7.25600E-001	-8.37606E-004	9	..........a	0	-327.74
	12288	24.578	-7.29462E-001	-3.29745E-004	0.00000E+000	-7.28800E-001	-7.70939E-004	9	..........a	0	-327.74
	12320	24.642	-7.32708E-001	-3.29913E-004	0.00000E+000	-7.32000E-001	-8.95939E-004	9	..........a	0	-327.74
	12352	24.706	-7.35908E-001	-3.29808E-004	0.00000E+000	-7.35200E-001	-8.12605E-004	9	..........a	0	-327.74
	12384	24.77	-7.39092E-001	-3.29528E-004	0.00000E+000	-7.38400E-001	-7.95939E-004	9	..........a	0	-327.74
	12416	24.834	-7.42279E-001	-3.30180E-004	0.00000E+000	-7.41600E-001	-7.95939E-004	9	..........a	0	-327.74
	12448	24.898	-7.45525E-001	-3.30335E-004	0.00000E+000	-7.44800E-001	-8.37606E-004	9	..........a	0	-327.74
	12480	24.962	-7.48733E-001	-3.30707E-004	0.00000E+000	-7.48000E-001	-7.95939E-004	9	..........a	0	-327.74
	12512	25.026	-7.51933E-001	-3.31425E-004	0.00000E+000	-7.51200E-001	-7.95939E-004	9	..........a	0	-327.74
	12544	25.09	-7.55050E-001	-3.31814E-004	0.00000E+000	-7.54400E-001	-8.37606E-004	9	..........a	0	-327.74
	12576	25.154	-7.58275E-001	-3.31237E-004	0.00000E+000	-7.57600E-001	-7.95939E-004	9	..........a	0	-327.74
	12608	25.218	-7.61512E-001	-3.31032E-004	0.00000E+000	-7.60800E-001	-8.29272E-004	9	..........a	0	-327.74
	12640	25.282	-7.64696E-001	-3.30092E-004	0.00000E+000	-7.64000E-001	-7.70939E-004	9	..........a	0	-327.74
	12672	25.346	-7.67900E-001	-3.30168E-004	0.00000E+000	-7.67200E-001	-8.37606E-004	9	..........a	0	-327.74
	12704	25.41	-7.71075E-001	-3.30744E-004	0.00000E+000	-7.70400E-001	-7.87605E-004	9	..........a	0	-327.74
	12736	25.474	-7.74329E-001	-3.31484E-004	0.00000E+000	-7.73600E-001	-7.79272E-004	9	..........a	0	-327.74
	12768	25.538	-7.77521E-001	-3.32286E-004	0.00000E+000	-7.76800E-001	-7.95939E-004	9	..........a	0	-327.74
	12800	25.602	-7.80667E-001	-3.32788E-004	0.00000E+000	-7.80000E-001	-8.04272E-004	9	..........a	0	-327.74
	12832	25.666	-7.83875E-001	-3.33084E-004	0.00000E+000	-7.83200E-001	-8.12605E-004	9	..........a	0	-327.74
	12864	25.73	-7.87112E-001	-3.33072E-004	0.00000E+000	-7.86400E-001	-8.45939E-004	9	..........a	0	-327.74
	12896	25.794	-7.90300E-001	-3.32942E-004	0.00000E+000	-7.89600E-001	-7.37606E-004	9	..........a	0	-327.74
	12928	25.858	-7.93471E-001	-3.33276E-004	0.00000E+000	-7.92800E-001	-8.04272E-004	9	..........a	0	-327.74
	12960	25.922	-7.96692E-001	-3.33151E-004	0.00000E+000	-7.96000E-001	-8.12605E-004	9	..........a	0	-327.74
	12992	25.986	-7.99917E-001	-3.32951E-004	0.00000E+000	-7.99200E-001	-8.12605E-004	9	..........a	0	-327.74
	13024	26.05	-8.03137E-001	-3.32900E-004	0.00000E+000	-8.02400E-001	-7.45939E-004	9	..........a	0	-327.74
	13056	26.114	-8.06287E-001	-3.32750E-004	0.00000E+000	-8.05600E-001	-7.62605E-004	9	..........a	0	-327.74
	13088	26.178	-8.09483E-001	-3.32253E-004	0.00000E+000	-8.08800E-001	-8.29272E-004	9	..........a	0	-327.74
	13120	26.242	-8.12675E-001	-3.32044E-004	0.00000E+000	-8.12000E-001	-7.79272E-004	9	..........a	0	-327.74
	13152	26.306	-8.15900E-001	-3.32294E-004	0.00000E+000	-8.15200E-001	-7.79272E-004	9	..........a	0	-327.74
	13184	26.37	-8.19067E-001	-3.33097E-004	0.00000E+000	-8.18400E-001	-8.37606E-004	9	..........a	0	-327.74
	13216	26.434	-8.22246E-001	-3.33627E-004	0.00000E+000	-8.21600E-001	-7.54272E-004	9	..........a	0	-327.74
	13248	26.498	-8.25400E-001	-3.33732E-004	0.00000E+000	-8.24800E-001	-7.79272E-004	9	..........a	0	-327.74
	13280	26.562	-8.28658E-001	-3.33991E-004	0.00000E+000	-8.28000E-001	-8.20939E-004	9	..........a	0	-327.74
	13312	26.626	-8.31787E-001	-3.33669E-004	0.00000E+000	-8.31200E-001	-8.37606E-004	9	..........a	0	-327.74
	13344	26.69	-8.35000E-001	-3.33682E-004	0.00000E+000	-8.34400E-001	-8.29272E-004	9	..........a	0	-327.74
	13376	26.754	-8.38246E-001	-3.33293E-004	0.00000E+000	-8.37600E-001	-8.37606E-004	9	..........a	0	-327.74
	13408	26.818	-8.41412E-001	-3.33636E-004	0.00000E+000	-8.40800E-001	-8.29272E-004	9	..........a	0	-327.74
	13440	26.882	-8.44558E-001	-3.33573E-004	0.00000E+000	-8.44000E-001	-7.87605E-004	9	..........a	0	-327.74
	13472	26.946	-8.47867E-001	-3.33134E-004	0.00000E+000	-8.47200E-001	-8.29272E-004	9	..........a	0	-327.74
	13504	27.01	-8.51071E-001	-3.33105E-004	0.00000E+000	-8.50400E-001	-8.20939E-004	9	..........a	0	-327.74
	13536	27.074	-8.54212E-001	-3.33744E-004	0.00000E+000	-8.53600E-001	-8.29272E-004	9	..........a	0	-327.74
	13568	27.138	-8.57396E-001	-3.33999E-004	0.00000E+000	-8.56800E-001	-7.87605E-004	9	..........a	0	-327.74
	13600	27.202	-8.60612E-001	-3.33866E-004	0.00000E+000	-8.60000E-001	-8.04272E-004	9	..........a	0	-327.74
	13632	27.266	-8.63812E-001	-3.33485E-004	0.00000E+000	-8.63200E-001	-7.87605E-004	9	..........a	0	-327.74
	13664	27.33	-8.67021E-001	-3.33824E-004	0.00000E+000	-8.66400E-001	-7.95939E-004	9	..........a	0	-327.74
	13696	27.394	-8.70233E-001	-3.33051E-004	0.00000E+000	-8.69600E-001	-8.37606E-004	9	..........a	0	-327.74
	13728	27.458	-8.73392E-001	-3.31948E-004	0.00000E+000	-8.72800E-001	-7.62605E-004	9	..........a	0	-327.74
	13760	27.522	-8.76637E-001	-3.32595E-004	0.00000E+000	-8.76000E-001	-8.20939E-004	9	..........a	0	-327.74
	13792	27.586	-8.79771E-001	-3.33753E-004	0.00000E+000	-8.79200E-001	-8.37606E-004	9	..........a	0	-327.74
	13824	27.65	-8.82942E-001	-3.34242E-004	0.00000E+000	-8.82400E-001	-8.29272E-004	9	..........a	0	-327.74
	13856	27.714	-8.86192E-001	-3.34906E-004	0.00000E+000	-8.85600E-001	-7.70939E-004	9	..........a	0	-327.74
	13888	27.778	-8.89412E-001	-3.34564E-004	0.00000E+000	-8.88800E-001	-7.70939E-004	9	..........a	0	-327.74
	13920	27.842	-8.92625E-001	-3.34388E-004	0.00000E+000	-8.92000E-001	-8.45939E-004	9	..........a	0	-327.74
	13952	27.906	-8.95829E-001	-3.34121E-004	0.00000E+000	-8.95200E-001	-8.29272E-004	9	..........a	0	-327.74
	13984	27.97	-8.99000E-001	-3.33853E-004	0.00000E+000	-8.98400E-001	-7.79272E-004	9	..........a	0	-327.74
	14016	28.034	-9.02262E-001	-3.34192E-004	0.00000E+000	-9.01600E-001	-7.12606E-004	9	..........a	0	-327.74
	14048	28.098	-9.05396E-001	-3.34948E-004	0.00000E+000	-9.04800E-001	-7.95939E-004	9	..........a	0	-327.74
	14080	28.162	-9.08533E-001	-3.35583E-004	0.00000E+000	-9.08000E-001	-8.12605E-004	9	..........a	0	-327.74
	14112	28.226	-9.11804E-001	-3.35399E-004	0.00000E+000	-9.11200E-001	-7.87605E-004	9	..........a	0	-327.74
	14144	28.29	-9.15004E-001	-3.35784E-004	0.00000E+000	-9.14400E-001	-7.87605E-004	9	..........a	0	-327.74
	14176	28.354	-9.18204E-001	-3.35863E-004	0.00000E+000	-9.17600E-001	-8.04272E-004	9	..........a	0	-327.74
	14208	28.418	-9.21400E-001	-3.35562E-004	0.00000E+000	-9.20800E-001	-8.37606E-004	9	..........a	0	-327.74
	14240	28.482	-9.24554E-001	-3.35253E-004	0.00000E+000	-9.24000E-001	-7.79272E-004	9	..........a	0	-327.74
	14272	28.546	-9.27792E-001	-3.35420E-004	0.00000E+000	-9.27200E-001	-8.62605E-004	9	..........a	0	-327.74
	14304	28.61	-9.31083E-001	-3.35784E-004	0.00000E+000	-9.30400E-001	-7.62605E-004	9	..........a	0	-327.74
	14336	28.674	-9.34154E-001	-3.36202E-004	0.00000E+000	-9.33600E-001	-8.12605E-004	9	..........a	0	-327.74
	14368	28.738	-9.37350E-001	-3.35575E-004	0.00000E+000	-9.36800E-001	-7.45939E-004	9	..........a	0	-327.74
	14400	28.802	-9.40567E-001	-3.35098E-004	0.00000E+000	-9.40000E-001	-7.87605E-004	9	..........a	0	-327.74
	14432	28.866	-9.43775E-001	-3.35149E-004	0.00000E+000	-9.43200E-001	-7.79272E-004	9	..........a	0	-327.74
	14464	28.93	-9.46996E-001	-3.35516E-004	0.00000E+000	-9.46400E-001	-7.95939E-004	9	..........a	0	-327.74
	14496	28.994	-9.50204E-001	-3.34685E-004	0.00000E+000	-9.49600E-001	-8.12605E-004	9	..........a	0	-327.74
	14528	29.058	-9.53467E-001	-3.34459E-004	0.00000E+000	-9.52800E-001	-8.20939E-004	9	..........a	0	-327.74
	14560	29.122	-9.56612E-001	-3.34714E-004	0.00000E+000	-9.56000E-001	-8.29272E-004	9	..........a	0	-327.74
	14592	29.186	-9.59704E-001	-3.35115E-004	0.00000E+000	-9.59200E-001	-8.37606E-004	9	..........a	0	-327.74
	14624	29.25	-9.62958E-001	-3.34839E-004	0.00000E+000	-9.62400E-001	-8.29272E-004	9	..........a	0	-327.74
	14656	29.314	-9.66167E-001	-3.34843E-004	0.00000E+000	-9.65600E-001	-7.95939E-004	9	..........a	0	-327.74
	14688	29.378	-9.69375E-001	-3.35842E-004	0.00000E+000	-9.68800E-001	-8.20939E-004	9	..........a	0	-327.74
	14720	29.442	-9.72587E-001	-3.36385E-004	0.00000E+000	-9.72000E-001	-8.20939E-004	9	..........a	0	-327.74
	14752	29.506	-9.75746E-001	-3.37029E-004	0.00000E+000	-9.75200E-001	-8.12605E-004	9	..........a	0	-327.74
	14784	29.57	-9.78996E-001	-3.37626E-004	0.00000E+000	-9.78400E-001	-8.04272E-004	9	..........a	0	-327.74
	14816	29.634	-9.82225E-001	-3.37246E-004	0.00000E+000	-9.81600E-001	-7.95939E-004	9	..........a	0	-327.74
	14848	29.698	-9.85337E-001	-3.37413E-004	0.00000E+000	-9.84800E-001	-7.79272E-004	9	..........a	0	-327.74
	14880	29.762	-9.88554E-001	-3.37919E-004	0.00000E+000	-9.88000E-001	-8.62605E-004	9	..........a	0	-327.74
	14912	29.826	-9.91758E-001	-3.37656E-004	0.00000E+000	-9.91200E-001	-7.95939E-004	9	..........a	0	-327.74
	14944	29.89	-9.94958E-001	-3.37760E-004	0.00000E+000	-9.94400E-001	-7.95939E-004	9	..........a	0	-327.74
	14976	29.954	-9.98129E-001	-3.37359E-004	0.00000E+000	-9.97600E-001	-8.29272E-004	9	..........a	0	-327.74
	15000	30.002	-1.00050E+000	-3.36682E-004	0.00000E+000	-1.00000E+000	-8.54272E-004	9	..........a	0	-327.74