File: data/02-SI/Figures_S9_S11_RDE/15btmapaq-rde/1mkcl-5mmolar15btmapaq-nitrogen-rde400mvpers-50mvpers.DTA
EXPLAIN
TAG	LSV
TITLE	LABEL	Linear Sweep Voltammetry	Test &Identifier
DATE	LABEL	1/31/2023	Date
TIME	LABEL	18:23:51	Time
NOTES	NOTES	1	&Notes...

PSTAT	PSTAT	REF3000-21108	Potentiostat
VINIT	POTEN	5.00000E-001	F	&Initial E (V)
VFINAL	POTEN	-1.00000E+000	F	&Final E (V)
SCANRATE	QUANT	4.99999E+001	&Scan Rate (mV/s)
STEPSIZE	QUANT	1.00000E-001	St&ep Size (mV)
IMODE	SELECTOR	0	I/E Range &Mode
IRANGE	QUANT	1.00000E+002	&Max Current (mA)
AREA	QUANT	1.00000E+000	Electrode &Area (cm^2)
ELECTRODETYPE	SELECTOR	0	Electrode Type
STRIPPING	TOGGLE	F	Used for Stripping
POLARITY	TOGGLE	F	Signal Polarity
CONDIT	TWOPARAM	F	1.50000E+001	0.00000E+000	Conditionin&g	Time(s)	E(V)
DELAY	TWOPARAM	F	3.00000E+001	0.00000E+000	Init. De&lay	Time(s)	Stab.(mV/s)
EQDELAY	QUANT	0.00000E+000	Equil. &Time (s)
IRCOMP	SELECTOR	0	IRCom&p
PFCOR	QUANT	5.00000E+001	PF Corr. (ohm)
SAMPLINGMODE	SELECTOR	1	Sampling &Mode
EOC	QUANT	0	Open Circuit (V)
PSTATMODEL	IQUANT	5	Pstat Model
PSTATSECTION	LABEL	REF3000-21108	Pstat Section
PSTATSERIALNO	LABEL	21108	Pstat Serial Number
CTRLMODE	IQUANT	1	Control Mode
ELECTROMETER	IQUANT	0	RE=0 or CS=1
IESTAB	IQUANT	2	I/E Stability
CASPEED	IQUANT	4	Control Amp Speed
CONVENTION	IQUANT	1	Current Convention
ICHRANGE	IQUANT	2	Ich Range
ICHRANGEMODE	TOGGLE	F	Ich Auto Range
ICHOFFSETENABLE	TOGGLE	F	Ich Offset Enable
ICHOFFSET	QUANT	0	Ich Offset (V)
ICHFILTER	IQUANT	2	Ich Filter
VCHRANGE	IQUANT	2	Vch Range
VCHRANGEMODE	TOGGLE	T	Vch Auto Range
VCHOFFSETENABLE	TOGGLE	F	Vch Offset Enable
VCHOFFSET	QUANT	0	Vch Offset (V)
VCHFILTER	IQUANT	2	Vch Filter
ACHRANGE	IQUANT	2	Ach Range
ACHOFFSETENABLE	TOGGLE	F	Ach Offset Enable
ACHOFFSET	QUANT	0	Ach Offset (V)
ACHFILTER	IQUANT	0	Ach Filter
IERANGELOWERLIMIT	IQUANT	2	I/E Range Lower Limit
IERANGEMODE	TOGGLE	T	I/E AutoRange
IERANGE	IQUANT	11	I/E Range
POSFEEDENABLE	TOGGLE	F	Positive Feedback IR Comp
POSFEEDRESISTANCE	QUANT	0	Positive Feedback Resistance (ohm)
ACHSELECT	IQUANT	0	Ach Select
SENSECABLEID	IQUANT	14	Sense Cable ID
PWRCABLEID	IQUANT	7	Power Cable ID
DCCALDATE	LABEL	11/9/2022	DC Calibration Date
ACCALDATE	LABEL	11/9/2022	AC Calibration Date
THERMOSELECT	IQUANT	1	Thermo Select
FRAMEWORKVERSION	LABEL	7.8.2	Framework Version
INSTRUMENTVERSION	LABEL	4.40	Instrument Version
COMPLIANCEVOLTAGE	IQUANT	0	Compliance Voltage
CURVE	TABLE	15001
	Pt	T	Vf	Im	Vu	Sig	Ach	IERange	Over	Cycle	Temp
	#	s	V vs. Ref.	A	V	V	V	#	bits	#	deg C
	0	0.002	4.99788E-001	-5.29867E-005	0.00000E+000	5.00000E-001	-7.95939E-004	11	..........a	0	-327.74
	32	0.066	4.95572E-001	8.90041E-006	0.00000E+000	4.96800E-001	-8.29272E-004	8	..........a	0	-327.74
	64	0.13	4.92377E-001	5.82608E-006	0.00000E+000	4.93600E-001	-8.62605E-004	8	..........a	0	-327.74
	96	0.194	4.89193E-001	4.43827E-006	0.00000E+000	4.90400E-001	-8.70939E-004	8	..........a	0	-327.74
	128	0.258	4.86027E-001	3.55292E-006	0.00000E+000	4.87200E-001	-8.37606E-004	8	..........a	0	-327.74
	160	0.322	4.82810E-001	2.94756E-006	0.00000E+000	4.84000E-001	-8.45939E-004	8	..........a	0	-327.74
	192	0.386	4.79602E-001	2.57425E-006	0.00000E+000	4.80800E-001	-9.20939E-004	8	..........a	0	-327.74
	224	0.45	4.76410E-001	2.21970E-006	0.00000E+000	4.77600E-001	-8.04272E-004	8	..........a	0	-327.74
	256	0.514	4.73185E-001	1.95014E-006	0.00000E+000	4.74400E-001	-8.54272E-004	8	..........a	0	-327.74
	288	0.578	4.69981E-001	1.65724E-006	0.00000E+000	4.71200E-001	-8.37606E-004	8	..........a	0	-327.74
	320	0.642	4.66785E-001	1.61016E-006	0.00000E+000	4.68000E-001	-8.54272E-004	8	..........a	0	-327.74
	352	0.706	4.63610E-001	1.64058E-006	0.00000E+000	4.64800E-001	-8.70939E-004	8	..........a	0	-327.74
	384	0.77	4.60402E-001	1.33394E-006	0.00000E+000	4.61600E-001	-8.54272E-004	8	..........a	0	-327.74
	416	0.834	4.57202E-001	1.20103E-006	0.00000E+000	4.58400E-001	-8.54272E-004	8	..........a	0	-327.74
	448	0.898	4.54010E-001	1.16520E-006	0.00000E+000	4.55200E-001	-8.37606E-004	8	..........a	0	-327.74
	480	0.962	4.50810E-001	1.09729E-006	0.00000E+000	4.52000E-001	-8.45939E-004	8	..........a	0	-327.74
	512	1.026	4.47581E-001	1.04813E-006	0.00000E+000	4.48800E-001	-8.54272E-004	8	..........a	0	-327.74
	544	1.09	4.44389E-001	1.01605E-006	0.00000E+000	4.45600E-001	-8.04272E-004	8	..........a	0	-327.74
	576	1.154	4.41227E-001	9.11470E-007	0.00000E+000	4.42400E-001	-8.45939E-004	8	..........a	0	-327.74
	608	1.218	4.37972E-001	8.08145E-007	0.00000E+000	4.39200E-001	-8.45939E-004	8	..........a	0	-327.74
	640	1.282	4.34835E-001	7.88563E-007	0.00000E+000	4.36000E-001	-8.45939E-004	8	..........a	0	-327.74
	672	1.346	4.31606E-001	7.63149E-007	0.00000E+000	4.32800E-001	-8.79272E-004	8	..........a	0	-327.74
	704	1.41	4.28427E-001	6.09411E-007	0.00000E+000	4.29600E-001	-8.29272E-004	8	..........a	0	-327.74
	736	1.474	4.25214E-001	7.07320E-007	0.00000E+000	4.26400E-001	-8.37606E-004	8	..........a	0	-327.74
	768	1.538	4.22010E-001	6.13577E-007	0.00000E+000	4.23200E-001	-8.45939E-004	8	..........a	0	-327.74
	800	1.602	4.18831E-001	5.71497E-007	0.00000E+000	4.20000E-001	-8.37606E-004	8	..........a	0	-327.74
	832	1.666	4.15593E-001	6.27743E-007	0.00000E+000	4.16800E-001	-8.62605E-004	8	..........a	0	-327.74
	864	1.73	4.12385E-001	5.12335E-007	0.00000E+000	4.13600E-001	-8.37606E-004	8	..........a	0	-327.74
	896	1.794	4.09218E-001	4.65256E-007	0.00000E+000	4.10400E-001	-8.29272E-004	8	..........a	0	-327.74
	928	1.858	4.06014E-001	4.76088E-007	0.00000E+000	4.07200E-001	-8.04272E-004	8	..........a	0	-327.74
	960	1.922	4.02831E-001	4.30259E-007	0.00000E+000	4.04000E-001	-8.70939E-004	8	..........a	0	-327.74
	992	1.986	3.99647E-001	4.11510E-007	0.00000E+000	4.00800E-001	-8.95939E-004	8	..........a	0	-327.74
	1024	2.05	3.96410E-001	3.44432E-007	0.00000E+000	3.97600E-001	-7.95939E-004	8	..........a	0	-327.74
	1056	2.114	3.93218E-001	3.49015E-007	0.00000E+000	3.94400E-001	-8.29272E-004	8	..........a	0	-327.74
	1088	2.178	3.90002E-001	3.79429E-007	0.00000E+000	3.91200E-001	-8.12605E-004	8	..........a	0	-327.74
	1120	2.242	3.86818E-001	3.11102E-007	0.00000E+000	3.88000E-001	-8.37606E-004	8	..........a	0	-327.74
	1152	2.306	3.83614E-001	3.09018E-007	0.00000E+000	3.84800E-001	-8.79272E-004	8	..........a	0	-327.74
	1184	2.37	3.80443E-001	3.34850E-007	0.00000E+000	3.81600E-001	-8.04272E-004	8	..........a	0	-327.74
	1216	2.434	3.77239E-001	3.51515E-007	0.00000E+000	3.78400E-001	-8.62605E-004	8	..........a	0	-327.74
	1248	2.498	3.74027E-001	3.40266E-007	0.00000E+000	3.75200E-001	-8.79272E-004	8	..........a	0	-327.74
	1280	2.562	3.70797E-001	2.71938E-007	0.00000E+000	3.72000E-001	-8.70939E-004	8	..........a	0	-327.74
	1312	2.626	3.67631E-001	2.19442E-007	0.00000E+000	3.68800E-001	-8.95939E-004	8	..........a	0	-327.74
	1344	2.69	3.64402E-001	3.16101E-007	0.00000E+000	3.65600E-001	-8.54272E-004	8	..........a	0	-327.74
	1376	2.754	3.61222E-001	2.66522E-007	0.00000E+000	3.62400E-001	-8.87605E-004	8	..........a	0	-327.74
	1408	2.818	3.58039E-001	1.29866E-007	0.00000E+000	3.59200E-001	-8.54272E-004	8	..........a	0	-327.74
	1440	2.882	3.54839E-001	2.21525E-007	0.00000E+000	3.56000E-001	-8.45939E-004	8	..........a	0	-327.74
	1472	2.946	3.51647E-001	1.80279E-007	0.00000E+000	3.52800E-001	-8.70939E-004	8	..........a	0	-327.74
	1504	3.01	3.48439E-001	1.54864E-007	0.00000E+000	3.49600E-001	-8.70939E-004	8	..........a	0	-327.74
	1536	3.074	3.45227E-001	1.31533E-007	0.00000E+000	3.46400E-001	-8.20939E-004	8	..........a	0	-327.74
	1568	3.138	3.42052E-001	1.95694E-007	0.00000E+000	3.43200E-001	-8.62605E-004	8	..........a	0	-327.74
	1600	3.202	3.38822E-001	9.98686E-008	0.00000E+000	3.40000E-001	-8.95939E-004	8	..........a	0	-327.74
	1632	3.266	3.35643E-001	1.22367E-007	0.00000E+000	3.36800E-001	-8.37606E-004	8	..........a	0	-327.74
	1664	3.33	3.32447E-001	1.30699E-007	0.00000E+000	3.33600E-001	-8.87605E-004	8	..........a	0	-327.74
	1696	3.394	3.29214E-001	6.73712E-008	0.00000E+000	3.30400E-001	-8.79272E-004	8	..........a	0	-327.74
	1728	3.458	3.26022E-001	1.38199E-007	0.00000E+000	3.27200E-001	-8.45939E-004	8	..........a	0	-327.74
	1760	3.522	3.22839E-001	2.22775E-007	0.00000E+000	3.24000E-001	-8.62605E-004	8	..........a	0	-327.74
	1792	3.586	3.19635E-001	1.00285E-007	0.00000E+000	3.20800E-001	-8.45939E-004	8	..........a	0	-327.74
	1824	3.65	3.16443E-001	1.08201E-007	0.00000E+000	3.17600E-001	-8.95939E-004	8	..........a	0	-327.74
	1856	3.714	3.13243E-001	1.02924E-008	0.00000E+000	3.14400E-001	-8.37606E-004	8	..........a	0	-327.74
	1888	3.778	3.10056E-001	3.94567E-008	0.00000E+000	3.11200E-001	-8.45939E-004	8	..........a	0	-327.74
	1920	3.842	3.06847E-001	8.02868E-008	0.00000E+000	3.08000E-001	-8.70939E-004	8	..........a	0	-327.74
	1952	3.906	3.03647E-001	2.11249E-008	0.00000E+000	3.04800E-001	-8.79272E-004	8	..........a	0	-327.74
	1984	3.97	3.00435E-001	5.11225E-008	0.00000E+000	3.01600E-001	-8.37606E-004	8	..........a	0	-327.74
	2016	4.034	2.97193E-001	1.11257E-008	0.00000E+000	2.98400E-001	-8.95939E-004	8	..........a	0	-327.74
	2048	4.098	2.94039E-001	-6.09519E-008	0.00000E+000	2.95200E-001	-7.95939E-004	8	..........a	0	-327.74
	2080	4.162	2.90818E-001	3.94567E-008	0.00000E+000	2.92000E-001	-8.70939E-004	8	..........a	0	-327.74
	2112	4.226	2.87647E-001	2.48746E-008	0.00000E+000	2.88800E-001	-8.37606E-004	8	..........a	0	-327.74
	2144	4.29	2.84418E-001	-5.13693E-008	0.00000E+000	2.85600E-001	-8.70939E-004	8	..........a	0	-327.74
	2176	4.354	2.81247E-001	-3.45647E-009	0.00000E+000	2.82400E-001	-8.79272E-004	8	..........a	0	-327.74
	2208	4.418	2.78068E-001	-9.56672E-010	0.00000E+000	2.79200E-001	-8.45939E-004	8	..........a	0	-327.74
	2240	4.482	2.74852E-001	-6.22018E-008	0.00000E+000	2.76000E-001	-8.70939E-004	8	..........a	0	-327.74
	2272	4.546	2.71643E-001	-4.38699E-008	0.00000E+000	2.72800E-001	-8.95939E-004	8	..........a	0	-327.74
	2304	4.61	2.68452E-001	-5.95627E-009	0.00000E+000	2.69600E-001	-8.04272E-004	8	..........a	0	-327.74
	2336	4.674	2.65281E-001	4.65395E-008	0.00000E+000	2.66400E-001	-8.87605E-004	8	..........a	0	-327.74
	2368	4.738	2.62077E-001	3.20966E-009	0.00000E+000	2.63200E-001	-8.54272E-004	8	..........a	0	-327.74
	2400	4.802	2.58831E-001	-7.97003E-008	0.00000E+000	2.60000E-001	-8.29272E-004	8	..........a	0	-327.74
	2432	4.866	2.55656E-001	7.69537E-008	0.00000E+000	2.56800E-001	-8.12605E-004	8	..........a	0	-327.74
	2464	4.93	2.52472E-001	1.65419E-008	0.00000E+000	2.53600E-001	-8.79272E-004	8	..........a	0	-327.74
	2496	4.994	2.49256E-001	-4.59531E-008	0.00000E+000	2.50400E-001	-8.29272E-004	8	..........a	0	-327.74
	2528	5.058	2.46039E-001	-2.47048E-008	0.00000E+000	2.47200E-001	-8.37606E-004	8	..........a	0	-327.74
	2560	5.122	2.42764E-001	2.37639E-009	0.00000E+000	2.44000E-001	-8.45939E-004	8	......s...a	0	-327.74
	2592	5.186	2.39570E-001	2.02916E-008	0.00000E+000	2.40800E-001	-8.54272E-004	8	..........a	0	-327.74
	2624	5.25	2.36365E-001	-6.09519E-008	0.00000E+000	2.37600E-001	-8.79272E-004	8	..........a	0	-327.74
	2656	5.314	2.33178E-001	1.19590E-008	0.00000E+000	2.34400E-001	-8.62605E-004	8	..........a	0	-327.74
	2688	5.378	2.29982E-001	6.95936E-009	0.00000E+000	2.31200E-001	-8.62605E-004	8	..........a	0	-327.74
	2720	5.442	2.26775E-001	-8.96995E-008	0.00000E+000	2.28000E-001	-8.29272E-004	8	..........a	0	-327.74
	2752	5.506	2.23591E-001	-4.51198E-008	0.00000E+000	2.24800E-001	-8.62605E-004	8	..........a	0	-327.74
	2784	5.57	2.20405E-001	-8.76164E-008	0.00000E+000	2.21600E-001	-8.79272E-004	8	..........a	0	-327.74
	2816	5.634	2.17186E-001	-1.37196E-007	0.00000E+000	2.18400E-001	-8.70939E-004	8	..........a	0	-327.74
	2848	5.698	2.13976E-001	-1.20947E-007	0.00000E+000	2.15200E-001	-8.45939E-004	8	..........a	0	-327.74
	2880	5.762	2.10780E-001	-6.55348E-008	0.00000E+000	2.12000E-001	-8.54272E-004	8	..........a	0	-327.74
	2912	5.826	2.07591E-001	-6.38683E-008	0.00000E+000	2.08800E-001	-8.70939E-004	8	..........a	0	-327.74
	2944	5.89	2.04406E-001	-4.76196E-008	0.00000E+000	2.05600E-001	-8.04272E-004	8	..........a	0	-327.74
	2976	5.954	2.01194E-001	-1.15114E-007	0.00000E+000	2.02400E-001	-8.12605E-004	8	..........a	0	-327.74
	3008	6.018	1.98009E-001	-1.20530E-007	0.00000E+000	1.99200E-001	-8.95939E-004	8	..........a	0	-327.74
	3040	6.082	1.94796E-001	-1.25947E-007	0.00000E+000	1.96000E-001	-8.87605E-004	8	..........a	0	-327.74
	3072	6.146	1.91608E-001	-5.30358E-008	0.00000E+000	1.92800E-001	-8.29272E-004	8	..........a	0	-327.74
	3104	6.21	1.88403E-001	-6.51182E-008	0.00000E+000	1.89600E-001	-8.70939E-004	8	..........a	0	-327.74
	3136	6.274	1.85208E-001	-1.34279E-007	0.00000E+000	1.86400E-001	-8.04272E-004	8	..........a	0	-327.74
	3168	6.338	1.82015E-001	-6.17851E-008	0.00000E+000	1.83200E-001	-8.54272E-004	8	..........a	0	-327.74
	3200	6.402	1.78811E-001	-9.67823E-008	0.00000E+000	1.80000E-001	-8.54272E-004	8	..........a	0	-327.74
	3232	6.466	1.75626E-001	-7.05344E-008	0.00000E+000	1.76800E-001	-8.79272E-004	8	..........a	0	-327.74
	3264	6.53	1.72407E-001	-1.34696E-007	0.00000E+000	1.73600E-001	-8.62605E-004	8	..........a	0	-327.74
	3296	6.594	1.69218E-001	-1.45945E-007	0.00000E+000	1.70400E-001	-9.04272E-004	8	..........a	0	-327.74
	3328	6.658	1.66016E-001	-1.70110E-007	0.00000E+000	1.67200E-001	-8.54272E-004	8	..........a	0	-327.74
	3360	6.722	1.62821E-001	-1.29696E-007	0.00000E+000	1.64000E-001	-8.79272E-004	8	..........a	0	-327.74
	3392	6.786	1.59626E-001	-1.18031E-007	0.00000E+000	1.60800E-001	-8.12605E-004	8	..........a	0	-327.74
	3424	6.85	1.56424E-001	-1.83442E-007	0.00000E+000	1.57600E-001	-8.12605E-004	8	..........a	0	-327.74
	3456	6.914	1.53216E-001	-1.95108E-007	0.00000E+000	1.54400E-001	-8.62605E-004	8	..........a	0	-327.74
	3488	6.978	1.50022E-001	-1.50111E-007	0.00000E+000	1.51200E-001	-8.04272E-004	8	..........a	0	-327.74
	3520	7.042	1.46828E-001	-1.30530E-007	0.00000E+000	1.48000E-001	-8.54272E-004	8	..........a	0	-327.74
	3552	7.106	1.43616E-001	-1.58861E-007	0.00000E+000	1.44800E-001	-8.20939E-004	8	..........a	0	-327.74
	3584	7.17	1.40428E-001	-1.26363E-007	0.00000E+000	1.41600E-001	-8.54272E-004	8	..........a	0	-327.74
	3616	7.234	1.37231E-001	-1.23863E-007	0.00000E+000	1.38400E-001	-8.37606E-004	8	..........a	0	-327.74
	3648	7.298	1.34016E-001	-8.42833E-008	0.00000E+000	1.35200E-001	-8.54272E-004	8	..........a	0	-327.74
	3680	7.362	1.30838E-001	-1.23863E-007	0.00000E+000	1.32000E-001	-8.54272E-004	8	..........a	0	-327.74
	3712	7.426	1.27619E-001	-1.59277E-007	0.00000E+000	1.28800E-001	-8.70939E-004	8	..........a	0	-327.74
	3744	7.49	1.24444E-001	-2.37604E-007	0.00000E+000	1.25600E-001	-8.62605E-004	8	..........a	0	-327.74
	3776	7.554	1.21233E-001	-1.38029E-007	0.00000E+000	1.22400E-001	-8.45939E-004	8	..........a	0	-327.74
	3808	7.618	1.18030E-001	-1.51778E-007	0.00000E+000	1.19200E-001	-8.54272E-004	8	..........a	0	-327.74
	3840	7.682	1.14841E-001	-1.93441E-007	0.00000E+000	1.16000E-001	-8.95939E-004	8	..........a	0	-327.74
	3872	7.746	1.11636E-001	-1.50111E-007	0.00000E+000	1.12800E-001	-8.54272E-004	8	..........a	0	-327.74
	3904	7.81	1.08445E-001	-2.07607E-007	0.00000E+000	1.09600E-001	-8.37606E-004	8	..........a	0	-327.74
	3936	7.874	1.05246E-001	-1.16781E-007	0.00000E+000	1.06400E-001	-8.29272E-004	8	..........a	0	-327.74
	3968	7.938	1.02036E-001	-1.80109E-007	0.00000E+000	1.03200E-001	-8.54272E-004	8	..........a	0	-327.74
	4000	8.002	9.88485E-002	-1.91775E-007	0.00000E+000	1.00000E-001	-8.62605E-004	8	..........a	0	-327.74
	4032	8.066	9.56506E-002	-2.20106E-007	0.00000E+000	9.68000E-002	-8.20939E-004	8	..........a	0	-327.74
	4064	8.13	9.24447E-002	-1.82609E-007	0.00000E+000	9.36000E-002	-8.37606E-004	8	..........a	0	-327.74
	4096	8.194	8.92468E-002	-2.44687E-007	0.00000E+000	9.04000E-002	-8.45939E-004	8	..........a	0	-327.74
	4128	8.258	8.60493E-002	-2.20522E-007	0.00000E+000	8.72000E-002	-8.54272E-004	8	..........a	0	-327.74
	4160	8.322	8.28643E-002	-1.49695E-007	0.00000E+000	8.40000E-002	-8.12605E-004	8	..........a	0	-327.74
	4192	8.386	7.96668E-002	-1.85109E-007	0.00000E+000	8.08000E-002	-8.29272E-004	8	..........a	0	-327.74
	4224	8.45	7.64756E-002	-1.76776E-007	0.00000E+000	7.76000E-002	-8.45939E-004	8	..........a	0	-327.74
	4256	8.514	7.32739E-002	-2.24689E-007	0.00000E+000	7.44000E-002	-8.04272E-004	8	..........a	0	-327.74
	4288	8.578	7.00747E-002	-1.93025E-007	0.00000E+000	7.12000E-002	-7.79272E-004	8	..........a	0	-327.74
	4320	8.642	6.68618E-002	-2.27189E-007	0.00000E+000	6.80000E-002	-7.87605E-004	8	..........a	0	-327.74
	4352	8.706	6.36710E-002	-2.04274E-007	0.00000E+000	6.48000E-002	-9.12605E-004	8	..........a	0	-327.74
	4384	8.77	6.04764E-002	-2.07190E-007	0.00000E+000	6.16000E-002	-8.12605E-004	8	..........a	0	-327.74
	4416	8.834	5.72647E-002	-2.30522E-007	0.00000E+000	5.84000E-002	-8.12605E-004	8	..........a	0	-327.74
	4448	8.898	5.40747E-002	-2.38854E-007	0.00000E+000	5.52000E-002	-7.95939E-004	8	..........a	0	-327.74
	4480	8.962	5.08610E-002	-3.45929E-007	0.00000E+000	5.20000E-002	-8.54272E-004	8	..........a	0	-327.74
	4512	9.026	4.76647E-002	-3.30097E-007	0.00000E+000	4.88000E-002	-8.37606E-004	8	..........a	0	-327.74
	4544	9.09	4.44635E-002	-2.76768E-007	0.00000E+000	4.56000E-002	-8.45939E-004	8	..........a	0	-327.74
	4576	9.154	4.12606E-002	-2.08857E-007	0.00000E+000	4.24000E-002	-8.29272E-004	8	..........a	0	-327.74
	4608	9.218	3.80714E-002	-1.54278E-007	0.00000E+000	3.92000E-002	-8.37606E-004	8	..........a	0	-327.74
	4640	9.282	3.48697E-002	-2.52187E-007	0.00000E+000	3.60000E-002	-8.12605E-004	8	..........a	0	-327.74
	4672	9.346	3.16785E-002	-2.65935E-007	0.00000E+000	3.28000E-002	-8.45939E-004	8	..........a	0	-327.74
	4704	9.41	2.84726E-002	-1.87608E-007	0.00000E+000	2.96000E-002	-8.70939E-004	8	..........a	0	-327.74
	4736	9.474	2.52751E-002	-2.30105E-007	0.00000E+000	2.64000E-002	-9.04272E-004	8	..........a	0	-327.74
	4768	9.538	2.20581E-002	-2.71352E-007	0.00000E+000	2.32000E-002	-8.20939E-004	8	..........a	0	-327.74
	4800	9.602	1.88778E-002	-2.04690E-007	0.00000E+000	2.00000E-002	-8.04272E-004	8	..........a	0	-327.74
	4832	9.666	1.56669E-002	-2.58436E-007	0.00000E+000	1.68000E-002	-8.29272E-004	8	..........a	0	-327.74
	4864	9.73	1.24669E-002	-2.93850E-007	0.00000E+000	1.36000E-002	-8.04272E-004	8	..........a	0	-327.74
	4896	9.794	9.28002E-003	-2.51353E-007	0.00000E+000	1.04000E-002	-8.62605E-004	8	..........a	0	-327.74
	4928	9.858	6.08202E-003	-2.77185E-007	0.00000E+000	7.20000E-003	-7.95939E-004	8	..........a	0	-327.74
	4960	9.922	2.89056E-003	-1.69277E-007	0.00000E+000	4.00001E-003	-8.54272E-004	8	..........a	0	-327.74
	4992	9.986	-3.14193E-004	-3.03849E-007	0.00000E+000	7.99984E-004	-7.95939E-004	8	..........a	0	-327.74
	5024	10.05	-3.52186E-003	-2.35521E-007	0.00000E+000	-2.40001E-003	-8.12605E-004	8	..........a	0	-327.74
	5056	10.114	-6.71040E-003	-3.16348E-007	0.00000E+000	-5.60001E-003	-7.70939E-004	8	..........a	0	-327.74
	5088	10.178	-9.91719E-003	-2.80101E-007	0.00000E+000	-8.80000E-003	-8.45939E-004	8	..........a	0	-327.74
	5120	10.242	-1.30994E-002	-2.92600E-007	0.00000E+000	-1.20000E-002	-8.45939E-004	8	..........a	0	-327.74
	5152	10.306	-1.63110E-002	-3.05099E-007	0.00000E+000	-1.52000E-002	-8.20939E-004	8	..........a	0	-327.74
	5184	10.37	-1.95139E-002	-2.88434E-007	0.00000E+000	-1.84000E-002	-7.87605E-004	8	..........a	0	-327.74
	5216	10.434	-2.27003E-002	-3.23431E-007	0.00000E+000	-2.16000E-002	-8.29272E-004	8	..........a	0	-327.74
	5248	10.498	-2.59047E-002	-3.21348E-007	0.00000E+000	-2.48000E-002	-8.29272E-004	8	..........a	0	-327.74
	5280	10.562	-2.91044E-002	-3.38430E-007	0.00000E+000	-2.80000E-002	-8.04272E-004	8	..........a	0	-327.74
	5312	10.626	-3.22899E-002	-2.96350E-007	0.00000E+000	-3.12000E-002	-8.04272E-004	8	..........a	0	-327.74
	5344	10.69	-3.54965E-002	-2.85517E-007	0.00000E+000	-3.44000E-002	-8.12605E-004	8	..........a	0	-327.74
	5376	10.754	-3.86911E-002	-3.40929E-007	0.00000E+000	-3.76000E-002	-8.37606E-004	8	..........a	0	-327.74
	5408	10.818	-4.18790E-002	-2.95516E-007	0.00000E+000	-4.08000E-002	-7.95939E-004	8	..........a	0	-327.74
	5440	10.882	-4.50974E-002	-3.83843E-007	0.00000E+000	-4.40000E-002	-8.45939E-004	8	..........a	0	-327.74
	5472	10.946	-4.82974E-002	-4.35922E-007	0.00000E+000	-4.72000E-002	-8.79272E-004	8	..........a	0	-327.74
	5504	11.01	-5.14969E-002	-3.90509E-007	0.00000E+000	-5.04000E-002	-8.54272E-004	8	..........a	0	-327.74
	5536	11.074	-5.46840E-002	-3.95508E-007	0.00000E+000	-5.36000E-002	-8.12605E-004	8	..........a	0	-327.74
	5568	11.138	-5.78740E-002	-3.86342E-007	0.00000E+000	-5.68000E-002	-8.12605E-004	8	..........a	0	-327.74
	5600	11.202	-6.10936E-002	-4.33005E-007	0.00000E+000	-6.00000E-002	-8.29272E-004	8	..........a	0	-327.74
	5632	11.266	-6.42707E-002	-3.94675E-007	0.00000E+000	-6.32000E-002	-8.62605E-004	8	..........a	0	-327.74
	5664	11.33	-6.74924E-002	-4.98000E-007	0.00000E+000	-6.64000E-002	-8.37606E-004	8	..........a	0	-327.74
	5696	11.394	-7.06899E-002	-4.72585E-007	0.00000E+000	-6.96000E-002	-8.79272E-004	8	..........a	0	-327.74
	5728	11.458	-7.38699E-002	-4.73835E-007	0.00000E+000	-7.28000E-002	-8.37606E-004	8	..........a	0	-327.74
	5760	11.522	-7.70665E-002	-3.47179E-007	0.00000E+000	-7.60000E-002	-8.29272E-004	8	..........a	0	-327.74
	5792	11.586	-8.02753E-002	-6.02158E-007	0.00000E+000	-7.92000E-002	-8.29272E-004	8	..........a	0	-327.74
	5824	11.65	-8.34582E-002	-5.47163E-007	0.00000E+000	-8.24000E-002	-8.45939E-004	8	..........a	0	-327.74
	5856	11.714	-8.66665E-002	-5.49246E-007	0.00000E+000	-8.56000E-002	-8.20939E-004	8	..........a	0	-327.74
	5888	11.778	-8.98578E-002	-5.83827E-007	0.00000E+000	-8.88000E-002	-7.29272E-004	8	..........a	0	-327.74
	5920	11.842	-9.30732E-002	-6.77986E-007	0.00000E+000	-9.20000E-002	-8.29272E-004	8	..........a	0	-327.74
	5952	11.906	-9.62686E-002	-6.43822E-007	0.00000E+000	-9.52000E-002	-8.04272E-004	8	..........a	0	-327.74
	5984	11.97	-9.94444E-002	-7.30065E-007	0.00000E+000	-9.84000E-002	-8.54272E-004	8	..........a	0	-327.74
	6016	12.034	-1.02661E-001	-7.89227E-007	0.00000E+000	-1.01600E-001	-8.37606E-004	8	..........a	0	-327.74
	6048	12.098	-1.05862E-001	-7.59646E-007	0.00000E+000	-1.04800E-001	-8.04272E-004	8	..........a	0	-327.74
	6080	12.162	-1.09047E-001	-8.19224E-007	0.00000E+000	-1.08000E-001	-8.29272E-004	8	..........a	0	-327.74
	6112	12.226	-1.12257E-001	-8.19224E-007	0.00000E+000	-1.11200E-001	-8.54272E-004	8	..........a	0	-327.74
	6144	12.29	-1.15452E-001	-8.58804E-007	0.00000E+000	-1.14400E-001	-8.45939E-004	8	..........a	0	-327.74
	6176	12.354	-1.18652E-001	-8.70887E-007	0.00000E+000	-1.17600E-001	-8.12605E-004	8	..........a	0	-327.74
	6208	12.418	-1.21842E-001	-1.03671E-006	0.00000E+000	-1.20800E-001	-8.37606E-004	8	..........a	0	-327.74
	6240	12.482	-1.25048E-001	-1.09962E-006	0.00000E+000	-1.24000E-001	-8.87605E-004	8	..........a	0	-327.74
	6272	12.546	-1.28240E-001	-1.09170E-006	0.00000E+000	-1.27200E-001	-8.20939E-004	8	..........a	0	-327.74
	6304	12.61	-1.31445E-001	-1.15378E-006	0.00000E+000	-1.30400E-001	-8.45939E-004	8	..........a	0	-327.74
	6336	12.674	-1.34642E-001	-1.15961E-006	0.00000E+000	-1.33600E-001	-8.54272E-004	8	..........a	0	-327.74
	6368	12.738	-1.37845E-001	-1.30419E-006	0.00000E+000	-1.36800E-001	-8.54272E-004	8	..........a	0	-327.74
	6400	12.802	-1.41035E-001	-1.33377E-006	0.00000E+000	-1.40000E-001	-8.70939E-004	8	..........a	0	-327.74
	6432	12.866	-1.44232E-001	-1.42209E-006	0.00000E+000	-1.43200E-001	-7.79272E-004	8	..........a	0	-327.74
	6464	12.93	-1.47443E-001	-1.58791E-006	0.00000E+000	-1.46400E-001	-8.37606E-004	8	..........a	0	-327.74
	6496	12.994	-1.50649E-001	-1.70249E-006	0.00000E+000	-1.49600E-001	-7.70939E-004	8	..........a	0	-327.74
	6528	13.058	-1.53837E-001	-1.85331E-006	0.00000E+000	-1.52800E-001	-8.37606E-004	8	..........a	0	-327.74
	6560	13.122	-1.57034E-001	-1.87372E-006	0.00000E+000	-1.56000E-001	-8.12605E-004	8	..........a	0	-327.74
	6592	13.186	-1.60224E-001	-1.98121E-006	0.00000E+000	-1.59200E-001	-8.70939E-004	8	..........a	0	-327.74
	6624	13.25	-1.63436E-001	-2.10329E-006	0.00000E+000	-1.62400E-001	-8.37606E-004	8	..........a	0	-327.74
	6656	13.314	-1.66634E-001	-2.22994E-006	0.00000E+000	-1.65600E-001	-8.62605E-004	8	..........a	0	-327.74
	6688	13.378	-1.69826E-001	-2.43743E-006	0.00000E+000	-1.68800E-001	-8.29272E-004	8	..........a	0	-327.74
	6720	13.442	-1.73028E-001	-2.64991E-006	0.00000E+000	-1.72000E-001	-8.54272E-004	8	..........a	0	-327.74
	6752	13.506	-1.76223E-001	-2.77615E-006	0.00000E+000	-1.75200E-001	-7.95939E-004	8	..........a	0	-327.74
	6784	13.57	-1.79425E-001	-2.94864E-006	0.00000E+000	-1.78400E-001	-8.87605E-004	8	..........a	0	-327.74
	6816	13.634	-1.82619E-001	-3.17445E-006	0.00000E+000	-1.81600E-001	-8.12605E-004	8	..........a	0	-327.74
	6848	13.698	-1.85809E-001	-3.33527E-006	0.00000E+000	-1.84800E-001	-8.54272E-004	8	..........a	0	-327.74
	6880	13.762	-1.89022E-001	-3.66775E-006	0.00000E+000	-1.88000E-001	-8.04272E-004	8	..........a	0	-327.74
	6912	13.826	-1.92213E-001	-3.80440E-006	0.00000E+000	-1.91200E-001	-8.20939E-004	8	..........a	0	-327.74
	6944	13.89	-1.95404E-001	-4.08188E-006	0.00000E+000	-1.94400E-001	-7.95939E-004	8	..........a	0	-327.74
	6976	13.954	-1.98615E-001	-4.38519E-006	0.00000E+000	-1.97600E-001	-8.37606E-004	8	..........a	0	-327.74
	7008	14.018	-2.01817E-001	-4.66642E-006	0.00000E+000	-2.00800E-001	-8.29272E-004	8	..........a	0	-327.74
	7040	14.082	-2.05007E-001	-4.92473E-006	0.00000E+000	-2.04000E-001	-8.12605E-004	8	..........a	0	-327.74
	7072	14.146	-2.08208E-001	-5.20054E-006	0.00000E+000	-2.07200E-001	-8.45939E-004	8	..........a	0	-327.74
	7104	14.21	-2.11399E-001	-5.53343E-006	0.00000E+000	-2.10400E-001	-8.12605E-004	8	..........a	0	-327.74
	7136	14.274	-2.14616E-001	-5.91256E-006	0.00000E+000	-2.13600E-001	-8.20939E-004	8	..........a	0	-327.74
	7168	14.338	-2.17817E-001	-6.16838E-006	0.00000E+000	-2.16800E-001	-8.04272E-004	8	..........a	0	-327.74
	7200	14.402	-2.21017E-001	-6.50502E-006	0.00000E+000	-2.20000E-001	-8.04272E-004	8	..........a	0	-327.74
	7232	14.466	-2.24189E-001	-6.98706E-006	0.00000E+000	-2.23200E-001	-8.29272E-004	8	..........a	0	-327.74
	7264	14.53	-2.27404E-001	-7.29412E-006	0.00000E+000	-2.26400E-001	-8.12605E-004	8	..........a	0	-327.74
	7296	14.594	-2.30587E-001	-7.64743E-006	0.00000E+000	-2.29600E-001	-8.45939E-004	8	..........a	0	-327.74
	7328	14.658	-2.33789E-001	-8.09906E-006	0.00000E+000	-2.32800E-001	-8.45939E-004	8	..........a	0	-327.74
	7360	14.722	-2.36994E-001	-8.44861E-006	0.00000E+000	-2.36000E-001	-8.20939E-004	8	..........a	0	-327.74
	7392	14.786	-2.40188E-001	-8.93732E-006	0.00000E+000	-2.39200E-001	-7.95939E-004	8	..........a	0	-327.74
	7424	14.85	-2.43384E-001	-9.25146E-006	0.00000E+000	-2.42400E-001	-8.29272E-004	8	..........a	0	-327.74
	7456	14.914	-2.46577E-001	-9.79475E-006	0.00000E+000	-2.45600E-001	-8.29272E-004	8	..........a	0	-327.74
	7488	14.978	-2.49777E-001	-1.01022E-005	0.00000E+000	-2.48800E-001	-8.29272E-004	8	..........a	0	-327.74
	7520	15.042	-2.52976E-001	-1.04605E-005	0.00000E+000	-2.52000E-001	-7.87605E-004	8	..........a	0	-327.74
	7552	15.106	-2.56183E-001	-1.09163E-005	0.00000E+000	-2.55200E-001	-8.54272E-004	8	..........a	0	-327.74
	7584	15.17	-2.59377E-001	-1.12684E-005	0.00000E+000	-2.58400E-001	-7.95939E-004	8	..........a	0	-327.74
	7616	15.234	-2.62571E-001	-1.16863E-005	0.00000E+000	-2.61600E-001	-8.04272E-004	8	..........a	0	-327.74
	7648	15.298	-2.65773E-001	-1.20950E-005	0.00000E+000	-2.64800E-001	-8.37606E-004	8	..........a	0	-327.74
	7680	15.362	-2.68861E-001	-1.24741E-005	0.00000E+000	-2.68000E-001	-8.04272E-004	8	..........a	0	-327.74
	7712	15.426	-2.72128E-001	-1.28403E-005	0.00000E+000	-2.71200E-001	-8.37606E-004	8	..........a	0	-327.74
	7744	15.49	-2.75307E-001	-1.31857E-005	0.00000E+000	-2.74400E-001	-8.79272E-004	8	..........a	0	-327.74
	7776	15.554	-2.78494E-001	-1.35765E-005	0.00000E+000	-2.77600E-001	-8.37606E-004	8	..........a	0	-327.74
	7808	15.618	-2.81732E-001	-1.39453E-005	0.00000E+000	-2.80800E-001	-8.20939E-004	8	..........a	0	-327.74
	7840	15.682	-2.84936E-001	-1.42377E-005	0.00000E+000	-2.84000E-001	-8.04272E-004	8	..........a	0	-327.74
	7872	15.746	-2.88107E-001	-1.46119E-005	0.00000E+000	-2.87200E-001	-8.54272E-004	8	..........a	0	-327.74
	7904	15.81	-2.91319E-001	-1.48460E-005	0.00000E+000	-2.90400E-001	-8.04272E-004	8	..........a	0	-327.74
	7936	15.874	-2.94428E-001	-1.52214E-005	0.00000E+000	-2.93600E-001	-8.37606E-004	8	..........a	0	-327.74
	7968	15.938	-2.97673E-001	-1.55001E-005	0.00000E+000	-2.96800E-001	-8.95939E-004	8	..........a	0	-327.74
	8000	16.002	-3.00928E-001	-1.58134E-005	0.00000E+000	-3.00000E-001	-8.20939E-004	8	..........a	0	-327.74
	8032	16.066	-3.04107E-001	-1.62351E-005	0.00000E+000	-3.03200E-001	-8.04272E-004	8	..........a	0	-327.74
	8064	16.13	-3.07298E-001	-1.64455E-005	0.00000E+000	-3.06400E-001	-8.37606E-004	8	..........a	0	-327.74
	8096	16.194	-3.10515E-001	-1.68092E-005	0.00000E+000	-3.09600E-001	-8.54272E-004	8	..........a	0	-327.74
	8128	16.258	-3.13736E-001	-1.71162E-005	0.00000E+000	-3.12800E-001	-8.20939E-004	8	..........a	0	-327.74
	8160	16.322	-3.16898E-001	-1.72779E-005	0.00000E+000	-3.16000E-001	-8.54272E-004	8	..........a	0	-327.74
	8192	16.386	-3.20111E-001	-1.76529E-005	0.00000E+000	-3.19200E-001	-8.54272E-004	8	..........a	0	-327.74
	8224	16.45	-3.23269E-001	-1.78504E-005	0.00000E+000	-3.22400E-001	-8.95939E-004	8	..........a	0	-327.74
	8256	16.514	-3.26498E-001	-1.81666E-005	0.00000E+000	-3.25600E-001	-8.37606E-004	8	..........a	0	-327.74
	8288	16.578	-3.29698E-001	-1.85041E-005	0.00000E+000	-3.28800E-001	-7.95939E-004	8	..........a	0	-327.74
	8320	16.642	-3.32890E-001	-1.87507E-005	0.00000E+000	-3.32000E-001	-8.37606E-004	8	..........a	0	-327.74
	8352	16.706	-3.36115E-001	-1.89503E-005	0.00000E+000	-3.35200E-001	-8.37606E-004	8	..........a	0	-327.74
	8384	16.77	-3.39278E-001	-1.92269E-005	0.00000E+000	-3.38400E-001	-8.20939E-004	8	..........a	0	-327.74
	8416	16.834	-3.42540E-001	-1.94261E-005	0.00000E+000	-3.41600E-001	-8.54272E-004	8	..........a	0	-327.74
	8448	16.898	-3.45719E-001	-1.98060E-005	0.00000E+000	-3.44800E-001	-8.29272E-004	8	..........a	0	-327.74
	8480	16.962	-3.48890E-001	-2.00243E-005	0.00000E+000	-3.48000E-001	-8.37606E-004	8	..........a	0	-327.74
	8512	17.026	-3.52036E-001	-2.01585E-005	0.00000E+000	-3.51200E-001	-7.87605E-004	8	..........a	0	-327.74
	8544	17.09	-3.55294E-001	-2.05014E-005	0.00000E+000	-3.54400E-001	-8.20939E-004	8	..........a	0	-327.74
	8576	17.154	-3.58436E-001	-2.07293E-005	0.00000E+000	-3.57600E-001	-7.95939E-004	8	..........a	0	-327.74
	8608	17.218	-3.61623E-001	-2.09801E-005	0.00000E+000	-3.60800E-001	-8.12605E-004	8	..........a	0	-327.74
	8640	17.282	-3.64836E-001	-2.12030E-005	0.00000E+000	-3.64000E-001	-8.29272E-004	8	..........a	0	-327.74
	8672	17.346	-3.68107E-001	-2.15746E-005	0.00000E+000	-3.67200E-001	-8.37606E-004	8	..........a	0	-327.74
	8704	17.41	-3.71248E-001	-2.17767E-005	0.00000E+000	-3.70400E-001	-7.87605E-004	8	..........a	0	-327.74
	8736	17.474	-3.74469E-001	-2.20738E-005	0.00000E+000	-3.73600E-001	-7.87605E-004	8	..........a	0	-327.74
	8768	17.538	-3.77719E-001	-2.25071E-005	0.00000E+000	-3.76800E-001	-8.62605E-004	8	..........a	0	-327.74
	8800	17.602	-3.80857E-001	-2.27329E-005	0.00000E+000	-3.80000E-001	-8.37606E-004	8	..........a	0	-327.74
	8832	17.666	-3.84073E-001	-2.32433E-005	0.00000E+000	-3.83200E-001	-8.62605E-004	8	..........a	0	-327.74
	8864	17.73	-3.87298E-001	-2.37032E-005	0.00000E+000	-3.86400E-001	-8.45939E-004	8	..........a	0	-327.74
	8896	17.794	-3.90398E-001	-2.44332E-005	0.00000E+000	-3.89600E-001	-8.20939E-004	8	..........a	0	-327.74
	8928	17.858	-3.93711E-001	-2.49415E-005	0.00000E+000	-3.92800E-001	-8.29272E-004	8	..........a	0	-327.74
	8960	17.922	-3.96840E-001	-2.56197E-005	0.00000E+000	-3.96000E-001	-8.54272E-004	8	..........a	0	-327.74
	8992	17.986	-4.00044E-001	-2.62668E-005	0.00000E+000	-3.99200E-001	-8.29272E-004	8	..........a	0	-327.74
	9024	18.05	-4.03315E-001	-2.71034E-005	0.00000E+000	-4.02400E-001	-8.54272E-004	8	..........a	0	-327.74
	9056	18.114	-4.06457E-001	-2.79208E-005	0.00000E+000	-4.05600E-001	-8.70939E-004	8	..........a	0	-327.74
	9088	18.178	-4.09623E-001	-2.90353E-005	0.00000E+000	-4.08800E-001	-8.45939E-004	8	..........a	0	-327.74
	9120	18.242	-4.12803E-001	-3.01202E-005	0.00000E+000	-4.12000E-001	-8.37606E-004	8	..........a	0	-327.74
	9152	18.306	-4.16061E-001	-3.12614E-005	0.00000E+000	-4.15200E-001	-8.79272E-004	8	..........a	0	-327.74
	9184	18.37	-4.19261E-001	-3.24571E-005	0.00000E+000	-4.18400E-001	-8.12605E-004	8	..........a	0	-327.74
	9216	18.434	-4.22436E-001	-3.37637E-005	0.00000E+000	-4.21600E-001	-8.20939E-004	8	..........a	0	-327.74
	9248	18.498	-4.25611E-001	-3.50648E-005	0.00000E+000	-4.24800E-001	-8.12605E-004	8	..........a	0	-327.74
	9280	18.562	-4.28823E-001	-3.64201E-005	0.00000E+000	-4.28000E-001	-8.54272E-004	8	..........a	0	-327.74
	9312	18.626	-4.32040E-001	-3.79696E-005	0.00000E+000	-4.31200E-001	-8.29272E-004	8	..........a	0	-327.74
	9344	18.69	-4.35198E-001	-3.94636E-005	0.00000E+000	-4.34400E-001	-8.37606E-004	8	..........a	0	-327.74
	9376	18.754	-4.38448E-001	-4.09668E-005	0.00000E+000	-4.37600E-001	-7.95939E-004	8	..........a	0	-327.74
	9408	18.818	-4.41644E-001	-4.25650E-005	0.00000E+000	-4.40800E-001	-8.29272E-004	8	..........a	0	-327.74
	9440	18.882	-4.44844E-001	-4.43966E-005	0.00000E+000	-4.44000E-001	-8.87605E-004	8	..........a	0	-327.74
	9472	18.946	-4.48015E-001	-4.61935E-005	0.00000E+000	-4.47200E-001	-7.87605E-004	8	..........a	0	-327.74
	9504	19.01	-4.51182E-001	-4.80138E-005	0.00000E+000	-4.50400E-001	-8.37606E-004	8	..........a	0	-327.74
	9536	19.074	-4.54419E-001	-4.99378E-005	0.00000E+000	-4.53600E-001	-8.54272E-004	8	..........a	0	-327.74
	9568	19.138	-4.57586E-001	-5.22222E-005	0.00000E+000	-4.56800E-001	-8.45939E-004	8	..........a	0	-327.74
	9600	19.202	-4.60794E-001	-5.42637E-005	0.00000E+000	-4.60000E-001	-8.37606E-004	8	..........a	0	-327.74
	9632	19.266	-4.64015E-001	-5.65748E-005	0.00000E+000	-4.63200E-001	-7.79272E-004	8	..........a	0	-327.74
	9664	19.33	-4.67165E-001	-5.88775E-005	0.00000E+000	-4.66400E-001	-8.62605E-004	8	..........a	0	-327.74
	9696	19.394	-4.70419E-001	-6.14827E-005	0.00000E+000	-4.69600E-001	-8.29272E-004	8	..........a	0	-327.74
	9728	19.458	-4.73573E-001	-6.40696E-005	0.00000E+000	-4.72800E-001	-8.37606E-004	8	..........a	0	-327.74
	9760	19.522	-4.76773E-001	-6.66910E-005	0.00000E+000	-4.76000E-001	-8.45939E-004	8	..........a	0	-327.74
	9792	19.586	-4.79986E-001	-6.95508E-005	0.00000E+000	-4.79200E-001	-8.12605E-004	8	..........a	0	-327.74
	9824	19.65	-4.83194E-001	-7.23551E-005	0.00000E+000	-4.82400E-001	-8.29272E-004	8	..........a	0	-327.74
	9856	19.714	-4.86348E-001	-7.54166E-005	0.00000E+000	-4.85600E-001	-8.12605E-004	8	..........a	0	-327.74
	9888	19.778	-4.89578E-001	-7.83838E-005	0.00000E+000	-4.88800E-001	-8.62605E-004	8	..........a	0	-327.74
	9920	19.842	-4.92769E-001	-8.16406E-005	0.00000E+000	-4.92000E-001	-8.04272E-004	8	..........a	0	-327.74
	9952	19.906	-4.95994E-001	-8.52254E-005	0.00000E+000	-4.95200E-001	-8.12605E-004	8	..........a	0	-327.74
	9984	19.97	-4.99111E-001	-8.88267E-005	0.00000E+000	-4.98400E-001	-8.12605E-004	8	..........a	0	-327.74
	10016	20.034	-5.02382E-001	-9.27185E-005	0.00000E+000	-5.01600E-001	-8.29272E-004	8	..........a	0	-327.74
	10048	20.098	-5.05578E-001	-9.68428E-005	0.00000E+000	-5.04800E-001	-8.29272E-004	8	..........a	0	-327.74
	10080	20.162	-5.08707E-001	-1.00894E-004	0.00000E+000	-5.08000E-001	-8.62605E-004	8	..........a	0	-327.74
	10112	20.226	-5.11919E-001	-1.05269E-004	0.00000E+000	-5.11200E-001	-8.20939E-004	8	..........a	0	-327.74
	10144	20.29	-5.15153E-001	-1.10103E-004	0.00000E+000	-5.14400E-001	-8.04272E-004	8	..........a	0	-327.74
	10176	20.354	-5.18348E-001	-1.15026E-004	0.00000E+000	-5.17600E-001	-8.87605E-004	8	..........a	0	-327.74
	10208	20.418	-5.21561E-001	-1.20198E-004	0.00000E+000	-5.20800E-001	-8.62605E-004	8	..........a	0	-327.74
	10240	20.482	-5.24673E-001	-1.25411E-004	0.00000E+000	-5.24000E-001	-8.79272E-004	8	..........a	0	-327.74
	10272	20.546	-5.27903E-001	-1.30801E-004	0.00000E+000	-5.27200E-001	-8.79272E-004	8	..........a	0	-327.74
	10304	20.61	-5.31111E-001	-1.36224E-004	0.00000E+000	-5.30400E-001	-8.12605E-004	8	..........a	0	-327.74
	10336	20.674	-5.34311E-001	-1.41801E-004	0.00000E+000	-5.33600E-001	-8.29272E-004	8	..........a	0	-327.74
	10368	20.738	-5.37469E-001	-1.47309E-004	0.00000E+000	-5.36800E-001	-8.04272E-004	8	..........a	0	-327.74
	10400	20.802	-5.40711E-001	-1.53005E-004	0.00000E+000	-5.40000E-001	-8.12605E-004	8	..........a	0	-327.74
	10432	20.866	-5.43919E-001	-1.58243E-004	0.00000E+000	-5.43200E-001	-8.62605E-004	8	..........a	0	-327.74
	10464	20.93	-5.47119E-001	-1.63912E-004	0.00000E+000	-5.46400E-001	-8.37606E-004	8	..........a	0	-327.74
	10496	20.994	-5.50198E-001	-1.68883E-004	0.00000E+000	-5.49600E-001	-8.37606E-004	8	..........a	0	-327.74
	10528	21.058	-5.53494E-001	-1.74333E-004	0.00000E+000	-5.52800E-001	-8.04272E-004	8	..........a	0	-327.74
	10560	21.122	-5.56640E-001	-1.79265E-004	0.00000E+000	-5.56000E-001	-8.54272E-004	8	..........a	0	-327.74
	10592	21.186	-5.59848E-001	-1.83861E-004	0.00000E+000	-5.59200E-001	-8.12605E-004	8	..........a	0	-327.74
	10624	21.25	-5.63053E-001	-1.88228E-004	0.00000E+000	-5.62400E-001	-8.54272E-004	8	..........a	0	-327.74
	10656	21.314	-5.66211E-001	-1.92062E-004	0.00000E+000	-5.65600E-001	-8.54272E-004	8	..........a	0	-327.74
	10688	21.378	-5.69407E-001	-1.96193E-004	0.00000E+000	-5.68800E-001	-8.54272E-004	8	..........a	0	-327.74
	10720	21.442	-5.72661E-001	-1.99373E-004	0.00000E+000	-5.72000E-001	-8.20939E-004	8	..........a	0	-327.74
	10752	21.506	-5.75757E-001	-2.02679E-004	0.00000E+000	-5.75200E-001	-8.54272E-004	8	..........a	0	-327.74
	10784	21.57	-5.79015E-001	-2.05546E-004	0.00000E+000	-5.78400E-001	-8.54272E-004	8	..........a	0	-327.74
	10816	21.634	-5.82219E-001	-2.08046E-004	0.00000E+000	-5.81600E-001	-8.20939E-004	8	..........a	0	-327.74
	10848	21.698	-5.85403E-001	-2.10494E-004	0.00000E+000	-5.84800E-001	-8.12605E-004	8	..........a	0	-327.74
	10880	21.762	-5.88611E-001	-2.12146E-004	0.00000E+000	-5.88000E-001	-8.12605E-004	8	..........a	0	-327.74
	10912	21.826	-5.91748E-001	-2.14172E-004	0.00000E+000	-5.91200E-001	-8.20939E-004	8	..........a	0	-327.74
	10944	21.89	-5.95032E-001	-2.15385E-004	0.00000E+000	-5.94400E-001	-8.45939E-004	8	..........a	0	-327.74
	10976	21.954	-5.98169E-001	-2.16604E-004	0.00000E+000	-5.97600E-001	-8.29272E-004	8	..........a	0	-327.74
	11008	22.018	-6.01328E-001	-2.17656E-004	0.00000E+000	-6.00800E-001	-8.37606E-004	8	..........a	0	-327.74
	11040	22.082	-6.04582E-001	-2.18644E-004	0.00000E+000	-6.04000E-001	-8.37606E-004	8	..........a	0	-327.74
	11072	22.146	-6.07790E-001	-2.19711E-004	0.00000E+000	-6.07200E-001	-8.04272E-004	8	..........a	0	-327.74
	11104	22.21	-6.10982E-001	-2.20091E-004	0.00000E+000	-6.10400E-001	-8.45939E-004	8	..........a	0	-327.74
	11136	22.274	-6.14144E-001	-2.20760E-004	0.00000E+000	-6.13600E-001	-8.37606E-004	8	..........a	0	-327.74
	11168	22.338	-6.17315E-001	-2.21019E-004	0.00000E+000	-6.16800E-001	-8.45939E-004	8	..........a	0	-327.74
	11200	22.402	-6.20586E-001	-2.21407E-004	0.00000E+000	-6.20000E-001	-8.37606E-004	8	..........a	0	-327.74
	11232	22.466	-6.23723E-001	-2.21500E-004	0.00000E+000	-6.23200E-001	-8.29272E-004	8	..........a	0	-327.74
	11264	22.53	-6.26898E-001	-2.21769E-004	0.00000E+000	-6.26400E-001	-8.29272E-004	8	..........a	0	-327.74
	11296	22.594	-6.30123E-001	-2.22164E-004	0.00000E+000	-6.29600E-001	-8.37606E-004	8	..........a	0	-327.74
	11328	22.658	-6.33336E-001	-2.22071E-004	0.00000E+000	-6.32800E-001	-8.04272E-004	8	..........a	0	-327.74
	11360	22.722	-6.36536E-001	-2.22706E-004	0.00000E+000	-6.36000E-001	-8.87605E-004	8	..........a	0	-327.74
	11392	22.786	-6.39736E-001	-2.22440E-004	0.00000E+000	-6.39200E-001	-8.12605E-004	8	..........a	0	-327.74
	11424	22.85	-6.42957E-001	-2.23233E-004	0.00000E+000	-6.42400E-001	-8.04272E-004	8	..........a	0	-327.74
	11456	22.914	-6.46140E-001	-2.23166E-004	0.00000E+000	-6.45600E-001	-7.95939E-004	8	..........a	0	-327.74
	11488	22.978	-6.49328E-001	-2.23010E-004	0.00000E+000	-6.48800E-001	-8.37606E-004	8	..........a	0	-327.74
	11520	23.042	-6.52486E-001	-2.23581E-004	0.00000E+000	-6.52000E-001	-8.29272E-004	8	..........a	0	-327.74
	11552	23.106	-6.55686E-001	-2.22993E-004	0.00000E+000	-6.55200E-001	-8.54272E-004	8	..........a	0	-327.74
	11584	23.17	-6.58932E-001	-2.23911E-004	0.00000E+000	-6.58400E-001	-8.45939E-004	8	..........a	0	-327.74
	11616	23.234	-6.62148E-001	-2.23351E-004	0.00000E+000	-6.61600E-001	-8.20939E-004	8	..........a	0	-327.74
	11648	23.298	-6.65361E-001	-2.23964E-004	0.00000E+000	-6.64800E-001	-8.20939E-004	8	..........a	0	-327.74
	11680	23.362	-6.68486E-001	-2.24087E-004	0.00000E+000	-6.68000E-001	-8.70939E-004	8	..........a	0	-327.74
	11712	23.426	-6.71669E-001	-2.24047E-004	0.00000E+000	-6.71200E-001	-8.54272E-004	8	..........a	0	-327.74
	11744	23.49	-6.74886E-001	-2.24847E-004	0.00000E+000	-6.74400E-001	-8.12605E-004	8	..........a	0	-327.74
	11776	23.554	-6.78069E-001	-2.24331E-004	0.00000E+000	-6.77600E-001	-8.62605E-004	8	..........a	0	-327.74
	11808	23.618	-6.81315E-001	-2.24859E-004	0.00000E+000	-6.80800E-001	-8.54272E-004	8	..........a	0	-327.74
	11840	23.682	-6.84469E-001	-2.24235E-004	0.00000E+000	-6.84000E-001	-8.54272E-004	8	..........a	0	-327.74
	11872	23.746	-6.87719E-001	-2.24075E-004	0.00000E+000	-6.87200E-001	-8.29272E-004	8	..........a	0	-327.74
	11904	23.81	-6.90882E-001	-2.24041E-004	0.00000E+000	-6.90400E-001	-8.54272E-004	8	..........a	0	-327.74
	11936	23.874	-6.94103E-001	-2.23501E-004	0.00000E+000	-6.93600E-001	-8.20939E-004	8	..........a	0	-327.74
	11968	23.938	-6.97319E-001	-2.24194E-004	0.00000E+000	-6.96800E-001	-7.87605E-004	8	..........a	0	-327.74
	12000	24.002	-7.00536E-001	-2.23745E-004	0.00000E+000	-7.00000E-001	-8.79272E-004	8	..........a	0	-327.74
	12032	24.066	-7.03686E-001	-2.24714E-004	0.00000E+000	-7.03200E-001	-8.37606E-004	8	..........a	0	-327.74
	12064	24.13	-7.06898E-001	-2.24486E-004	0.00000E+000	-7.06400E-001	-8.45939E-004	8	..........a	0	-327.74
	12096	24.194	-7.10103E-001	-2.24834E-004	0.00000E+000	-7.09600E-001	-7.95939E-004	8	..........a	0	-327.74
	12128	24.258	-7.13278E-001	-2.25566E-004	0.00000E+000	-7.12800E-001	-8.45939E-004	8	..........a	0	-327.74
	12160	24.322	-7.16490E-001	-2.25210E-004	0.00000E+000	-7.16000E-001	-7.87605E-004	8	..........a	0	-327.74
	12192	24.386	-7.19673E-001	-2.26058E-004	0.00000E+000	-7.19200E-001	-8.37606E-004	8	..........a	0	-327.74
	12224	24.45	-7.22894E-001	-2.25778E-004	0.00000E+000	-7.22400E-001	-8.04272E-004	8	..........a	0	-327.74
	12256	24.514	-7.26098E-001	-2.26074E-004	0.00000E+000	-7.25600E-001	-8.62605E-004	8	..........a	0	-327.74
	12288	24.578	-7.29244E-001	-2.25777E-004	0.00000E+000	-7.28800E-001	-8.29272E-004	8	..........a	0	-327.74
	12320	24.642	-7.32461E-001	-2.25719E-004	0.00000E+000	-7.32000E-001	-8.20939E-004	8	..........a	0	-327.74
	12352	24.706	-7.35665E-001	-2.25684E-004	0.00000E+000	-7.35200E-001	-8.12605E-004	8	..........a	0	-327.74
	12384	24.77	-7.38873E-001	-2.25295E-004	0.00000E+000	-7.38400E-001	-8.79272E-004	8	..........a	0	-327.74
	12416	24.834	-7.42078E-001	-2.25823E-004	0.00000E+000	-7.41600E-001	-7.79272E-004	8	..........a	0	-327.74
	12448	24.898	-7.45265E-001	-2.25192E-004	0.00000E+000	-7.44800E-001	-8.62605E-004	8	..........a	0	-327.74
	12480	24.962	-7.48448E-001	-2.25514E-004	0.00000E+000	-7.48000E-001	-8.54272E-004	8	..........a	0	-327.74
	12512	25.026	-7.51690E-001	-2.25505E-004	0.00000E+000	-7.51200E-001	-8.12605E-004	8	..........a	0	-327.74
	12544	25.09	-7.54815E-001	-2.25595E-004	0.00000E+000	-7.54400E-001	-8.29272E-004	8	..........a	0	-327.74
	12576	25.154	-7.58065E-001	-2.26194E-004	0.00000E+000	-7.57600E-001	-8.54272E-004	8	..........a	0	-327.74
	12608	25.218	-7.61303E-001	-2.25937E-004	0.00000E+000	-7.60800E-001	-8.70939E-004	8	..........a	0	-327.74
	12640	25.282	-7.64478E-001	-2.26739E-004	0.00000E+000	-7.64000E-001	-8.62605E-004	8	..........a	0	-327.74
	12672	25.346	-7.67669E-001	-2.26454E-004	0.00000E+000	-7.67200E-001	-8.37606E-004	8	..........a	0	-327.74
	12704	25.41	-7.70853E-001	-2.26489E-004	0.00000E+000	-7.70400E-001	-8.54272E-004	8	..........a	0	-327.74
	12736	25.474	-7.74040E-001	-2.26446E-004	0.00000E+000	-7.73600E-001	-7.87605E-004	8	..........a	0	-327.74
	12768	25.538	-7.77286E-001	-2.26223E-004	0.00000E+000	-7.76800E-001	-8.54272E-004	8	..........a	0	-327.74
	12800	25.602	-7.80453E-001	-2.26818E-004	0.00000E+000	-7.80000E-001	-8.95939E-004	8	..........a	0	-327.74
	12832	25.666	-7.83694E-001	-2.26034E-004	0.00000E+000	-7.83200E-001	-8.62605E-004	8	..........a	0	-327.74
	12864	25.73	-7.86869E-001	-2.26729E-004	0.00000E+000	-7.86400E-001	-8.29272E-004	8	..........a	0	-327.74
	12896	25.794	-7.90073E-001	-2.26334E-004	0.00000E+000	-7.89600E-001	-8.37606E-004	8	..........a	0	-327.74
	12928	25.858	-7.93282E-001	-2.26291E-004	0.00000E+000	-7.92800E-001	-8.62605E-004	8	..........a	0	-327.74
	12960	25.922	-7.96453E-001	-2.26345E-004	0.00000E+000	-7.96000E-001	-9.12605E-004	8	..........a	0	-327.74
	12992	25.986	-7.99648E-001	-2.26337E-004	0.00000E+000	-7.99200E-001	-8.45939E-004	8	..........a	0	-327.74
	13024	26.05	-8.02857E-001	-2.26774E-004	0.00000E+000	-8.02400E-001	-8.95939E-004	8	..........a	0	-327.74
	13056	26.114	-8.06032E-001	-2.26654E-004	0.00000E+000	-8.05600E-001	-8.70939E-004	8	..........a	0	-327.74
	13088	26.178	-8.09257E-001	-2.27068E-004	0.00000E+000	-8.08800E-001	-8.37606E-004	8	..........a	0	-327.74
	13120	26.242	-8.12494E-001	-2.26438E-004	0.00000E+000	-8.12000E-001	-8.45939E-004	8	..........a	0	-327.74
	13152	26.306	-8.15657E-001	-2.26930E-004	0.00000E+000	-8.15200E-001	-8.37606E-004	8	..........a	0	-327.74
	13184	26.37	-8.18886E-001	-2.26586E-004	0.00000E+000	-8.18400E-001	-8.29272E-004	8	..........a	0	-327.74
	13216	26.434	-8.22015E-001	-2.26736E-004	0.00000E+000	-8.21600E-001	-8.04272E-004	8	..........a	0	-327.74
	13248	26.498	-8.25178E-001	-2.27382E-004	0.00000E+000	-8.24800E-001	-7.87605E-004	8	..........a	0	-327.74
	13280	26.562	-8.28403E-001	-2.26844E-004	0.00000E+000	-8.28000E-001	-8.37606E-004	8	..........a	0	-327.74
	13312	26.626	-8.31623E-001	-2.27503E-004	0.00000E+000	-8.31200E-001	-8.45939E-004	8	..........a	0	-327.74
	13344	26.69	-8.34782E-001	-2.26554E-004	0.00000E+000	-8.34400E-001	-8.45939E-004	8	..........a	0	-327.74
	13376	26.754	-8.37990E-001	-2.26897E-004	0.00000E+000	-8.37600E-001	-8.04272E-004	8	..........a	0	-327.74
	13408	26.818	-8.41182E-001	-2.26524E-004	0.00000E+000	-8.40800E-001	-8.62605E-004	8	..........a	0	-327.74
	13440	26.882	-8.44440E-001	-2.26616E-004	0.00000E+000	-8.44000E-001	-8.45939E-004	8	..........a	0	-327.74
	13472	26.946	-8.47569E-001	-2.27047E-004	0.00000E+000	-8.47200E-001	-8.95939E-004	8	..........a	0	-327.74
	13504	27.01	-8.50761E-001	-2.26380E-004	0.00000E+000	-8.50400E-001	-8.54272E-004	8	..........a	0	-327.74
	13536	27.074	-8.53990E-001	-2.26943E-004	0.00000E+000	-8.53600E-001	-8.62605E-004	8	..........a	0	-327.74
	13568	27.138	-8.57173E-001	-2.26759E-004	0.00000E+000	-8.56800E-001	-8.12605E-004	8	..........a	0	-327.74
	13600	27.202	-8.60394E-001	-2.26921E-004	0.00000E+000	-8.60000E-001	-8.70939E-004	8	..........a	0	-327.74
	13632	27.266	-8.63607E-001	-2.26738E-004	0.00000E+000	-8.63200E-001	-8.62605E-004	8	..........a	0	-327.74
	13664	27.33	-8.66803E-001	-2.26897E-004	0.00000E+000	-8.66400E-001	-8.54272E-004	8	..........a	0	-327.74
	13696	27.394	-8.69998E-001	-2.27053E-004	0.00000E+000	-8.69600E-001	-8.29272E-004	8	..........a	0	-327.74
	13728	27.458	-8.73194E-001	-2.26759E-004	0.00000E+000	-8.72800E-001	-8.62605E-004	8	..........a	0	-327.74
	13760	27.522	-8.76390E-001	-2.27307E-004	0.00000E+000	-8.76000E-001	-8.54272E-004	8	..........a	0	-327.74
	13792	27.586	-8.79594E-001	-2.26806E-004	0.00000E+000	-8.79200E-001	-8.37606E-004	8	..........a	0	-327.74
	13824	27.65	-8.82753E-001	-2.27204E-004	0.00000E+000	-8.82400E-001	-8.62605E-004	8	..........a	0	-327.74
	13856	27.714	-8.85982E-001	-2.27311E-004	0.00000E+000	-8.85600E-001	-7.87605E-004	8	..........a	0	-327.74
	13888	27.778	-8.89169E-001	-2.27090E-004	0.00000E+000	-8.88800E-001	-7.79272E-004	8	..........a	0	-327.74
	13920	27.842	-8.92373E-001	-2.27407E-004	0.00000E+000	-8.92000E-001	-8.37606E-004	8	..........a	0	-327.74
	13952	27.906	-8.95573E-001	-2.27031E-004	0.00000E+000	-8.95200E-001	-8.37606E-004	8	..........a	0	-327.74
	13984	27.97	-8.98757E-001	-2.27429E-004	0.00000E+000	-8.98400E-001	-8.54272E-004	8	..........a	0	-327.74
	14016	28.034	-9.01969E-001	-2.27105E-004	0.00000E+000	-9.01600E-001	-8.54272E-004	8	..........a	0	-327.74
	14048	28.098	-9.05194E-001	-2.27292E-004	0.00000E+000	-9.04800E-001	-8.29272E-004	8	..........a	0	-327.74
	14080	28.162	-9.08365E-001	-2.27356E-004	0.00000E+000	-9.08000E-001	-8.37606E-004	8	..........a	0	-327.74
	14112	28.226	-9.11586E-001	-2.27071E-004	0.00000E+000	-9.11200E-001	-8.45939E-004	8	..........a	0	-327.74
	14144	28.29	-9.14769E-001	-2.27584E-004	0.00000E+000	-9.14400E-001	-7.95939E-004	8	..........a	0	-327.74
	14176	28.354	-9.17969E-001	-2.27172E-004	0.00000E+000	-9.17600E-001	-8.45939E-004	8	..........a	0	-327.74
	14208	28.418	-9.21178E-001	-2.27597E-004	0.00000E+000	-9.20800E-001	-8.62605E-004	8	..........a	0	-327.74
	14240	28.482	-9.24348E-001	-2.27341E-004	0.00000E+000	-9.24000E-001	-7.95939E-004	8	..........a	0	-327.74
	14272	28.546	-9.27540E-001	-2.27785E-004	0.00000E+000	-9.27200E-001	-8.37606E-004	8	..........a	0	-327.74
	14304	28.61	-9.30761E-001	-2.27859E-004	0.00000E+000	-9.30400E-001	-8.54272E-004	8	..........a	0	-327.74
	14336	28.674	-9.33986E-001	-2.27646E-004	0.00000E+000	-9.33600E-001	-8.79272E-004	8	..........a	0	-327.74
	14368	28.738	-9.37148E-001	-2.27683E-004	0.00000E+000	-9.36800E-001	-8.79272E-004	8	..........a	0	-327.74
	14400	28.802	-9.40369E-001	-2.26934E-004	0.00000E+000	-9.40000E-001	-8.95939E-004	8	..........a	0	-327.74
	14432	28.866	-9.43569E-001	-2.26993E-004	0.00000E+000	-9.43200E-001	-8.62605E-004	8	..........a	0	-327.74
	14464	28.93	-9.46815E-001	-2.26547E-004	0.00000E+000	-9.46400E-001	-8.87605E-004	8	..........a	0	-327.74
	14496	28.994	-9.49944E-001	-2.26658E-004	0.00000E+000	-9.49600E-001	-8.87605E-004	8	..........a	0	-327.74
	14528	29.058	-9.53173E-001	-2.26852E-004	0.00000E+000	-9.52800E-001	-8.54272E-004	8	..........a	0	-327.74
	14560	29.122	-9.56369E-001	-2.26358E-004	0.00000E+000	-9.56000E-001	-9.12605E-004	8	..........a	0	-327.74
	14592	29.186	-9.59532E-001	-2.27040E-004	0.00000E+000	-9.59200E-001	-8.29272E-004	8	..........a	0	-327.74
	14624	29.25	-9.62769E-001	-2.26687E-004	0.00000E+000	-9.62400E-001	-8.37606E-004	8	..........a	0	-327.74
	14656	29.314	-9.65978E-001	-2.27726E-004	0.00000E+000	-9.65600E-001	-8.79272E-004	8	..........a	0	-327.74
	14688	29.378	-9.69136E-001	-2.27536E-004	0.00000E+000	-9.68800E-001	-8.37606E-004	8	..........a	0	-327.74
	14720	29.442	-9.72348E-001	-2.28165E-004	0.00000E+000	-9.72000E-001	-8.70939E-004	8	..........a	0	-327.74
	14752	29.506	-9.75523E-001	-2.29070E-004	0.00000E+000	-9.75200E-001	-8.37606E-004	8	..........a	0	-327.74
	14784	29.57	-9.78752E-001	-2.28733E-004	0.00000E+000	-9.78400E-001	-8.37606E-004	8	..........a	0	-327.74
	14816	29.634	-9.81953E-001	-2.29485E-004	0.00000E+000	-9.81600E-001	-8.45939E-004	8	..........a	0	-327.74
	14848	29.698	-9.85173E-001	-2.28810E-004	0.00000E+000	-9.84800E-001	-8.95939E-004	8	..........a	0	-327.74
	14880	29.762	-9.88323E-001	-2.29199E-004	0.00000E+000	-9.88000E-001	-8.79272E-004	8	..........a	0	-327.74
	14912	29.826	-9.91578E-001	-2.28868E-004	0.00000E+000	-9.91200E-001	-7.87605E-004	8	..........a	0	-327.74
	14944	29.89	-9.94786E-001	-2.28878E-004	0.00000E+000	-9.94400E-001	-8.04272E-004	8	..........a	0	-327.74
	14976	29.954	-9.97982E-001	-2.29335E-004	0.00000E+000	-9.97600E-001	-8.45939E-004	8	..........a	0	-327.74
	15000	30.002	-1.00030E+000	-2.29041E-004	0.00000E+000	-1.00000E+000	-8.45939E-004	8	..........a	0	-327.74