File: data/02-SI/Figures_S9_S11_RDE/15btmapaq-rde/1mkcl-15btmapaq-nitrogen-700mvpers.DTA
EXPLAIN
TAG	CV
TITLE	LABEL	Cyclic Voltammetry	Test &Identifier
DATE	LABEL	1/31/2023	Date
TIME	LABEL	18:19:24	Time
NOTES	NOTES	1	&Notes...

PSTAT	PSTAT	REF3000-21108	Potentiostat
VINIT	POTEN	5.00000E-001	F	Initial &E (V)
VLIMIT1	POTEN	-1.00000E+000	F	Scan Limit &1 (V)
VLIMIT2	POTEN	5.00000E-001	F	Scan Limit &2 (V)
VFINAL	POTEN	5.00000E-001	F	Final &E (V)
SCANRATE	QUANT	6.97673E+002	&Scan Rate (mV/s)
STEPSIZE	QUANT	1.00000E+000	St&ep Size (mV)
CYCLES	IQUANT	1	C&ycles (#)
IMODE	SELECTOR	1	I/E Range &Mode
IRANGE	QUANT	1.00000E+001	&Max Current (mA)
AREA	QUANT	1.00000E+000	Electrode &Area (cm^2)
ELECTRODETYPE	SELECTOR	0	Electrode Type
STRIPPING	TOGGLE	F	Used for Stripping
POLARITY	TOGGLE	F	Signal Polarity
CONDIT	TWOPARAM	F	1.50000E+001	0.00000E+000	Conditionin&g	Time(s)	E(V)
DELAY	TWOPARAM	F	5.00000E+000	0.00000E+000	Init. De&lay	Time(s)	Stab.(mV/s)
EQDELAY	QUANT	0.00000E+000	Equil. &Time (s)
IRCOMP	SELECTOR	0	IRCom&p
PFCOR	QUANT	5.00000E+001	PF Corr. (ohm)
SAMPLINGMODE	SELECTOR	1	Sampling &Mode
EOC	QUANT	0	Open Circuit (V)
PSTATMODEL	IQUANT	5	Pstat Model
PSTATSECTION	LABEL	REF3000-21108	Pstat Section
PSTATSERIALNO	LABEL	21108	Pstat Serial Number
CTRLMODE	IQUANT	1	Control Mode
ELECTROMETER	IQUANT	0	RE=0 or CS=1
IESTAB	IQUANT	2	I/E Stability
CASPEED	IQUANT	4	Control Amp Speed
CONVENTION	IQUANT	1	Current Convention
ICHRANGE	IQUANT	2	Ich Range
ICHRANGEMODE	TOGGLE	F	Ich Auto Range
ICHOFFSETENABLE	TOGGLE	F	Ich Offset Enable
ICHOFFSET	QUANT	0	Ich Offset (V)
ICHFILTER	IQUANT	1	Ich Filter
VCHRANGE	IQUANT	2	Vch Range
VCHRANGEMODE	TOGGLE	F	Vch Auto Range
VCHOFFSETENABLE	TOGGLE	F	Vch Offset Enable
VCHOFFSET	QUANT	0	Vch Offset (V)
VCHFILTER	IQUANT	1	Vch Filter
ACHRANGE	IQUANT	2	Ach Range
ACHOFFSETENABLE	TOGGLE	F	Ach Offset Enable
ACHOFFSET	QUANT	0	Ach Offset (V)
ACHFILTER	IQUANT	0	Ach Filter
IERANGELOWERLIMIT	IQUANT	2	I/E Range Lower Limit
IERANGEMODE	TOGGLE	F	I/E AutoRange
IERANGE	IQUANT	10	I/E Range
POSFEEDENABLE	TOGGLE	F	Positive Feedback IR Comp
POSFEEDRESISTANCE	QUANT	0	Positive Feedback Resistance (ohm)
ACHSELECT	IQUANT	0	Ach Select
SENSECABLEID	IQUANT	14	Sense Cable ID
PWRCABLEID	IQUANT	7	Power Cable ID
DCCALDATE	LABEL	11/9/2022	DC Calibration Date
ACCALDATE	LABEL	11/9/2022	AC Calibration Date
THERMOSELECT	IQUANT	1	Thermo Select
FRAMEWORKVERSION	LABEL	7.8.2	Framework Version
INSTRUMENTVERSION	LABEL	4.40	Instrument Version
COMPLIANCEVOLTAGE	IQUANT	0	Compliance Voltage
CURVE1	TABLE
	Pt	T	Vf	Im	Vu	Sig	Ach	IERange	Over	Temp
	#	s	V vs. Ref.	A	V	V	V	#	bits	deg C
	0	0.001433	4.98691E-001	6.78710E-005	0.00000E+000	5.00000E-001	-8.07050E-004	10	..........a	-327.74
	7	0.011467	4.91697E-001	5.74912E-005	0.00000E+000	4.93000E-001	-7.95939E-004	10	..........a	-327.74
	14	0.0215	4.84656E-001	5.18295E-005	0.00000E+000	4.85950E-001	-8.73717E-004	10	..........a	-327.74
	21	0.031533	4.77744E-001	4.62268E-005	0.00000E+000	4.78950E-001	-8.18161E-004	10	..........a	-327.74
	28	0.041567	4.70650E-001	4.35729E-005	0.00000E+000	4.71900E-001	-7.62605E-004	10	..........a	-327.74
	35	0.0516	4.63603E-001	3.95035E-005	0.00000E+000	4.64900E-001	-8.18161E-004	10	..........a	-327.74
	42	0.061633	4.56579E-001	3.81471E-005	0.00000E+000	4.57850E-001	-7.95939E-004	10	..........a	-327.74
	49	0.071667	4.49791E-001	3.59649E-005	0.00000E+000	4.50850E-001	-8.29272E-004	10	..........a	-327.74
	56	0.0817	4.42573E-001	3.34879E-005	0.00000E+000	4.43800E-001	-8.07050E-004	10	..........a	-327.74
	63	0.091733	4.35456E-001	3.14828E-005	0.00000E+000	4.36800E-001	-8.51494E-004	10	..........a	-327.74
	70	0.101767	4.28544E-001	2.98904E-005	0.00000E+000	4.29750E-001	-8.62605E-004	10	..........a	-327.74
	77	0.1118	4.21538E-001	2.88878E-005	0.00000E+000	4.22750E-001	-7.95939E-004	10	..........a	-327.74
	84	0.121833	4.14544E-001	2.70006E-005	0.00000E+000	4.15700E-001	-8.07050E-004	10	..........a	-327.74
	91	0.131867	4.07503E-001	2.50544E-005	0.00000E+000	4.08700E-001	-8.07050E-004	10	..........a	-327.74
	98	0.1419	4.00397E-001	2.35210E-005	0.00000E+000	4.01650E-001	-8.84828E-004	10	..........a	-327.74
	105	0.151933	3.93344E-001	2.41107E-005	0.00000E+000	3.94650E-001	-8.40383E-004	10	..........a	-327.74
	112	0.161967	3.86362E-001	2.21645E-005	0.00000E+000	3.87650E-001	-8.29272E-004	10	..........a	-327.74
	119	0.172	3.79409E-001	2.16927E-005	0.00000E+000	3.80600E-001	-8.18161E-004	10	..........a	-327.74
	126	0.182033	3.72379E-001	2.11030E-005	0.00000E+000	3.73600E-001	-8.07050E-004	10	..........a	-327.74
	133	0.192067	3.65326E-001	2.02773E-005	0.00000E+000	3.66550E-001	-8.07050E-004	10	..........a	-327.74
	140	0.2021	3.58344E-001	1.80952E-005	0.00000E+000	3.59550E-001	-8.18161E-004	10	..........a	-327.74
	147	0.212133	3.51326E-001	1.82721E-005	0.00000E+000	3.52500E-001	-7.95939E-004	10	..........a	-327.74
	154	0.222167	3.44297E-001	1.70336E-005	0.00000E+000	3.45500E-001	-8.29272E-004	10	..........a	-327.74
	161	0.2322	3.37215E-001	1.60900E-005	0.00000E+000	3.38450E-001	-8.62605E-004	10	..........a	-327.74
	168	0.242233	3.30232E-001	1.55002E-005	0.00000E+000	3.31450E-001	-8.40383E-004	10	..........a	-327.74
	175	0.252267	3.23315E-001	1.43797E-005	0.00000E+000	3.24400E-001	-7.95939E-004	10	..........a	-327.74
	182	0.2623	3.16197E-001	1.45566E-005	0.00000E+000	3.17400E-001	-8.62605E-004	10	..........a	-327.74
	189	0.272333	3.09138E-001	1.43207E-005	0.00000E+000	3.10350E-001	-8.84828E-004	10	..........a	-327.74
	196	0.282367	3.02132E-001	1.28463E-005	0.00000E+000	3.03350E-001	-8.40383E-004	10	..........a	-327.74
	203	0.2924	2.95038E-001	1.30822E-005	0.00000E+000	2.96300E-001	-8.40383E-004	10	..........a	-327.74
	210	0.302433	2.88173E-001	1.16078E-005	0.00000E+000	2.89300E-001	-8.84828E-004	10	..........a	-327.74
	217	0.312467	2.81185E-001	1.14899E-005	0.00000E+000	2.82300E-001	-8.51494E-004	10	..........a	-327.74
	224	0.3225	2.74073E-001	1.09591E-005	0.00000E+000	2.75250E-001	-7.84828E-004	10	..........a	-327.74
	231	0.332533	2.67003E-001	1.01334E-005	0.00000E+000	2.68250E-001	-8.18161E-004	10	..........a	-327.74
	238	0.342567	2.59985E-001	1.03103E-005	0.00000E+000	2.61200E-001	-7.73717E-004	10	..........a	-327.74
	245	0.3526	2.53067E-001	8.54105E-006	0.00000E+000	2.54200E-001	-7.84828E-004	10	..........a	-327.74
	252	0.362633	2.45997E-001	8.54105E-006	0.00000E+000	2.47150E-001	-7.84828E-004	10	..........a	-327.74
	259	0.372667	2.38956E-001	8.01027E-006	0.00000E+000	2.40150E-001	-7.73717E-004	10	..........a	-327.74
	266	0.3827	2.31891E-001	7.89231E-006	0.00000E+000	2.33100E-001	-7.84828E-004	10	..........a	-327.74
	273	0.392733	2.24903E-001	6.35894E-006	0.00000E+000	2.26100E-001	-7.95939E-004	10	..........a	-327.74
	280	0.402767	2.17838E-001	7.06665E-006	0.00000E+000	2.19050E-001	-8.29272E-004	10	..........a	-327.74
	287	0.4128	2.10838E-001	4.88453E-006	0.00000E+000	2.12050E-001	-7.62605E-004	10	..........a	-327.74
	294	0.422833	2.03862E-001	5.59225E-006	0.00000E+000	2.05000E-001	-7.95939E-004	10	..........a	-327.74
	301	0.432867	1.96938E-001	4.23580E-006	0.00000E+000	1.98000E-001	-8.29272E-004	10	..........a	-327.74
	308	0.4429	1.89815E-001	4.17682E-006	0.00000E+000	1.90950E-001	-8.51494E-004	10	..........a	-327.74
	315	0.452933	1.82797E-001	3.64604E-006	0.00000E+000	1.83950E-001	-7.84828E-004	10	..........a	-327.74
	322	0.462967	1.75738E-001	2.58446E-006	0.00000E+000	1.76950E-001	-7.95939E-004	10	..........a	-327.74
	329	0.473	1.68773E-001	2.05368E-006	0.00000E+000	1.69900E-001	-8.29272E-004	10	..........a	-327.74
	336	0.483033	1.61815E-001	1.99470E-006	0.00000E+000	1.62900E-001	-8.40383E-004	10	..........a	-327.74
	343	0.493067	1.54779E-001	1.69982E-006	0.00000E+000	1.55850E-001	-8.18161E-004	10	..........a	-327.74
	350	0.5031	1.47785E-001	5.79277E-007	0.00000E+000	1.48850E-001	-8.51494E-004	10	..........a	-327.74
	357	0.513133	1.40679E-001	1.58187E-006	0.00000E+000	1.41800E-001	-7.84828E-004	10	..........a	-327.74
	364	0.523167	1.33679E-001	7.56205E-007	0.00000E+000	1.34800E-001	-8.51494E-004	10	..........a	-327.74
	371	0.5332	1.26656E-001	8.15182E-007	0.00000E+000	1.27750E-001	-8.40383E-004	10	..........a	-327.74
	378	0.543233	1.19579E-001	-2.78236E-006	0.00000E+000	1.20750E-001	-7.73717E-004	10	..........a	-327.74
	385	0.553267	1.12497E-001	-2.95929E-006	0.00000E+000	1.13700E-001	-7.40383E-004	10	..........a	-327.74
	392	0.5633	1.05597E-001	-4.84653E-006	0.00000E+000	1.06700E-001	-8.18161E-004	10	..........a	-327.74
	399	0.573333	9.85145E-002	-4.31574E-006	0.00000E+000	9.96500E-002	-8.51494E-004	10	..........a	-327.74
	406	0.583367	9.15204E-002	-3.84393E-006	0.00000E+000	9.26500E-002	-7.95939E-004	10	..........a	-327.74
	413	0.5934	8.44498E-002	-3.43110E-006	0.00000E+000	8.56000E-002	-7.73717E-004	10	..........a	-327.74
	420	0.603433	7.74322E-002	-4.49267E-006	0.00000E+000	7.86000E-002	-8.29272E-004	10	..........a	-327.74
	427	0.613467	7.05851E-002	-4.13881E-006	0.00000E+000	7.16000E-002	-8.40383E-004	10	..........a	-327.74
	434	0.6235	6.34028E-002	-5.20038E-006	0.00000E+000	6.45500E-002	-7.84828E-004	10	..........a	-327.74
	441	0.633533	5.64086E-002	-4.55165E-006	0.00000E+000	5.75500E-002	-8.29272E-004	10	..........a	-327.74
	448	0.643567	4.93851E-002	-4.55165E-006	0.00000E+000	5.05000E-002	-8.07050E-004	10	..........a	-327.74
	455	0.6536	4.23969E-002	-5.02345E-006	0.00000E+000	4.35000E-002	-7.84828E-004	10	..........a	-327.74
	462	0.663633	3.53734E-002	-4.66960E-006	0.00000E+000	3.64500E-002	-7.84828E-004	10	..........a	-327.74
	469	0.673667	2.83557E-002	-4.78755E-006	0.00000E+000	2.94500E-002	-7.73717E-004	10	..........a	-327.74
	476	0.6837	2.12322E-002	-4.72857E-006	0.00000E+000	2.24000E-002	-7.29272E-004	10	..........a	-327.74
	483	0.693733	1.43204E-002	-6.14400E-006	0.00000E+000	1.54000E-002	-7.73717E-004	10	..........a	-327.74
	490	0.703767	7.27924E-003	-4.72857E-006	0.00000E+000	8.34998E-003	-7.73717E-004	10	..........a	-327.74
	497	0.7138	2.67473E-004	-5.08243E-006	0.00000E+000	1.34999E-003	-8.07050E-004	10	..........a	-327.74
	504	0.723833	-6.82076E-003	-6.14400E-006	0.00000E+000	-5.70001E-003	-8.07050E-004	10	..........a	-327.74
	511	0.733867	-1.38914E-002	-6.85171E-006	0.00000E+000	-1.27000E-002	-8.07050E-004	10	..........a	-327.74
	518	0.7439	-2.08325E-002	-7.02864E-006	0.00000E+000	-1.97500E-002	-8.40383E-004	10	..........a	-327.74
	525	0.753933	-2.77796E-002	-6.91069E-006	0.00000E+000	-2.67500E-002	-7.62605E-004	10	..........a	-327.74
	532	0.763967	-3.48678E-002	-6.20298E-006	0.00000E+000	-3.37500E-002	-7.73717E-004	10	..........a	-327.74
	539	0.774	-4.19266E-002	-6.85171E-006	0.00000E+000	-4.08000E-002	-8.07050E-004	10	..........a	-327.74
	546	0.784033	-4.88914E-002	-6.14400E-006	0.00000E+000	-4.78000E-002	-7.73717E-004	10	..........a	-327.74
	553	0.794067	-5.58502E-002	-6.91069E-006	0.00000E+000	-5.48500E-002	-7.84828E-004	10	..........a	-327.74
	560	0.8041	-6.28737E-002	-6.73376E-006	0.00000E+000	-6.18500E-002	-8.07050E-004	10	..........a	-327.74
	567	0.814133	-6.99855E-002	-6.96967E-006	0.00000E+000	-6.89000E-002	-7.51494E-004	10	..........a	-327.74
	574	0.824167	-7.69913E-002	-7.67738E-006	0.00000E+000	-7.59000E-002	-7.84828E-004	10	..........a	-327.74
	581	0.8342	-8.40619E-002	-7.32352E-006	0.00000E+000	-8.29500E-002	-7.84828E-004	10	..........a	-327.74
	588	0.844233	-9.10090E-002	-7.38250E-006	0.00000E+000	-8.99500E-002	-7.62605E-004	10	..........a	-327.74
	595	0.854267	-9.80796E-002	-6.85171E-006	0.00000E+000	-9.70000E-002	-8.07050E-004	10	..........a	-327.74
	602	0.8643	-1.05050E-001	-7.61840E-006	0.00000E+000	-1.04000E-001	-7.51494E-004	10	..........a	-327.74
	609	0.874333	-1.12180E-001	-8.14919E-006	0.00000E+000	-1.11050E-001	-7.29272E-004	10	..........a	-327.74
	616	0.884367	-1.19109E-001	-8.09021E-006	0.00000E+000	-1.18050E-001	-7.84828E-004	10	..........a	-327.74
	623	0.8944	-1.26127E-001	-7.85431E-006	0.00000E+000	-1.25100E-001	-8.18161E-004	10	..........a	-327.74
	630	0.904433	-1.33185E-001	-8.14919E-006	0.00000E+000	-1.32100E-001	-7.84828E-004	10	..........a	-327.74
	637	0.914467	-1.40244E-001	-8.62100E-006	0.00000E+000	-1.39100E-001	-8.07050E-004	10	..........a	-327.74
	644	0.9245	-1.47285E-001	-8.91588E-006	0.00000E+000	-1.46150E-001	-7.51494E-004	10	..........a	-327.74
	651	0.934533	-1.54133E-001	-9.26973E-006	0.00000E+000	-1.53150E-001	-7.95939E-004	10	..........a	-327.74
	658	0.944567	-1.61256E-001	-9.85950E-006	0.00000E+000	-1.60200E-001	-7.95939E-004	10	..........a	-327.74
	665	0.9546	-1.68297E-001	-1.01544E-005	0.00000E+000	-1.67200E-001	-7.40383E-004	10	..........a	-327.74
	672	0.96463	-1.75362E-001	-1.12159E-005	0.00000E+000	-1.74250E-001	-8.07050E-004	10	..........a	-327.74
	679	0.97467	-1.82233E-001	-9.50564E-006	0.00000E+000	-1.81250E-001	-7.84828E-004	10	..........a	-327.74
	686	0.9847	-1.89297E-001	-1.03903E-005	0.00000E+000	-1.88300E-001	-7.73717E-004	10	..........a	-327.74
	693	0.99473	-1.96391E-001	-1.10980E-005	0.00000E+000	-1.95300E-001	-7.73717E-004	10	..........a	-327.74
	700	1.00477	-2.03491E-001	-1.13339E-005	0.00000E+000	-2.02350E-001	-8.07050E-004	10	..........a	-327.74
	707	1.0148	-2.10309E-001	-1.18647E-005	0.00000E+000	-2.09350E-001	-7.51494E-004	10	..........a	-327.74
	714	1.02483	-2.17403E-001	-1.14519E-005	0.00000E+000	-2.16400E-001	-7.73717E-004	10	..........a	-327.74
	721	1.03487	-2.24444E-001	-1.16288E-005	0.00000E+000	-2.23400E-001	-8.18161E-004	10	..........a	-327.74
	728	1.0449	-2.31491E-001	-1.23955E-005	0.00000E+000	-2.30450E-001	-7.62605E-004	10	..........a	-327.74
	735	1.05493	-2.38468E-001	-1.35160E-005	0.00000E+000	-2.37450E-001	-7.07050E-004	10	..........a	-327.74
	742	1.06497	-2.45503E-001	-1.33981E-005	0.00000E+000	-2.44450E-001	-7.95939E-004	10	..........a	-327.74
	749	1.075	-2.52527E-001	-1.42237E-005	0.00000E+000	-2.51500E-001	-8.18161E-004	10	..........a	-327.74
	756	1.08503	-2.59538E-001	-1.42827E-005	0.00000E+000	-2.58500E-001	-7.95939E-004	10	..........a	-327.74
	763	1.09507	-2.66591E-001	-1.51673E-005	0.00000E+000	-2.65550E-001	-7.51494E-004	10	..........a	-327.74
	770	1.1051	-2.73485E-001	-1.56392E-005	0.00000E+000	-2.72550E-001	-7.62605E-004	10	..........a	-327.74
	777	1.11513	-2.80550E-001	-1.59340E-005	0.00000E+000	-2.79600E-001	-7.95939E-004	10	..........a	-327.74
	784	1.12517	-2.87621E-001	-1.58751E-005	0.00000E+000	-2.86600E-001	-8.29272E-004	10	..........a	-327.74
	791	1.1352	-2.94697E-001	-1.74674E-005	0.00000E+000	-2.93650E-001	-7.62605E-004	10	..........a	-327.74
	798	1.14523	-3.01668E-001	-1.70546E-005	0.00000E+000	-3.00650E-001	-8.07050E-004	10	..........a	-327.74
	805	1.15527	-3.08656E-001	-1.78802E-005	0.00000E+000	-3.07700E-001	-7.73717E-004	10	..........a	-327.74
	812	1.1653	-3.15691E-001	-1.89418E-005	0.00000E+000	-3.14700E-001	-7.84828E-004	10	..........a	-327.74
	819	1.17533	-3.22756E-001	-1.84700E-005	0.00000E+000	-3.21750E-001	-7.29272E-004	10	..........a	-327.74
	826	1.18537	-3.29809E-001	-1.89418E-005	0.00000E+000	-3.28750E-001	-7.95939E-004	10	..........a	-327.74
	833	1.1954	-3.36762E-001	-2.05342E-005	0.00000E+000	-3.35800E-001	-7.84828E-004	10	..........a	-327.74
	840	1.20543	-3.43762E-001	-2.05342E-005	0.00000E+000	-3.42800E-001	-7.84828E-004	10	..........a	-327.74
	847	1.21547	-3.50750E-001	-2.18906E-005	0.00000E+000	-3.49800E-001	-7.95939E-004	10	..........a	-327.74
	854	1.2255	-3.57880E-001	-2.27753E-005	0.00000E+000	-3.56850E-001	-7.95939E-004	10	..........a	-327.74
	861	1.23553	-3.64733E-001	-2.38958E-005	0.00000E+000	-3.63850E-001	-7.95939E-004	10	..........a	-327.74
	868	1.24557	-3.71868E-001	-2.49574E-005	0.00000E+000	-3.70900E-001	-7.51494E-004	10	..........a	-327.74
	875	1.2556	-3.78880E-001	-2.63728E-005	0.00000E+000	-3.77900E-001	-8.51494E-004	10	..........a	-327.74
	882	1.26563	-3.85932E-001	-2.94396E-005	0.00000E+000	-3.84950E-001	-7.84828E-004	10	..........a	-327.74
	889	1.27567	-3.92874E-001	-3.17986E-005	0.00000E+000	-3.91950E-001	-7.73717E-004	10	..........a	-327.74
	896	1.2857	-3.99891E-001	-3.56910E-005	0.00000E+000	-3.99000E-001	-7.40383E-004	10	..........a	-327.74
	903	1.29573	-4.06956E-001	-3.86988E-005	0.00000E+000	-4.06000E-001	-8.40383E-004	10	..........a	-327.74
	910	1.30577	-4.14038E-001	-4.55990E-005	0.00000E+000	-4.13050E-001	-8.07050E-004	10	..........a	-327.74
	917	1.3158	-4.21062E-001	-5.16736E-005	0.00000E+000	-4.20050E-001	-7.84828E-004	10	..........a	-327.74
	924	1.32583	-4.28121E-001	-5.89866E-005	0.00000E+000	-4.27100E-001	-7.51494E-004	10	..........a	-327.74
	931	1.33587	-4.35009E-001	-6.78330E-005	0.00000E+000	-4.34100E-001	-7.84828E-004	10	..........a	-327.74
	938	1.3459	-4.42056E-001	-7.70333E-005	0.00000E+000	-4.41150E-001	-7.84828E-004	10	..........a	-327.74
	945	1.35593	-4.49127E-001	-8.70003E-005	0.00000E+000	-4.48150E-001	-7.95939E-004	10	..........a	-327.74
	952	1.36597	-4.56097E-001	-9.63775E-005	0.00000E+000	-4.55150E-001	-8.62605E-004	10	..........a	-327.74
	959	1.376	-4.63127E-001	-1.05578E-004	0.00000E+000	-4.62200E-001	-7.51494E-004	10	..........a	-327.74
	966	1.38603	-4.70091E-001	-1.14660E-004	0.00000E+000	-4.69200E-001	-7.95939E-004	10	..........a	-327.74
	973	1.39607	-4.77203E-001	-1.24391E-004	0.00000E+000	-4.76250E-001	-7.73717E-004	10	..........a	-327.74
	980	1.4061	-4.84215E-001	-1.33238E-004	0.00000E+000	-4.83250E-001	-7.51494E-004	10	..........a	-327.74
	987	1.41613	-4.91168E-001	-1.44148E-004	0.00000E+000	-4.90300E-001	-7.95939E-004	10	..........a	-327.74
	994	1.42617	-4.98203E-001	-1.54882E-004	0.00000E+000	-4.97300E-001	-8.07050E-004	10	..........a	-327.74
	1001	1.4362	-5.05309E-001	-1.66559E-004	0.00000E+000	-5.04350E-001	-7.07050E-004	10	..........a	-327.74
	1008	1.44623	-5.12297E-001	-1.81893E-004	0.00000E+000	-5.11350E-001	-7.51494E-004	10	..........a	-327.74
	1015	1.45627	-5.19332E-001	-2.00411E-004	0.00000E+000	-5.18400E-001	-7.62605E-004	10	..........a	-327.74
	1022	1.4663	-5.26280E-001	-2.21466E-004	0.00000E+000	-5.25400E-001	-7.95939E-004	10	..........a	-327.74
	1029	1.47633	-5.33344E-001	-2.44879E-004	0.00000E+000	-5.32450E-001	-8.07050E-004	10	..........a	-327.74
	1036	1.48637	-5.40385E-001	-2.69944E-004	0.00000E+000	-5.39450E-001	-7.40383E-004	10	..........a	-327.74
	1043	1.4964	-5.47444E-001	-2.96130E-004	0.00000E+000	-5.46500E-001	-8.40383E-004	10	..........a	-327.74
	1050	1.50643	-5.54397E-001	-3.22492E-004	0.00000E+000	-5.53500E-001	-8.62605E-004	10	..........a	-327.74
	1057	1.51647	-5.61391E-001	-3.46259E-004	0.00000E+000	-5.60500E-001	-7.84828E-004	10	..........a	-327.74
	1064	1.5265	-5.68444E-001	-3.68198E-004	0.00000E+000	-5.67550E-001	-7.84828E-004	10	..........a	-327.74
	1071	1.53653	-5.75497E-001	-3.84594E-004	0.00000E+000	-5.74550E-001	-8.18161E-004	10	..........a	-327.74
	1078	1.54657	-5.82544E-001	-3.99397E-004	0.00000E+000	-5.81600E-001	-8.07050E-004	10	..........a	-327.74
	1085	1.5566	-5.89480E-001	-4.06415E-004	0.00000E+000	-5.88600E-001	-7.73717E-004	10	..........a	-327.74
	1092	1.56663	-5.96480E-001	-4.11192E-004	0.00000E+000	-5.95650E-001	-7.73717E-004	10	..........a	-327.74
	1099	1.57667	-6.03556E-001	-4.09777E-004	0.00000E+000	-6.02650E-001	-7.62605E-004	10	..........a	-327.74
	1106	1.5867	-6.10609E-001	-4.07359E-004	0.00000E+000	-6.09700E-001	-7.73717E-004	10	..........a	-327.74
	1113	1.59673	-6.17468E-001	-3.99928E-004	0.00000E+000	-6.16700E-001	-7.51494E-004	10	..........a	-327.74
	1120	1.60677	-6.24550E-001	-3.92850E-004	0.00000E+000	-6.23750E-001	-7.73717E-004	10	..........a	-327.74
	1127	1.6168	-6.31603E-001	-3.81114E-004	0.00000E+000	-6.30750E-001	-7.73717E-004	10	..........a	-327.74
	1134	1.62683	-6.38668E-001	-3.71796E-004	0.00000E+000	-6.37800E-001	-7.73717E-004	10	..........a	-327.74
	1141	1.63687	-6.45585E-001	-3.61475E-004	0.00000E+000	-6.44800E-001	-7.73717E-004	10	..........a	-327.74
	1148	1.6469	-6.52685E-001	-3.51449E-004	0.00000E+000	-6.51850E-001	-8.07050E-004	10	..........a	-327.74
	1155	1.65693	-6.59691E-001	-3.42544E-004	0.00000E+000	-6.58850E-001	-7.29272E-004	10	..........a	-327.74
	1162	1.66697	-6.66774E-001	-3.33461E-004	0.00000E+000	-6.65850E-001	-7.84828E-004	10	..........a	-327.74
	1169	1.677	-6.73691E-001	-3.24379E-004	0.00000E+000	-6.72900E-001	-7.84828E-004	10	..........a	-327.74
	1176	1.68703	-6.80727E-001	-3.15356E-004	0.00000E+000	-6.79900E-001	-7.84828E-004	10	..........a	-327.74
	1183	1.69707	-6.87762E-001	-3.09871E-004	0.00000E+000	-6.86950E-001	-7.29272E-004	10	..........a	-327.74
	1190	1.7071	-6.94768E-001	-3.01909E-004	0.00000E+000	-6.93950E-001	-7.95939E-004	10	..........a	-327.74
	1197	1.71713	-7.01868E-001	-2.94832E-004	0.00000E+000	-7.01000E-001	-7.29272E-004	10	..........a	-327.74
	1204	1.72717	-7.08850E-001	-2.88876E-004	0.00000E+000	-7.08000E-001	-7.84828E-004	10	..........a	-327.74
	1211	1.7372	-7.15850E-001	-2.83922E-004	0.00000E+000	-7.15050E-001	-7.73717E-004	10	..........a	-327.74
	1218	1.74723	-7.22850E-001	-2.77729E-004	0.00000E+000	-7.22050E-001	-7.29272E-004	10	..........a	-327.74
	1225	1.75727	-7.29921E-001	-2.72775E-004	0.00000E+000	-7.29100E-001	-7.84828E-004	10	..........a	-327.74
	1232	1.7673	-7.36891E-001	-2.68175E-004	0.00000E+000	-7.36100E-001	-7.73717E-004	10	..........a	-327.74
	1239	1.77733	-7.43927E-001	-2.63339E-004	0.00000E+000	-7.43150E-001	-8.07050E-004	10	..........a	-327.74
	1246	1.78737	-7.51003E-001	-2.59328E-004	0.00000E+000	-7.50150E-001	-7.95939E-004	10	..........a	-327.74
	1253	1.7974	-7.57974E-001	-2.54551E-004	0.00000E+000	-7.57200E-001	-7.73717E-004	10	..........a	-327.74
	1260	1.80743	-7.65009E-001	-2.51190E-004	0.00000E+000	-7.64200E-001	-7.73717E-004	10	..........a	-327.74
	1267	1.81747	-7.72027E-001	-2.47002E-004	0.00000E+000	-7.71200E-001	-8.51494E-004	10	..........a	-327.74
	1274	1.8275	-7.78974E-001	-2.43759E-004	0.00000E+000	-7.78250E-001	-7.73717E-004	10	..........a	-327.74
	1281	1.83753	-7.86044E-001	-2.40338E-004	0.00000E+000	-7.85250E-001	-7.84828E-004	10	..........a	-327.74
	1288	1.84757	-7.93132E-001	-2.37153E-004	0.00000E+000	-7.92300E-001	-7.84828E-004	10	..........a	-327.74
	1295	1.8576	-8.00103E-001	-2.34028E-004	0.00000E+000	-7.99300E-001	-7.73717E-004	10	..........a	-327.74
	1302	1.86763	-8.07162E-001	-2.31728E-004	0.00000E+000	-8.06350E-001	-8.51494E-004	10	..........a	-327.74
	1309	1.87767	-8.14121E-001	-2.28130E-004	0.00000E+000	-8.13350E-001	-8.18161E-004	10	..........a	-327.74
	1316	1.8877	-8.21174E-001	-2.25181E-004	0.00000E+000	-8.20400E-001	-7.62605E-004	10	..........a	-327.74
	1323	1.89773	-8.28174E-001	-2.22468E-004	0.00000E+000	-8.27400E-001	-8.18161E-004	10	..........a	-327.74
	1330	1.90777	-8.35174E-001	-2.20345E-004	0.00000E+000	-8.34450E-001	-7.73717E-004	10	..........a	-327.74
	1337	1.9178	-8.42203E-001	-2.17514E-004	0.00000E+000	-8.41450E-001	-7.95939E-004	10	..........a	-327.74
	1344	1.92783	-8.49232E-001	-2.16512E-004	0.00000E+000	-8.48500E-001	-7.95939E-004	10	..........a	-327.74
	1351	1.93787	-8.56203E-001	-2.13445E-004	0.00000E+000	-8.55500E-001	-8.18161E-004	10	..........a	-327.74
	1358	1.9479	-8.63268E-001	-2.12383E-004	0.00000E+000	-8.62550E-001	-8.18161E-004	10	..........a	-327.74
	1365	1.95793	-8.70215E-001	-2.09081E-004	0.00000E+000	-8.69550E-001	-7.62605E-004	10	..........a	-327.74
	1372	1.96797	-8.77285E-001	-2.08255E-004	0.00000E+000	-8.76550E-001	-7.95939E-004	10	..........a	-327.74
	1379	1.978	-8.84327E-001	-2.04009E-004	0.00000E+000	-8.83600E-001	-7.84828E-004	10	..........a	-327.74
	1386	1.98803	-8.91385E-001	-2.03478E-004	0.00000E+000	-8.90600E-001	-7.73717E-004	10	..........a	-327.74
	1393	1.99807	-8.98344E-001	-2.02770E-004	0.00000E+000	-8.97650E-001	-7.29272E-004	10	..........a	-327.74
	1400	2.0081	-9.05333E-001	-2.00175E-004	0.00000E+000	-9.04650E-001	-7.95939E-004	10	..........a	-327.74
	1407	2.01813	-9.12444E-001	-1.97993E-004	0.00000E+000	-9.11700E-001	-7.18161E-004	10	..........a	-327.74
	1414	2.02817	-9.19444E-001	-1.97168E-004	0.00000E+000	-9.18700E-001	-7.84828E-004	10	..........a	-327.74
	1421	2.0382	-9.26438E-001	-1.96460E-004	0.00000E+000	-9.25750E-001	-8.51494E-004	10	..........a	-327.74
	1428	2.04823	-9.33421E-001	-1.93039E-004	0.00000E+000	-9.32750E-001	-7.62605E-004	10	..........a	-327.74
	1435	2.05827	-9.40485E-001	-1.92862E-004	0.00000E+000	-9.39800E-001	-7.40383E-004	10	..........a	-327.74
	1442	2.0683	-9.47509E-001	-1.90326E-004	0.00000E+000	-9.46800E-001	-7.84828E-004	10	..........a	-327.74
	1449	2.07833	-9.54503E-001	-1.89560E-004	0.00000E+000	-9.53850E-001	-7.84828E-004	10	..........a	-327.74
	1456	2.08837	-9.61544E-001	-1.88144E-004	0.00000E+000	-9.60850E-001	-8.07050E-004	10	..........a	-327.74
	1463	2.0984	-9.68591E-001	-1.87319E-004	0.00000E+000	-9.67900E-001	-7.51494E-004	10	..........a	-327.74
	1470	2.10843	-9.75574E-001	-1.86139E-004	0.00000E+000	-9.74900E-001	-8.29272E-004	10	..........a	-327.74
	1477	2.11847	-9.82627E-001	-1.84665E-004	0.00000E+000	-9.81900E-001	-8.18161E-004	10	..........a	-327.74
	1484	2.1285	-9.89674E-001	-1.84016E-004	0.00000E+000	-9.88950E-001	-7.18161E-004	10	..........a	-327.74
	1491	2.13853	-9.96603E-001	-1.82777E-004	0.00000E+000	-9.95950E-001	-7.62605E-004	10	..........a	-327.74
	1498	2.14857	-9.97680E-001	-1.75523E-004	0.00000E+000	-9.96950E-001	-8.18161E-004	10	..........a	-327.74
	1505	2.1586	-9.90697E-001	-1.68859E-004	0.00000E+000	-9.89950E-001	-8.07050E-004	10	..........a	-327.74
	1512	2.16863	-9.83668E-001	-1.65144E-004	0.00000E+000	-9.82950E-001	-8.07050E-004	10	..........a	-327.74
	1519	2.17867	-9.76556E-001	-1.61428E-004	0.00000E+000	-9.75900E-001	-7.40383E-004	10	..........a	-327.74
	1526	2.1887	-9.69509E-001	-1.58833E-004	0.00000E+000	-9.68900E-001	-8.29272E-004	10	..........a	-327.74
	1533	2.19873	-9.62544E-001	-1.55884E-004	0.00000E+000	-9.61850E-001	-7.73717E-004	10	..........a	-327.74
	1540	2.20877	-9.55574E-001	-1.54469E-004	0.00000E+000	-9.54850E-001	-7.84828E-004	10	..........a	-327.74
	1547	2.2188	-9.48509E-001	-1.51638E-004	0.00000E+000	-9.47800E-001	-7.40383E-004	10	..........a	-327.74
	1554	2.22883	-9.41538E-001	-1.49515E-004	0.00000E+000	-9.40800E-001	-7.62605E-004	10	..........a	-327.74
	1561	2.23887	-9.34438E-001	-1.47864E-004	0.00000E+000	-9.33750E-001	-8.07050E-004	10	..........a	-327.74
	1568	2.2489	-9.27521E-001	-1.45564E-004	0.00000E+000	-9.26750E-001	-7.73717E-004	10	..........a	-327.74
	1575	2.25893	-9.20403E-001	-1.45387E-004	0.00000E+000	-9.19700E-001	-7.62605E-004	10	..........a	-327.74
	1582	2.26897	-9.13391E-001	-1.43440E-004	0.00000E+000	-9.12700E-001	-7.84828E-004	10	..........a	-327.74
	1589	2.279	-9.06362E-001	-1.42084E-004	0.00000E+000	-9.05650E-001	-8.07050E-004	10	..........a	-327.74
	1596	2.28903	-8.99391E-001	-1.40374E-004	0.00000E+000	-8.98650E-001	-7.51494E-004	10	..........a	-327.74
	1603	2.29907	-8.92362E-001	-1.39017E-004	0.00000E+000	-8.91600E-001	-7.62605E-004	10	..........a	-327.74
	1610	2.3091	-8.85303E-001	-1.37543E-004	0.00000E+000	-8.84600E-001	-7.62605E-004	10	..........a	-327.74
	1617	2.31913	-8.78256E-001	-1.36304E-004	0.00000E+000	-8.77600E-001	-7.29272E-004	10	..........a	-327.74
	1624	2.32917	-8.71256E-001	-1.34535E-004	0.00000E+000	-8.70550E-001	-7.95939E-004	10	..........a	-327.74
	1631	2.3392	-8.64303E-001	-1.32766E-004	0.00000E+000	-8.63550E-001	-7.95939E-004	10	..........a	-327.74
	1638	2.34923	-8.57191E-001	-1.32648E-004	0.00000E+000	-8.56500E-001	-7.95939E-004	10	..........a	-327.74
	1645	2.35927	-8.50162E-001	-1.32471E-004	0.00000E+000	-8.49500E-001	-7.62605E-004	10	..........a	-327.74
	1652	2.3693	-8.43162E-001	-1.31645E-004	0.00000E+000	-8.42450E-001	-7.95939E-004	10	..........a	-327.74
	1659	2.37933	-8.36238E-001	-1.29404E-004	0.00000E+000	-8.35450E-001	-7.62605E-004	10	..........a	-327.74
	1666	2.38937	-8.29138E-001	-1.28166E-004	0.00000E+000	-8.28400E-001	-8.18161E-004	10	..........a	-327.74
	1673	2.3994	-8.22109E-001	-1.26750E-004	0.00000E+000	-8.21400E-001	-7.62605E-004	10	..........a	-327.74
	1680	2.40943	-8.15138E-001	-1.26396E-004	0.00000E+000	-8.14350E-001	-7.95939E-004	10	..........a	-327.74
	1687	2.41947	-8.08197E-001	-1.24922E-004	0.00000E+000	-8.07350E-001	-7.84828E-004	10	..........a	-327.74
	1694	2.4295	-8.01091E-001	-1.22976E-004	0.00000E+000	-8.00300E-001	-8.62605E-004	10	..........a	-327.74
	1701	2.43953	-7.94103E-001	-1.23271E-004	0.00000E+000	-7.93300E-001	-7.95939E-004	10	..........a	-327.74
	1708	2.44957	-7.87044E-001	-1.21619E-004	0.00000E+000	-7.86250E-001	-7.18161E-004	10	..........a	-327.74
	1715	2.4596	-7.80091E-001	-1.21206E-004	0.00000E+000	-7.79250E-001	-8.07050E-004	10	..........a	-327.74
	1722	2.46963	-7.73109E-001	-1.20794E-004	0.00000E+000	-7.72250E-001	-7.95939E-004	10	..........a	-327.74
	1729	2.47967	-7.66044E-001	-1.18965E-004	0.00000E+000	-7.65200E-001	-7.18161E-004	10	..........a	-327.74
	1736	2.4897	-7.58932E-001	-1.18199E-004	0.00000E+000	-7.58200E-001	-7.95939E-004	10	..........a	-327.74
	1743	2.49973	-7.51897E-001	-1.17255E-004	0.00000E+000	-7.51150E-001	-8.07050E-004	10	..........a	-327.74
	1750	2.50977	-7.44980E-001	-1.15722E-004	0.00000E+000	-7.44150E-001	-7.84828E-004	10	..........a	-327.74
	1757	2.5198	-7.37933E-001	-1.14483E-004	0.00000E+000	-7.37100E-001	-7.73717E-004	10	..........a	-327.74
	1764	2.52983	-7.30921E-001	-1.13481E-004	0.00000E+000	-7.30100E-001	-8.29272E-004	10	..........a	-327.74
	1771	2.53987	-7.23827E-001	-1.12006E-004	0.00000E+000	-7.23050E-001	-7.62605E-004	10	..........a	-327.74
	1778	2.5499	-7.16921E-001	-1.11593E-004	0.00000E+000	-7.16050E-001	-7.95939E-004	10	..........a	-327.74
	1785	2.55993	-7.09897E-001	-1.09824E-004	0.00000E+000	-7.09000E-001	-7.29272E-004	10	..........a	-327.74
	1792	2.56997	-7.02827E-001	-1.10060E-004	0.00000E+000	-7.02000E-001	-8.07050E-004	10	..........a	-327.74
	1799	2.58	-6.95762E-001	-1.06875E-004	0.00000E+000	-6.94950E-001	-8.07050E-004	10	..........a	-327.74
	1806	2.59003	-6.88768E-001	-1.06462E-004	0.00000E+000	-6.87950E-001	-7.73717E-004	10	..........a	-327.74
	1813	2.60007	-6.81750E-001	-1.04811E-004	0.00000E+000	-6.80900E-001	-8.18161E-004	10	..........a	-327.74
	1820	2.6101	-6.74738E-001	-1.02747E-004	0.00000E+000	-6.73900E-001	-8.18161E-004	10	..........a	-327.74
	1827	2.62013	-6.67656E-001	-1.00624E-004	0.00000E+000	-6.66900E-001	-7.95939E-004	10	..........a	-327.74
	1834	2.63017	-6.60674E-001	-1.00742E-004	0.00000E+000	-6.59850E-001	-8.18161E-004	10	..........a	-327.74
	1841	2.6402	-6.53680E-001	-9.63185E-005	0.00000E+000	-6.52850E-001	-8.18161E-004	10	..........a	-327.74
	1848	2.65023	-6.46632E-001	-9.37235E-005	0.00000E+000	-6.45800E-001	-8.51494E-004	10	..........a	-327.74
	1855	2.66027	-6.39709E-001	-9.04799E-005	0.00000E+000	-6.38800E-001	-7.62605E-004	10	..........a	-327.74
	1862	2.6703	-6.32591E-001	-8.75310E-005	0.00000E+000	-6.31750E-001	-7.51494E-004	10	..........a	-327.74
	1869	2.68033	-6.25462E-001	-8.25771E-005	0.00000E+000	-6.24750E-001	-8.07050E-004	10	..........a	-327.74
	1876	2.69037	-6.18609E-001	-7.75641E-005	0.00000E+000	-6.17700E-001	-8.18161E-004	10	..........a	-327.74
	1883	2.7004	-6.11627E-001	-7.23742E-005	0.00000E+000	-6.10700E-001	-7.95939E-004	10	..........a	-327.74
	1890	2.71043	-6.04562E-001	-6.59458E-005	0.00000E+000	-6.03650E-001	-7.40383E-004	10	..........a	-327.74
	1897	2.72047	-5.97497E-001	-5.80430E-005	0.00000E+000	-5.96650E-001	-7.40383E-004	10	..........a	-327.74
	1904	2.7305	-5.90427E-001	-4.89607E-005	0.00000E+000	-5.89600E-001	-8.51494E-004	10	..........a	-327.74
	1911	2.74053	-5.83485E-001	-3.85809E-005	0.00000E+000	-5.82600E-001	-7.07050E-004	10	..........a	-327.74
	1918	2.75057	-5.76415E-001	-2.67267E-005	0.00000E+000	-5.75550E-001	-8.18161E-004	10	..........a	-327.74
	1925	2.7606	-5.69415E-001	-1.55212E-005	0.00000E+000	-5.68550E-001	-7.84828E-004	10	..........a	-327.74
	1932	2.77063	-5.62474E-001	-1.42591E-006	0.00000E+000	-5.61550E-001	-8.40383E-004	10	..........a	-327.74
	1939	2.78067	-5.55427E-001	1.35540E-005	0.00000E+000	-5.54500E-001	-8.18161E-004	10	..........a	-327.74
	1946	2.7907	-5.48403E-001	2.74134E-005	0.00000E+000	-5.47500E-001	-7.95939E-004	10	..........a	-327.74
	1953	2.80073	-5.41291E-001	4.30421E-005	0.00000E+000	-5.40450E-001	-8.18161E-004	10	..........a	-327.74
	1960	2.81077	-5.34333E-001	5.77271E-005	0.00000E+000	-5.33450E-001	-8.07050E-004	10	..........a	-327.74
	1967	2.8208	-5.27327E-001	7.27660E-005	0.00000E+000	-5.26400E-001	-8.29272E-004	10	..........a	-327.74
	1974	2.83083	-5.20338E-001	8.73921E-005	0.00000E+000	-5.19400E-001	-7.62605E-004	10	..........a	-327.74
	1981	2.84087	-5.13262E-001	1.02136E-004	0.00000E+000	-5.12350E-001	-7.84828E-004	10	..........a	-327.74
	1988	2.8509	-5.06291E-001	1.15937E-004	0.00000E+000	-5.05350E-001	-8.29272E-004	10	..........a	-327.74
	1995	2.86093	-4.99227E-001	1.28911E-004	0.00000E+000	-4.98300E-001	-8.18161E-004	10	..........a	-327.74
	2002	2.87097	-4.92291E-001	1.41650E-004	0.00000E+000	-4.91300E-001	-7.84828E-004	10	..........a	-327.74
	2009	2.881	-4.85185E-001	1.53268E-004	0.00000E+000	-4.84250E-001	-8.29272E-004	10	..........a	-327.74
	2016	2.89103	-4.78191E-001	1.64002E-004	0.00000E+000	-4.77250E-001	-7.95939E-004	10	..........a	-327.74
	2023	2.90107	-4.71097E-001	1.73143E-004	0.00000E+000	-4.70200E-001	-8.07050E-004	10	..........a	-327.74
	2030	2.9111	-4.64115E-001	1.80928E-004	0.00000E+000	-4.63200E-001	-8.40383E-004	10	..........a	-327.74
	2037	2.92113	-4.57162E-001	1.87357E-004	0.00000E+000	-4.56200E-001	-7.84828E-004	10	..........a	-327.74
	2044	2.93117	-4.50062E-001	1.91721E-004	0.00000E+000	-4.49150E-001	-7.73717E-004	10	..........a	-327.74
	2051	2.9412	-4.43003E-001	1.93726E-004	0.00000E+000	-4.42150E-001	-8.29272E-004	10	..........a	-327.74
	2058	2.95123	-4.36027E-001	1.93726E-004	0.00000E+000	-4.35100E-001	-7.18161E-004	10	..........a	-327.74
	2065	2.96127	-4.29074E-001	1.94139E-004	0.00000E+000	-4.28100E-001	-8.07050E-004	10	..........a	-327.74
	2072	2.9713	-4.21985E-001	1.92016E-004	0.00000E+000	-4.21050E-001	-7.84828E-004	10	..........a	-327.74
	2079	2.98133	-4.14985E-001	1.89008E-004	0.00000E+000	-4.14050E-001	-8.29272E-004	10	..........a	-327.74
	2086	2.99137	-4.07874E-001	1.85764E-004	0.00000E+000	-4.07000E-001	-8.51494E-004	10	..........a	-327.74
	2093	3.0014	-4.00927E-001	1.81990E-004	0.00000E+000	-4.00000E-001	-7.62605E-004	10	..........a	-327.74
	2100	3.01143	-3.93903E-001	1.77920E-004	0.00000E+000	-3.92950E-001	-8.40383E-004	10	..........a	-327.74
	2107	3.02147	-3.86880E-001	1.74323E-004	0.00000E+000	-3.85950E-001	-7.62605E-004	10	..........a	-327.74
	2114	3.0315	-3.79850E-001	1.71020E-004	0.00000E+000	-3.78900E-001	-8.29272E-004	10	..........a	-327.74
	2121	3.04153	-3.72803E-001	1.66479E-004	0.00000E+000	-3.71900E-001	-8.29272E-004	10	..........a	-327.74
	2128	3.05157	-3.65780E-001	1.63825E-004	0.00000E+000	-3.64850E-001	-7.40383E-004	10	..........a	-327.74
	2135	3.0616	-3.58803E-001	1.60640E-004	0.00000E+000	-3.57850E-001	-7.73717E-004	10	..........a	-327.74
	2142	3.07163	-3.51838E-001	1.56158E-004	0.00000E+000	-3.50850E-001	-8.07050E-004	10	..........a	-327.74
	2149	3.08167	-3.44750E-001	1.54448E-004	0.00000E+000	-3.43800E-001	-8.07050E-004	10	..........a	-327.74
	2156	3.0917	-3.37780E-001	1.52089E-004	0.00000E+000	-3.36800E-001	-7.40383E-004	10	..........a	-327.74
	2163	3.10173	-3.30732E-001	1.48432E-004	0.00000E+000	-3.29750E-001	-7.95939E-004	10	..........a	-327.74
	2170	3.11177	-3.23738E-001	1.46604E-004	0.00000E+000	-3.22750E-001	-8.29272E-004	10	..........a	-327.74
	2177	3.1218	-3.16574E-001	1.45012E-004	0.00000E+000	-3.15700E-001	-8.62605E-004	10	..........a	-327.74
	2184	3.13183	-3.09591E-001	1.42948E-004	0.00000E+000	-3.08700E-001	-7.73717E-004	10	..........a	-327.74
	2191	3.14187	-3.02662E-001	1.40883E-004	0.00000E+000	-3.01650E-001	-8.18161E-004	10	..........a	-327.74
	2198	3.1519	-2.95644E-001	1.40176E-004	0.00000E+000	-2.94650E-001	-7.84828E-004	10	..........a	-327.74
	2205	3.16193	-2.88574E-001	1.38524E-004	0.00000E+000	-2.87600E-001	-8.07050E-004	10	..........a	-327.74
	2212	3.17197	-2.81509E-001	1.36224E-004	0.00000E+000	-2.80600E-001	-8.18161E-004	10	..........a	-327.74
	2219	3.182	-2.74574E-001	1.34101E-004	0.00000E+000	-2.73550E-001	-7.73717E-004	10	..........a	-327.74
	2226	3.19203	-2.67574E-001	1.31978E-004	0.00000E+000	-2.66550E-001	-7.62605E-004	10	..........a	-327.74
	2233	3.20207	-2.60444E-001	1.30975E-004	0.00000E+000	-2.59500E-001	-8.18161E-004	10	..........a	-327.74
	2240	3.2121	-2.53503E-001	1.29442E-004	0.00000E+000	-2.52500E-001	-8.29272E-004	10	..........a	-327.74
	2247	3.22213	-2.46503E-001	1.26906E-004	0.00000E+000	-2.45500E-001	-7.84828E-004	10	..........a	-327.74
	2254	3.23217	-2.39462E-001	1.25550E-004	0.00000E+000	-2.38450E-001	-7.84828E-004	10	..........a	-327.74
	2261	3.2422	-2.32409E-001	1.23662E-004	0.00000E+000	-2.31450E-001	-8.73717E-004	10	..........a	-327.74
	2268	3.25223	-2.25403E-001	1.21834E-004	0.00000E+000	-2.24400E-001	-8.29272E-004	10	..........a	-327.74
	2275	3.26227	-2.18397E-001	1.20301E-004	0.00000E+000	-2.17400E-001	-8.29272E-004	10	..........a	-327.74
	2282	3.2723	-2.11397E-001	1.17588E-004	0.00000E+000	-2.10350E-001	-8.18161E-004	10	..........a	-327.74
	2289	3.28233	-2.04433E-001	1.16880E-004	0.00000E+000	-2.03350E-001	-8.29272E-004	10	..........a	-327.74
	2296	3.29237	-1.97327E-001	1.15347E-004	0.00000E+000	-1.96300E-001	-8.29272E-004	10	..........a	-327.74
	2303	3.3024	-1.90209E-001	1.13460E-004	0.00000E+000	-1.89300E-001	-8.40383E-004	10	..........a	-327.74
	2310	3.31243	-1.83321E-001	1.10688E-004	0.00000E+000	-1.82250E-001	-8.07050E-004	10	..........a	-327.74
	2317	3.32247	-1.76344E-001	1.09744E-004	0.00000E+000	-1.75250E-001	-7.84828E-004	10	..........a	-327.74
	2324	3.3325	-1.69233E-001	1.08682E-004	0.00000E+000	-1.68200E-001	-7.51494E-004	10	..........a	-327.74
	2331	3.34253	-1.62291E-001	1.05675E-004	0.00000E+000	-1.61200E-001	-8.18161E-004	10	..........a	-327.74
	2338	3.35257	-1.55127E-001	1.05144E-004	0.00000E+000	-1.54150E-001	-8.29272E-004	10	..........a	-327.74
	2345	3.3626	-1.48227E-001	1.02667E-004	0.00000E+000	-1.47150E-001	-8.62605E-004	10	..........a	-327.74
	2352	3.37263	-1.41197E-001	1.01310E-004	0.00000E+000	-1.40150E-001	-8.29272E-004	10	..........a	-327.74
	2359	3.38267	-1.34133E-001	9.97181E-005	0.00000E+000	-1.33100E-001	-8.07050E-004	10	..........a	-327.74
	2366	3.3927	-1.27150E-001	9.88335E-005	0.00000E+000	-1.26100E-001	-7.84828E-004	10	..........a	-327.74
	2373	3.40273	-1.20150E-001	9.63565E-005	0.00000E+000	-1.19050E-001	-8.51494E-004	10	..........a	-327.74
	2380	3.41277	-1.13127E-001	9.60616E-005	0.00000E+000	-1.12050E-001	-8.29272E-004	10	..........a	-327.74
	2387	3.4228	-1.06027E-001	9.39974E-005	0.00000E+000	-1.05000E-001	-7.84828E-004	10	..........a	-327.74
	2394	3.43283	-9.90149E-002	9.20512E-005	0.00000E+000	-9.80000E-002	-7.73717E-004	10	..........a	-327.74
	2401	3.44287	-9.20325E-002	9.09307E-005	0.00000E+000	-9.09500E-002	-8.18161E-004	10	..........a	-327.74
	2408	3.4529	-8.50502E-002	8.94563E-005	0.00000E+000	-8.39500E-002	-7.95939E-004	10	..........a	-327.74
	2415	3.46293	-7.79149E-002	8.86306E-005	0.00000E+000	-7.69000E-002	-7.84828E-004	10	..........a	-327.74
	2422	3.47297	-7.09914E-002	8.75101E-005	0.00000E+000	-6.99000E-002	-7.73717E-004	10	..........a	-327.74
	2429	3.483	-6.39502E-002	8.60947E-005	0.00000E+000	-6.28500E-002	-7.84828E-004	10	..........a	-327.74
	2436	3.49303	-5.69913E-002	8.49151E-005	0.00000E+000	-5.58500E-002	-8.29272E-004	10	..........a	-327.74
	2443	3.50307	-4.98855E-002	8.45023E-005	0.00000E+000	-4.88000E-002	-8.40383E-004	10	..........a	-327.74
	2450	3.5131	-4.28913E-002	8.34997E-005	0.00000E+000	-4.18000E-002	-8.07050E-004	10	..........a	-327.74
	2457	3.52313	-3.58737E-002	8.25561E-005	0.00000E+000	-3.48000E-002	-8.40383E-004	10	..........a	-327.74
	2464	3.53317	-2.87972E-002	8.15535E-005	0.00000E+000	-2.77500E-002	-8.40383E-004	10	..........a	-327.74
	2471	3.5432	-2.18972E-002	8.17894E-005	0.00000E+000	-2.07500E-002	-8.51494E-004	10	..........a	-327.74
	2478	3.55323	-1.47972E-002	7.96073E-005	0.00000E+000	-1.37000E-002	-8.18161E-004	10	..........a	-327.74
	2485	3.56327	-7.73253E-003	7.96073E-005	0.00000E+000	-6.70001E-003	-8.18161E-004	10	..........a	-327.74
	2492	3.5733	-7.20762E-004	7.84277E-005	0.00000E+000	3.49998E-004	-8.29272E-004	10	..........a	-327.74
	2499	3.58333	6.25571E-003	7.93124E-005	0.00000E+000	7.35000E-003	-8.18161E-004	10	..........a	-327.74
	2506	3.59337	1.32792E-002	7.73662E-005	0.00000E+000	1.44000E-002	-7.95939E-004	10	..........a	-327.74
	2513	3.6034	2.03145E-002	7.73662E-005	0.00000E+000	2.14000E-002	-8.29272E-004	10	..........a	-327.74
	2520	3.61343	2.73910E-002	7.70713E-005	0.00000E+000	2.84500E-002	-8.29272E-004	10	..........a	-327.74
	2527	3.62347	3.43086E-002	7.70123E-005	0.00000E+000	3.54500E-002	-8.18161E-004	10	..........a	-327.74
	2534	3.6335	4.14557E-002	7.63046E-005	0.00000E+000	4.25000E-002	-8.18161E-004	10	..........a	-327.74
	2541	3.64353	4.84028E-002	7.57738E-005	0.00000E+000	4.95000E-002	-8.18161E-004	10	..........a	-327.74
	2548	3.65357	5.54675E-002	7.58918E-005	0.00000E+000	5.65500E-002	-7.84828E-004	10	..........a	-327.74
	2555	3.6636	6.24734E-002	7.48892E-005	0.00000E+000	6.35500E-002	-7.84828E-004	10	..........a	-327.74
	2562	3.67363	6.94616E-002	7.54200E-005	0.00000E+000	7.05500E-002	-8.07050E-004	10	..........a	-327.74
	2569	3.68367	7.64675E-002	7.49482E-005	0.00000E+000	7.76000E-002	-8.07050E-004	10	..........a	-327.74
	2576	3.6937	8.34675E-002	7.46533E-005	0.00000E+000	8.46000E-002	-8.40383E-004	10	..........a	-327.74
	2583	3.70373	9.05557E-002	7.52430E-005	0.00000E+000	9.16500E-002	-8.40383E-004	10	..........a	-327.74
	2590	3.71377	9.76675E-002	7.44174E-005	0.00000E+000	9.86500E-002	-8.18161E-004	10	..........a	-327.74
	2597	3.7238	1.04538E-001	7.32379E-005	0.00000E+000	1.05700E-001	-8.29272E-004	10	..........a	-327.74
	2604	3.73383	1.11562E-001	7.41225E-005	0.00000E+000	1.12700E-001	-8.29272E-004	10	..........a	-327.74
	2611	3.74387	1.18626E-001	7.35327E-005	0.00000E+000	1.19750E-001	-8.18161E-004	10	..........a	-327.74
	2618	3.7539	1.25650E-001	7.47123E-005	0.00000E+000	1.26750E-001	-7.51494E-004	10	..........a	-327.74
	2625	3.76393	1.32615E-001	7.29430E-005	0.00000E+000	1.33800E-001	-7.51494E-004	10	..........a	-327.74
	2632	3.77397	1.39656E-001	7.47712E-005	0.00000E+000	1.40800E-001	-8.18161E-004	10	..........a	-327.74
	2639	3.784	1.46767E-001	7.40635E-005	0.00000E+000	1.47850E-001	-8.62605E-004	10	..........a	-327.74
	2646	3.79403	1.53779E-001	7.47712E-005	0.00000E+000	1.54850E-001	-7.84828E-004	10	..........a	-327.74
	2653	3.80407	1.60779E-001	7.45353E-005	0.00000E+000	1.61900E-001	-7.84828E-004	10	..........a	-327.74
	2660	3.8141	1.67785E-001	7.55969E-005	0.00000E+000	1.68900E-001	-8.40383E-004	10	..........a	-327.74
	2667	3.82413	1.74767E-001	7.57738E-005	0.00000E+000	1.75900E-001	-7.73717E-004	10	..........a	-327.74
	2674	3.83417	1.81862E-001	7.60687E-005	0.00000E+000	1.82950E-001	-7.95939E-004	10	..........a	-327.74
	2681	3.8442	1.88791E-001	7.51251E-005	0.00000E+000	1.89950E-001	-8.18161E-004	10	..........a	-327.74
	2688	3.85423	1.95803E-001	7.65405E-005	0.00000E+000	1.97000E-001	-8.07050E-004	10	..........a	-327.74
	2695	3.86427	2.02867E-001	7.65995E-005	0.00000E+000	2.04000E-001	-8.29272E-004	10	..........a	-327.74
	2702	3.8743	2.09844E-001	7.71893E-005	0.00000E+000	2.11050E-001	-8.51494E-004	10	..........a	-327.74
	2709	3.88433	2.16862E-001	7.73662E-005	0.00000E+000	2.18050E-001	-7.95939E-004	10	..........a	-327.74
	2716	3.89437	2.24003E-001	7.63636E-005	0.00000E+000	2.25100E-001	-7.84828E-004	10	..........a	-327.74
	2723	3.9044	2.30867E-001	7.53020E-005	0.00000E+000	2.32100E-001	-7.84828E-004	10	..........a	-327.74
	2730	3.91443	2.37944E-001	7.54200E-005	0.00000E+000	2.39150E-001	-7.29272E-004	10	..........a	-327.74
	2737	3.92447	2.45003E-001	7.50071E-005	0.00000E+000	2.46150E-001	-8.51494E-004	10	..........a	-327.74
	2744	3.9345	2.52056E-001	7.39456E-005	0.00000E+000	2.53200E-001	-8.29272E-004	10	..........a	-327.74
	2751	3.94453	2.58979E-001	7.40635E-005	0.00000E+000	2.60200E-001	-7.40383E-004	10	..........a	-327.74
	2758	3.95457	2.66032E-001	7.22353E-005	0.00000E+000	2.67250E-001	-7.84828E-004	10	..........a	-327.74
	2765	3.9646	2.73115E-001	7.24712E-005	0.00000E+000	2.74250E-001	-7.95939E-004	10	..........a	-327.74
	2772	3.97463	2.80185E-001	7.10557E-005	0.00000E+000	2.81250E-001	-8.51494E-004	10	..........a	-327.74
	2779	3.98467	2.87079E-001	7.07609E-005	0.00000E+000	2.88300E-001	-7.95939E-004	10	..........a	-327.74
	2786	3.9947	2.94050E-001	6.98762E-005	0.00000E+000	2.95300E-001	-7.73717E-004	10	..........a	-327.74
	2793	4.00473	3.01126E-001	6.88146E-005	0.00000E+000	3.02350E-001	-8.07050E-004	10	..........a	-327.74
	2800	4.01477	3.08132E-001	6.88146E-005	0.00000E+000	3.09350E-001	-8.18161E-004	10	..........a	-327.74
	2807	4.0248	3.15203E-001	6.75172E-005	0.00000E+000	3.16400E-001	-8.07050E-004	10	..........a	-327.74
	2814	4.03483	3.22126E-001	6.67505E-005	0.00000E+000	3.23400E-001	-7.62605E-004	10	..........a	-327.74
	2821	4.04487	3.29215E-001	6.61607E-005	0.00000E+000	3.30450E-001	-7.84828E-004	10	..........a	-327.74
	2828	4.0549	3.36215E-001	6.51581E-005	0.00000E+000	3.37450E-001	-8.40383E-004	10	..........a	-327.74
	2835	4.06493	3.43285E-001	6.55710E-005	0.00000E+000	3.44500E-001	-8.07050E-004	10	..........a	-327.74
	2842	4.07497	3.50315E-001	6.30350E-005	0.00000E+000	3.51500E-001	-7.95939E-004	10	..........a	-327.74
	2849	4.085	3.57267E-001	6.27991E-005	0.00000E+000	3.58550E-001	-8.29272E-004	10	..........a	-327.74
	2856	4.09503	3.64279E-001	6.40376E-005	0.00000E+000	3.65550E-001	-8.62605E-004	10	..........a	-327.74
	2863	4.10507	3.71397E-001	6.06170E-005	0.00000E+000	3.72600E-001	-8.40383E-004	10	..........a	-327.74
	2870	4.1151	3.78373E-001	6.09708E-005	0.00000E+000	3.79600E-001	-7.84828E-004	10	..........a	-327.74
	2877	4.12513	3.85256E-001	6.06759E-005	0.00000E+000	3.86600E-001	-8.84828E-004	10	..........a	-327.74
	2884	4.13517	3.92391E-001	6.03811E-005	0.00000E+000	3.93650E-001	-8.29272E-004	10	..........a	-327.74
	2891	4.1452	3.99497E-001	5.94964E-005	0.00000E+000	4.00650E-001	-8.07050E-004	10	..........a	-327.74
	2898	4.15523	4.06544E-001	5.95554E-005	0.00000E+000	4.07700E-001	-8.29272E-004	10	..........a	-327.74
	2905	4.16527	4.13444E-001	5.98503E-005	0.00000E+000	4.14700E-001	-8.40383E-004	10	..........a	-327.74
	2912	4.1753	4.20444E-001	5.80810E-005	0.00000E+000	4.21750E-001	-8.18161E-004	10	..........a	-327.74
	2919	4.18533	4.27562E-001	5.81400E-005	0.00000E+000	4.28750E-001	-8.07050E-004	10	..........a	-327.74
	2926	4.19537	4.34615E-001	5.82579E-005	0.00000E+000	4.35800E-001	-8.40383E-004	10	..........a	-327.74
	2933	4.2054	4.41509E-001	5.67835E-005	0.00000E+000	4.42800E-001	-8.29272E-004	10	..........a	-327.74
	2940	4.21543	4.48556E-001	5.62527E-005	0.00000E+000	4.49850E-001	-8.07050E-004	10	..........a	-327.74
	2947	4.22547	4.55615E-001	5.62527E-005	0.00000E+000	4.56850E-001	-8.18161E-004	10	..........a	-327.74
	2954	4.2355	4.62626E-001	5.51912E-005	0.00000E+000	4.63900E-001	-8.18161E-004	10	..........a	-327.74
	2961	4.24553	4.69579E-001	5.47783E-005	0.00000E+000	4.70900E-001	-8.40383E-004	10	..........a	-327.74
	2968	4.25557	4.76662E-001	5.38937E-005	0.00000E+000	4.77950E-001	-8.07050E-004	10	..........a	-327.74
	2975	4.2656	4.83662E-001	5.45424E-005	0.00000E+000	4.84950E-001	-8.07050E-004	10	..........a	-327.74
	2982	4.27563	4.90638E-001	5.29501E-005	0.00000E+000	4.91950E-001	-8.18161E-004	10	..........a	-327.74
	2989	4.28567	4.97720E-001	5.45424E-005	0.00000E+000	4.99000E-001	-8.40383E-004	10	..........a	-327.74
	2990	4.2871	4.98715E-001	5.40116E-005	0.00000E+000	5.00000E-001	-8.40383E-004	10	..........a	-327.74
CURVE2	TABLE
	Pt	T	Vf	Im	Vu	Sig	Ach	IERange	Over	Temp
	#	s	V vs. Ref.	A	V	V	V	#	bits	deg C
	2991	4.28853	4.98703E-001	5.23013E-005	0.00000E+000	5.00000E-001	-8.18161E-004	10	..........a	-327.74