File: data/02-SI/Figures_S9_S11_RDE/15btmapaq-rde/1mkcl-15btmapaq-nitrogen-300mvpers.DTA
EXPLAIN
TAG	CV
TITLE	LABEL	Cyclic Voltammetry	Test &Identifier
DATE	LABEL	1/31/2023	Date
TIME	LABEL	18:18:14	Time
NOTES	NOTES	1	&Notes...

PSTAT	PSTAT	REF3000-21108	Potentiostat
VINIT	POTEN	5.00000E-001	F	Initial &E (V)
VLIMIT1	POTEN	-1.00000E+000	F	Scan Limit &1 (V)
VLIMIT2	POTEN	5.00000E-001	F	Scan Limit &2 (V)
VFINAL	POTEN	5.00000E-001	F	Final &E (V)
SCANRATE	QUANT	2.99999E+002	&Scan Rate (mV/s)
STEPSIZE	QUANT	1.00000E+000	St&ep Size (mV)
CYCLES	IQUANT	1	C&ycles (#)
IMODE	SELECTOR	1	I/E Range &Mode
IRANGE	QUANT	1.00000E+001	&Max Current (mA)
AREA	QUANT	1.00000E+000	Electrode &Area (cm^2)
ELECTRODETYPE	SELECTOR	0	Electrode Type
STRIPPING	TOGGLE	F	Used for Stripping
POLARITY	TOGGLE	F	Signal Polarity
CONDIT	TWOPARAM	F	1.50000E+001	0.00000E+000	Conditionin&g	Time(s)	E(V)
DELAY	TWOPARAM	F	5.00000E+000	0.00000E+000	Init. De&lay	Time(s)	Stab.(mV/s)
EQDELAY	QUANT	0.00000E+000	Equil. &Time (s)
IRCOMP	SELECTOR	0	IRCom&p
PFCOR	QUANT	5.00000E+001	PF Corr. (ohm)
SAMPLINGMODE	SELECTOR	1	Sampling &Mode
EOC	QUANT	0	Open Circuit (V)
PSTATMODEL	IQUANT	5	Pstat Model
PSTATSECTION	LABEL	REF3000-21108	Pstat Section
PSTATSERIALNO	LABEL	21108	Pstat Serial Number
CTRLMODE	IQUANT	1	Control Mode
ELECTROMETER	IQUANT	0	RE=0 or CS=1
IESTAB	IQUANT	2	I/E Stability
CASPEED	IQUANT	4	Control Amp Speed
CONVENTION	IQUANT	1	Current Convention
ICHRANGE	IQUANT	2	Ich Range
ICHRANGEMODE	TOGGLE	F	Ich Auto Range
ICHOFFSETENABLE	TOGGLE	F	Ich Offset Enable
ICHOFFSET	QUANT	0	Ich Offset (V)
ICHFILTER	IQUANT	2	Ich Filter
VCHRANGE	IQUANT	2	Vch Range
VCHRANGEMODE	TOGGLE	F	Vch Auto Range
VCHOFFSETENABLE	TOGGLE	F	Vch Offset Enable
VCHOFFSET	QUANT	0	Vch Offset (V)
VCHFILTER	IQUANT	2	Vch Filter
ACHRANGE	IQUANT	2	Ach Range
ACHOFFSETENABLE	TOGGLE	F	Ach Offset Enable
ACHOFFSET	QUANT	0	Ach Offset (V)
ACHFILTER	IQUANT	0	Ach Filter
IERANGELOWERLIMIT	IQUANT	2	I/E Range Lower Limit
IERANGEMODE	TOGGLE	F	I/E AutoRange
IERANGE	IQUANT	10	I/E Range
POSFEEDENABLE	TOGGLE	F	Positive Feedback IR Comp
POSFEEDRESISTANCE	QUANT	0	Positive Feedback Resistance (ohm)
ACHSELECT	IQUANT	0	Ach Select
SENSECABLEID	IQUANT	14	Sense Cable ID
PWRCABLEID	IQUANT	7	Power Cable ID
DCCALDATE	LABEL	11/9/2022	DC Calibration Date
ACCALDATE	LABEL	11/9/2022	AC Calibration Date
THERMOSELECT	IQUANT	1	Thermo Select
FRAMEWORKVERSION	LABEL	7.8.2	Framework Version
INSTRUMENTVERSION	LABEL	4.40	Instrument Version
COMPLIANCEVOLTAGE	IQUANT	0	Compliance Voltage
CURVE1	TABLE
	Pt	T	Vf	Im	Vu	Sig	Ach	IERange	Over	Temp
	#	s	V vs. Ref.	A	V	V	V	#	bits	deg C
	0	0.003333	4.98776E-001	8.76895E-005	0.00000E+000	5.00000E-001	-7.84272E-004	10	..........a	-327.74
	7	0.026667	4.91716E-001	6.84898E-005	0.00000E+000	4.93000E-001	-8.49272E-004	10	..........a	-327.74
	14	0.05	4.84779E-001	5.79375E-005	0.00000E+000	4.86000E-001	-8.94272E-004	10	..........a	-327.74
	21	0.073333	4.77846E-001	5.07690E-005	0.00000E+000	4.79000E-001	-9.14272E-004	10	..........a	-327.74
	28	0.096667	4.70739E-001	4.56558E-005	0.00000E+000	4.72000E-001	-9.14272E-004	10	..........a	-327.74
	35	0.12	4.63776E-001	4.14699E-005	0.00000E+000	4.65000E-001	-9.44272E-004	10	..........a	-327.74
	42	0.143333	4.56769E-001	3.85624E-005	0.00000E+000	4.58000E-001	-9.24272E-004	10	..........a	-327.74
	49	0.166667	4.49739E-001	3.60058E-005	0.00000E+000	4.51000E-001	-8.99272E-004	10	..........a	-327.74
	56	0.19	4.42799E-001	3.36246E-005	0.00000E+000	4.44000E-001	-9.44272E-004	10	..........a	-327.74
	63	0.213333	4.35736E-001	3.19453E-005	0.00000E+000	4.37000E-001	-8.89272E-004	10	..........a	-327.74
	70	0.236667	4.28714E-001	3.03913E-005	0.00000E+000	4.30000E-001	-9.09272E-004	10	..........a	-327.74
	77	0.26	4.21786E-001	2.88874E-005	0.00000E+000	4.23000E-001	-9.29272E-004	10	..........a	-327.74
	84	0.283333	4.14786E-001	2.73334E-005	0.00000E+000	4.16000E-001	-9.49272E-004	10	..........a	-327.74
	91	0.306667	4.07829E-001	2.59297E-005	0.00000E+000	4.09000E-001	-7.64272E-004	10	..........a	-327.74
	98	0.33	4.00854E-001	2.53783E-005	0.00000E+000	4.02000E-001	-8.79272E-004	10	..........a	-327.74
	105	0.353333	3.93789E-001	2.41251E-005	0.00000E+000	3.95000E-001	-8.44272E-004	10	..........a	-327.74
	112	0.376667	3.86806E-001	2.33230E-005	0.00000E+000	3.88000E-001	-9.14272E-004	10	..........a	-327.74
	119	0.4	3.79826E-001	2.24958E-005	0.00000E+000	3.81000E-001	-8.24272E-004	10	..........a	-327.74
	126	0.423333	3.72664E-001	2.23956E-005	0.00000E+000	3.74000E-001	-9.59272E-004	10	..........a	-327.74
	133	0.446667	3.65779E-001	2.15434E-005	0.00000E+000	3.67000E-001	-9.34272E-004	10	..........a	-327.74
	140	0.47	3.58714E-001	2.08165E-005	0.00000E+000	3.60000E-001	-1.02427E-003	10	..........a	-327.74
	147	0.493333	3.51699E-001	2.01397E-005	0.00000E+000	3.53000E-001	-9.94272E-004	10	..........a	-327.74
	154	0.516667	3.44789E-001	1.93878E-005	0.00000E+000	3.46000E-001	-9.54272E-004	10	..........a	-327.74
	161	0.54	3.37741E-001	1.90118E-005	0.00000E+000	3.39000E-001	-9.44272E-004	10	..........a	-327.74
	168	0.563333	3.30841E-001	1.82348E-005	0.00000E+000	3.32000E-001	-9.64272E-004	10	..........a	-327.74
	175	0.586667	3.23816E-001	1.80092E-005	0.00000E+000	3.25000E-001	-9.99272E-004	10	..........a	-327.74
	182	0.61	3.16791E-001	1.73826E-005	0.00000E+000	3.18000E-001	-8.94272E-004	10	..........a	-327.74
	189	0.633333	3.09841E-001	1.67059E-005	0.00000E+000	3.11000E-001	-9.14272E-004	10	..........a	-327.74
	196	0.656667	3.02846E-001	1.67059E-005	0.00000E+000	3.04000E-001	-9.09272E-004	10	..........a	-327.74
	203	0.68	2.95824E-001	1.63800E-005	0.00000E+000	2.97000E-001	-9.54272E-004	10	..........a	-327.74
	210	0.703333	2.88799E-001	1.60291E-005	0.00000E+000	2.90000E-001	-9.94272E-004	10	..........a	-327.74
	217	0.726667	2.81806E-001	1.50015E-005	0.00000E+000	2.83000E-001	-9.34272E-004	10	..........a	-327.74
	224	0.75	2.74851E-001	1.50516E-005	0.00000E+000	2.76000E-001	-1.02427E-003	10	..........a	-327.74
	231	0.773333	2.67764E-001	1.42495E-005	0.00000E+000	2.69000E-001	-9.94272E-004	10	..........a	-327.74
	238	0.796667	2.60796E-001	1.39487E-005	0.00000E+000	2.62000E-001	-9.44272E-004	10	..........a	-327.74
	245	0.82	2.53871E-001	1.35728E-005	0.00000E+000	2.55000E-001	-9.94272E-004	10	..........a	-327.74
	252	0.843333	2.46749E-001	1.36229E-005	0.00000E+000	2.48000E-001	-1.09427E-003	10	..........a	-327.74
	259	0.866667	2.39754E-001	1.27707E-005	0.00000E+000	2.41000E-001	-1.03927E-003	10	..........a	-327.74
	266	0.89	2.32796E-001	1.23696E-005	0.00000E+000	2.34000E-001	-1.03927E-003	10	..........a	-327.74
	273	0.913333	2.25756E-001	1.18683E-005	0.00000E+000	2.27000E-001	-1.00427E-003	10	..........a	-327.74
	280	0.936667	2.18839E-001	1.14924E-005	0.00000E+000	2.20000E-001	-1.11927E-003	10	..........a	-327.74
	287	0.96	2.11799E-001	1.09159E-005	0.00000E+000	2.13000E-001	-1.01927E-003	10	..........a	-327.74
	294	0.98333	2.04851E-001	1.00887E-005	0.00000E+000	2.06000E-001	-8.84272E-004	10	..........a	-327.74
	301	1.00667	1.97924E-001	9.78797E-006	0.00000E+000	1.99000E-001	-9.39272E-004	10	..........a	-327.74
	308	1.03	1.90844E-001	9.93836E-006	0.00000E+000	1.92000E-001	-9.24272E-004	10	..........a	-327.74
	315	1.05333	1.83854E-001	9.18641E-006	0.00000E+000	1.85000E-001	-9.19272E-004	10	..........a	-327.74
	322	1.07667	1.76911E-001	8.88563E-006	0.00000E+000	1.78000E-001	-9.34272E-004	10	..........a	-327.74
	329	1.1	1.69751E-001	8.38433E-006	0.00000E+000	1.71000E-001	-1.01427E-003	10	..........a	-327.74
	336	1.12333	1.62874E-001	7.88304E-006	0.00000E+000	1.64000E-001	-9.74272E-004	10	..........a	-327.74
	343	1.14667	1.55809E-001	7.70758E-006	0.00000E+000	1.57000E-001	-9.99272E-004	10	..........a	-327.74
	350	1.17	1.48839E-001	7.23135E-006	0.00000E+000	1.50000E-001	-1.00427E-003	10	..........a	-327.74
	357	1.19333	1.41891E-001	6.90551E-006	0.00000E+000	1.43000E-001	-9.34272E-004	10	..........a	-327.74
	364	1.21667	1.34836E-001	6.62979E-006	0.00000E+000	1.36000E-001	-9.34272E-004	10	..........a	-327.74
	371	1.24	1.27826E-001	6.12850E-006	0.00000E+000	1.29000E-001	-1.06427E-003	10	..........a	-327.74
	378	1.26333	1.20879E-001	6.12850E-006	0.00000E+000	1.22000E-001	-9.64272E-004	10	..........a	-327.74
	385	1.28667	1.13849E-001	5.47681E-006	0.00000E+000	1.15000E-001	-9.89272E-004	10	..........a	-327.74
	392	1.31	1.06884E-001	5.15097E-006	0.00000E+000	1.08000E-001	-9.49272E-004	10	..........a	-327.74
	399	1.33333	9.98386E-002	4.62461E-006	0.00000E+000	1.01000E-001	-9.14272E-004	10	..........a	-327.74
	406	1.35667	9.27686E-002	4.34889E-006	0.00000E+000	9.40000E-002	-1.01427E-003	10	..........a	-327.74
	413	1.38	8.59136E-002	4.02305E-006	0.00000E+000	8.70000E-002	-8.99272E-004	10	..........a	-327.74
	420	1.40333	7.88486E-002	4.17344E-006	0.00000E+000	8.00000E-002	-1.04927E-003	10	..........a	-327.74
	427	1.42667	7.18486E-002	3.59695E-006	0.00000E+000	7.30000E-002	-9.19272E-004	10	..........a	-327.74
	434	1.45	6.49811E-002	3.27110E-006	0.00000E+000	6.60000E-002	-9.69272E-004	10	..........a	-327.74
	441	1.47333	5.78861E-002	3.42149E-006	0.00000E+000	5.90000E-002	-9.94272E-004	10	..........a	-327.74
	448	1.49667	5.09111E-002	2.89513E-006	0.00000E+000	5.20000E-002	-9.89272E-004	10	..........a	-327.74
	455	1.52	4.38686E-002	3.22098E-006	0.00000E+000	4.50000E-002	-9.59272E-004	10	..........a	-327.74
	462	1.54333	3.68936E-002	2.87007E-006	0.00000E+000	3.80000E-002	-9.49272E-004	10	..........a	-327.74
	469	1.56667	2.99236E-002	2.39384E-006	0.00000E+000	3.10000E-002	-9.99272E-004	10	..........a	-327.74
	476	1.59	2.28961E-002	2.76981E-006	0.00000E+000	2.40000E-002	-1.06927E-003	10	..........a	-327.74
	483	1.61333	1.59186E-002	2.19332E-006	0.00000E+000	1.70000E-002	-9.39272E-004	10	..........a	-327.74
	490	1.63667	8.96356E-003	2.19332E-006	0.00000E+000	9.99999E-003	-9.24272E-004	10	..........a	-327.74
	497	1.66	1.94856E-003	1.86747E-006	0.00000E+000	2.99999E-003	-9.54272E-004	10	..........a	-327.74
	504	1.68333	-5.05144E-003	1.94267E-006	0.00000E+000	-4.00001E-003	-9.34272E-004	10	..........a	-327.74
	511	1.70667	-1.19864E-002	1.56670E-006	0.00000E+000	-1.10000E-002	-9.54272E-004	10	..........a	-327.74
	518	1.73	-1.90564E-002	1.84241E-006	0.00000E+000	-1.80000E-002	-9.14272E-004	10	..........a	-327.74
	525	1.75333	-2.60189E-002	1.99280E-006	0.00000E+000	-2.50000E-002	-9.39272E-004	10	..........a	-327.74
	532	1.77667	-3.29764E-002	1.36618E-006	0.00000E+000	-3.20000E-002	-9.14272E-004	10	..........a	-327.74
	539	1.8	-4.00714E-002	1.81734E-006	0.00000E+000	-3.90000E-002	-9.64272E-004	10	..........a	-327.74
	546	1.82333	-4.70189E-002	1.86747E-006	0.00000E+000	-4.60000E-002	-9.69272E-004	10	..........a	-327.74
	553	1.84667	-5.39814E-002	1.54163E-006	0.00000E+000	-5.30000E-002	-8.89272E-004	10	..........a	-327.74
	560	1.87	-6.10564E-002	1.46644E-006	0.00000E+000	-6.00000E-002	-9.34272E-004	10	..........a	-327.74
	567	1.89333	-6.80414E-002	1.79228E-006	0.00000E+000	-6.70000E-002	-9.34272E-004	10	..........a	-327.74
	574	1.91667	-7.50389E-002	1.44137E-006	0.00000E+000	-7.40000E-002	-9.59272E-004	10	..........a	-327.74
	581	1.94	-8.19739E-002	1.79228E-006	0.00000E+000	-8.10000E-002	-9.04272E-004	10	..........a	-327.74
	588	1.96333	-8.89489E-002	1.71708E-006	0.00000E+000	-8.80000E-002	-8.79272E-004	10	..........a	-327.74
	595	1.98667	-9.60214E-002	1.34111E-006	0.00000E+000	-9.50000E-002	-9.29272E-004	10	..........a	-327.74
	602	2.01	-1.02926E-001	1.66695E-006	0.00000E+000	-1.02000E-001	-8.44272E-004	10	..........a	-327.74
	609	2.03333	-1.09961E-001	1.11553E-006	0.00000E+000	-1.09000E-001	-8.09272E-004	10	..........a	-327.74
	616	2.05667	-1.17019E-001	1.09046E-006	0.00000E+000	-1.16000E-001	-9.09272E-004	10	..........a	-327.74
	623	2.08	-1.24014E-001	1.36618E-006	0.00000E+000	-1.23000E-001	-9.54272E-004	10	..........a	-327.74
	630	2.10333	-1.31019E-001	1.16566E-006	0.00000E+000	-1.30000E-001	-8.79272E-004	10	..........a	-327.74
	637	2.12667	-1.37924E-001	1.04033E-006	0.00000E+000	-1.37000E-001	-8.79272E-004	10	..........a	-327.74
	644	2.15	-1.44999E-001	8.89944E-007	0.00000E+000	-1.44000E-001	-8.44272E-004	10	..........a	-327.74
	651	2.17333	-1.51996E-001	1.06540E-006	0.00000E+000	-1.51000E-001	-9.24272E-004	10	..........a	-327.74
	658	2.19667	-1.58956E-001	8.39814E-007	0.00000E+000	-1.58000E-001	-9.44272E-004	10	..........a	-327.74
	665	2.22	-1.65931E-001	8.14750E-007	0.00000E+000	-1.65000E-001	-8.94272E-004	10	..........a	-327.74
	672	2.24333	-1.73046E-001	8.14750E-007	0.00000E+000	-1.72000E-001	-9.09272E-004	10	..........a	-327.74
	679	2.26667	-1.79904E-001	6.89425E-007	0.00000E+000	-1.79000E-001	-9.19272E-004	10	..........a	-327.74
	686	2.29	-1.86979E-001	5.64101E-007	0.00000E+000	-1.86000E-001	-8.19272E-004	10	..........a	-327.74
	693	2.31333	-1.94006E-001	6.39296E-007	0.00000E+000	-1.93000E-001	-8.69272E-004	10	..........a	-327.74
	700	2.33667	-2.01011E-001	5.13971E-007	0.00000E+000	-2.00000E-001	-1.02427E-003	10	..........a	-327.74
	707	2.36	-2.07939E-001	1.37999E-007	0.00000E+000	-2.07000E-001	-9.39272E-004	10	..........a	-327.74
	714	2.38333	-2.14916E-001	-3.74554E-008	0.00000E+000	-2.14000E-001	-9.84272E-004	10	..........a	-327.74
	721	2.40667	-2.21951E-001	-2.12909E-007	0.00000E+000	-2.21000E-001	-8.79272E-004	10	..........a	-327.74
	728	2.43	-2.28954E-001	-5.38752E-007	0.00000E+000	-2.28000E-001	-8.69272E-004	10	..........a	-327.74
	735	2.45333	-2.35929E-001	-6.89141E-007	0.00000E+000	-2.35000E-001	-8.54272E-004	10	..........a	-327.74
	742	2.47667	-2.42911E-001	-9.39790E-007	0.00000E+000	-2.42000E-001	-8.89272E-004	10	..........a	-327.74
	749	2.5	-2.49911E-001	-1.51628E-006	0.00000E+000	-2.49000E-001	-8.54272E-004	10	..........a	-327.74
	756	2.52333	-2.56981E-001	-1.29070E-006	0.00000E+000	-2.56000E-001	-9.24272E-004	10	..........a	-327.74
	763	2.54667	-2.63986E-001	-1.49122E-006	0.00000E+000	-2.63000E-001	-8.59272E-004	10	..........a	-327.74
	770	2.57	-2.70949E-001	-1.84212E-006	0.00000E+000	-2.70000E-001	-8.49272E-004	10	..........a	-327.74
	777	2.59333	-2.78011E-001	-1.96745E-006	0.00000E+000	-2.77000E-001	-9.99272E-004	10	..........a	-327.74
	784	2.61667	-2.84984E-001	-2.16797E-006	0.00000E+000	-2.84000E-001	-8.39272E-004	10	..........a	-327.74
	791	2.64	-2.91969E-001	-2.76952E-006	0.00000E+000	-2.91000E-001	-8.99272E-004	10	..........a	-327.74
	798	2.66333	-2.98986E-001	-2.81965E-006	0.00000E+000	-2.98000E-001	-9.04272E-004	10	..........a	-327.74
	805	2.68667	-3.05916E-001	-3.09537E-006	0.00000E+000	-3.05000E-001	-9.04272E-004	10	..........a	-327.74
	812	2.71	-3.12966E-001	-3.57160E-006	0.00000E+000	-3.12000E-001	-8.64272E-004	10	..........a	-327.74
	819	2.73333	-3.19924E-001	-4.34861E-006	0.00000E+000	-3.19000E-001	-9.39272E-004	10	..........a	-327.74
	826	2.75667	-3.26926E-001	-4.34861E-006	0.00000E+000	-3.26000E-001	-8.84272E-004	10	..........a	-327.74
	833	2.78	-3.33916E-001	-4.72458E-006	0.00000E+000	-3.33000E-001	-9.09272E-004	10	..........a	-327.74
	840	2.80333	-3.40866E-001	-5.65198E-006	0.00000E+000	-3.40000E-001	-7.94272E-004	10	..........a	-327.74
	847	2.82667	-3.47886E-001	-5.97782E-006	0.00000E+000	-3.47000E-001	-8.69272E-004	10	..........a	-327.74
	854	2.85	-3.54959E-001	-6.25354E-006	0.00000E+000	-3.54000E-001	-8.94272E-004	10	..........a	-327.74
	861	2.87333	-3.61919E-001	-7.25613E-006	0.00000E+000	-3.61000E-001	-9.34272E-004	10	..........a	-327.74
	868	2.89667	-3.68989E-001	-8.30886E-006	0.00000E+000	-3.68000E-001	-1.01927E-003	10	..........a	-327.74
	875	2.92	-3.75941E-001	-9.61223E-006	0.00000E+000	-3.75000E-001	-8.99272E-004	10	..........a	-327.74
	882	2.94333	-3.82956E-001	-1.15172E-005	0.00000E+000	-3.82000E-001	-9.39272E-004	10	..........a	-327.74
	889	2.96667	-3.89874E-001	-1.37730E-005	0.00000E+000	-3.89000E-001	-8.99272E-004	10	..........a	-327.74
	896	2.99	-3.96951E-001	-1.62544E-005	0.00000E+000	-3.96000E-001	-9.04272E-004	10	..........a	-327.74
	903	3.01333	-4.03916E-001	-1.95630E-005	0.00000E+000	-4.03000E-001	-9.69272E-004	10	..........a	-327.74
	910	3.03667	-4.10936E-001	-2.32224E-005	0.00000E+000	-4.10000E-001	-9.34272E-004	10	..........a	-327.74
	917	3.06	-4.17941E-001	-2.78594E-005	0.00000E+000	-4.17000E-001	-9.04272E-004	10	..........a	-327.74
	924	3.08333	-4.24911E-001	-3.31231E-005	0.00000E+000	-4.24000E-001	-9.74272E-004	10	..........a	-327.74
	931	3.10667	-4.31929E-001	-3.88378E-005	0.00000E+000	-4.31000E-001	-8.99272E-004	10	..........a	-327.74
	938	3.13	-4.38911E-001	-4.45276E-005	0.00000E+000	-4.38000E-001	-9.74272E-004	10	..........a	-327.74
	945	3.15333	-4.45911E-001	-5.14204E-005	0.00000E+000	-4.45000E-001	-9.54272E-004	10	..........a	-327.74
	952	3.17667	-4.52866E-001	-5.75112E-005	0.00000E+000	-4.52000E-001	-8.64272E-004	10	..........a	-327.74
	959	3.2	-4.59841E-001	-6.37272E-005	0.00000E+000	-4.59000E-001	-9.34272E-004	10	..........a	-327.74
	966	3.22333	-4.66939E-001	-6.95924E-005	0.00000E+000	-4.66000E-001	-9.44272E-004	10	..........a	-327.74
	973	3.24667	-4.73916E-001	-7.60090E-005	0.00000E+000	-4.73000E-001	-9.54272E-004	10	..........a	-327.74
	980	3.27	-4.80884E-001	-8.27264E-005	0.00000E+000	-4.80000E-001	-9.49272E-004	10	..........a	-327.74
	987	3.29333	-4.87881E-001	-8.95190E-005	0.00000E+000	-4.87000E-001	-8.89272E-004	10	..........a	-327.74
	994	3.31667	-4.94869E-001	-9.78656E-005	0.00000E+000	-4.94000E-001	-9.49272E-004	10	..........a	-327.74
	1001	3.34	-5.01899E-001	-1.07014E-004	0.00000E+000	-5.01000E-001	-8.99272E-004	10	..........a	-327.74
	1008	3.36333	-5.08954E-001	-1.17366E-004	0.00000E+000	-5.08000E-001	-1.00427E-003	10	..........a	-327.74
	1015	3.38667	-5.15856E-001	-1.29497E-004	0.00000E+000	-5.15000E-001	-1.00927E-003	10	..........a	-327.74
	1022	3.41	-5.22879E-001	-1.44060E-004	0.00000E+000	-5.22000E-001	-8.54272E-004	10	..........a	-327.74
	1029	3.43333	-5.29879E-001	-1.59400E-004	0.00000E+000	-5.29000E-001	-8.99272E-004	10	..........a	-327.74
	1036	3.45667	-5.36901E-001	-1.76644E-004	0.00000E+000	-5.36000E-001	-9.14272E-004	10	..........a	-327.74
	1043	3.48	-5.43884E-001	-1.94365E-004	0.00000E+000	-5.43000E-001	-8.19272E-004	10	..........a	-327.74
	1050	3.50333	-5.50879E-001	-2.11635E-004	0.00000E+000	-5.50000E-001	-9.49272E-004	10	..........a	-327.74
	1057	3.52667	-5.57919E-001	-2.27225E-004	0.00000E+000	-5.57000E-001	-9.44272E-004	10	..........a	-327.74
	1064	3.55	-5.64874E-001	-2.41036E-004	0.00000E+000	-5.64000E-001	-9.39272E-004	10	..........a	-327.74
	1071	3.57333	-5.71826E-001	-2.51914E-004	0.00000E+000	-5.71000E-001	-9.59272E-004	10	..........a	-327.74
	1078	3.59667	-5.78876E-001	-2.59358E-004	0.00000E+000	-5.78000E-001	-1.03927E-003	10	..........a	-327.74
	1085	3.62	-5.85851E-001	-2.63995E-004	0.00000E+000	-5.85000E-001	-9.54272E-004	10	..........a	-327.74
	1092	3.64333	-5.92839E-001	-2.64622E-004	0.00000E+000	-5.92000E-001	-9.64272E-004	10	..........a	-327.74
	1099	3.66667	-5.99939E-001	-2.63218E-004	0.00000E+000	-5.99000E-001	-1.04427E-003	10	..........a	-327.74
	1106	3.69	-6.06841E-001	-2.59784E-004	0.00000E+000	-6.06000E-001	-9.49272E-004	10	..........a	-327.74
	1113	3.71333	-6.13906E-001	-2.53769E-004	0.00000E+000	-6.13000E-001	-1.02927E-003	10	..........a	-327.74
	1120	3.73667	-6.20849E-001	-2.47252E-004	0.00000E+000	-6.20000E-001	-1.02927E-003	10	..........a	-327.74
	1127	3.76	-6.27821E-001	-2.40359E-004	0.00000E+000	-6.27000E-001	-9.59272E-004	10	..........a	-327.74
	1134	3.78333	-6.34836E-001	-2.33316E-004	0.00000E+000	-6.34000E-001	-8.79272E-004	10	..........a	-327.74
	1141	3.80667	-6.41859E-001	-2.26097E-004	0.00000E+000	-6.41000E-001	-9.69272E-004	10	..........a	-327.74
	1148	3.83	-6.48886E-001	-2.18954E-004	0.00000E+000	-6.48000E-001	-9.74272E-004	10	..........a	-327.74
	1155	3.85333	-6.55849E-001	-2.12813E-004	0.00000E+000	-6.55000E-001	-9.39272E-004	10	..........a	-327.74
	1162	3.87667	-6.62781E-001	-2.06973E-004	0.00000E+000	-6.62000E-001	-8.79272E-004	10	..........a	-327.74
	1169	3.9	-6.69829E-001	-2.00957E-004	0.00000E+000	-6.69000E-001	-9.14272E-004	10	..........a	-327.74
	1176	3.92333	-6.76966E-001	-1.95468E-004	0.00000E+000	-6.76000E-001	-1.00927E-003	10	..........a	-327.74
	1183	3.94667	-6.83826E-001	-1.90831E-004	0.00000E+000	-6.83000E-001	-9.34272E-004	10	..........a	-327.74
	1190	3.97	-6.90929E-001	-1.85668E-004	0.00000E+000	-6.90000E-001	-1.03427E-003	10	..........a	-327.74
	1197	3.99333	-6.97819E-001	-1.81808E-004	0.00000E+000	-6.97000E-001	-1.02427E-003	10	..........a	-327.74
	1204	4.01667	-7.04806E-001	-1.77797E-004	0.00000E+000	-7.04000E-001	-9.19272E-004	10	..........a	-327.74
	1211	4.04	-7.11816E-001	-1.74188E-004	0.00000E+000	-7.11000E-001	-9.94272E-004	10	..........a	-327.74
	1218	4.06333	-7.18829E-001	-1.70178E-004	0.00000E+000	-7.18000E-001	-9.54272E-004	10	..........a	-327.74
	1225	4.08667	-7.25791E-001	-1.67120E-004	0.00000E+000	-7.25000E-001	-9.79272E-004	10	..........a	-327.74
	1232	4.11	-7.32826E-001	-1.64087E-004	0.00000E+000	-7.32000E-001	-1.00427E-003	10	..........a	-327.74
	1239	4.13333	-7.39781E-001	-1.61104E-004	0.00000E+000	-7.39000E-001	-1.00927E-003	10	..........a	-327.74
	1246	4.15667	-7.46771E-001	-1.58648E-004	0.00000E+000	-7.46000E-001	-9.39272E-004	10	..........a	-327.74
	1253	4.18	-7.53861E-001	-1.56217E-004	0.00000E+000	-7.53000E-001	-9.54272E-004	10	..........a	-327.74
	1260	4.20333	-7.60799E-001	-1.53334E-004	0.00000E+000	-7.60000E-001	-9.64272E-004	10	..........a	-327.74
	1267	4.22667	-7.67869E-001	-1.51254E-004	0.00000E+000	-7.67000E-001	-8.74272E-004	10	..........a	-327.74
	1274	4.25	-7.74754E-001	-1.48923E-004	0.00000E+000	-7.74000E-001	-9.04272E-004	10	..........a	-327.74
	1281	4.27333	-7.81814E-001	-1.46216E-004	0.00000E+000	-7.81000E-001	-9.69272E-004	10	..........a	-327.74
	1288	4.29667	-7.88756E-001	-1.44436E-004	0.00000E+000	-7.88000E-001	-9.29272E-004	10	..........a	-327.74
	1295	4.32	-7.95739E-001	-1.42982E-004	0.00000E+000	-7.95000E-001	-9.69272E-004	10	..........a	-327.74
	1302	4.34333	-8.02786E-001	-1.40877E-004	0.00000E+000	-8.02000E-001	-9.39272E-004	10	..........a	-327.74
	1309	4.36667	-8.09861E-001	-1.38646E-004	0.00000E+000	-8.09000E-001	-1.03427E-003	10	..........a	-327.74
	1316	4.39	-8.16796E-001	-1.37042E-004	0.00000E+000	-8.16000E-001	-1.06427E-003	10	..........a	-327.74
	1323	4.41333	-8.23774E-001	-1.35363E-004	0.00000E+000	-8.23000E-001	-1.00927E-003	10	..........a	-327.74
	1330	4.43667	-8.30701E-001	-1.34560E-004	0.00000E+000	-8.30000E-001	-1.04427E-003	10	..........a	-327.74
	1337	4.46	-8.37771E-001	-1.32831E-004	0.00000E+000	-8.37000E-001	-9.89272E-004	10	..........a	-327.74
	1344	4.48333	-8.44701E-001	-1.31252E-004	0.00000E+000	-8.44000E-001	-8.94272E-004	10	..........a	-327.74
	1351	4.50667	-8.51669E-001	-1.29673E-004	0.00000E+000	-8.51000E-001	-9.09272E-004	10	..........a	-327.74
	1358	4.53	-8.58734E-001	-1.28194E-004	0.00000E+000	-8.58000E-001	-9.99272E-004	10	..........a	-327.74
	1365	4.55333	-8.65719E-001	-1.26941E-004	0.00000E+000	-8.65000E-001	-9.24272E-004	10	..........a	-327.74
	1372	4.57667	-8.72629E-001	-1.25763E-004	0.00000E+000	-8.72000E-001	-9.49272E-004	10	..........a	-327.74
	1379	4.6	-8.79771E-001	-1.24359E-004	0.00000E+000	-8.79000E-001	-9.84272E-004	10	..........a	-327.74
	1386	4.62333	-8.86746E-001	-1.23006E-004	0.00000E+000	-8.86000E-001	-9.59272E-004	10	..........a	-327.74
	1393	4.64667	-8.93734E-001	-1.21978E-004	0.00000E+000	-8.93000E-001	-1.02927E-003	10	..........a	-327.74
	1400	4.67	-9.00764E-001	-1.20675E-004	0.00000E+000	-9.00000E-001	-1.03927E-003	10	..........a	-327.74
	1407	4.69333	-9.07669E-001	-1.19572E-004	0.00000E+000	-9.07000E-001	-9.84272E-004	10	..........a	-327.74
	1414	4.71667	-9.14736E-001	-1.18394E-004	0.00000E+000	-9.14000E-001	-1.04927E-003	10	..........a	-327.74
	1421	4.74	-9.21706E-001	-1.17742E-004	0.00000E+000	-9.21000E-001	-1.06427E-003	10	..........a	-327.74
	1428	4.76333	-9.28721E-001	-1.16714E-004	0.00000E+000	-9.28000E-001	-9.69272E-004	10	..........a	-327.74
	1435	4.78667	-9.35719E-001	-1.15586E-004	0.00000E+000	-9.35000E-001	-1.02927E-003	10	..........a	-327.74
	1442	4.81	-9.42716E-001	-1.15210E-004	0.00000E+000	-9.42000E-001	-1.03927E-003	10	..........a	-327.74
	1449	4.83333	-9.49756E-001	-1.13807E-004	0.00000E+000	-9.49000E-001	-1.04427E-003	10	..........a	-327.74
	1456	4.85667	-9.56729E-001	-1.13707E-004	0.00000E+000	-9.56000E-001	-8.79272E-004	10	..........a	-327.74
	1463	4.88	-9.63661E-001	-1.12503E-004	0.00000E+000	-9.63000E-001	-8.89272E-004	10	..........a	-327.74
	1470	4.90333	-9.70719E-001	-1.11852E-004	0.00000E+000	-9.70000E-001	-9.84272E-004	10	..........a	-327.74
	1477	4.92667	-9.77631E-001	-1.11100E-004	0.00000E+000	-9.77000E-001	-9.09272E-004	10	..........a	-327.74
	1484	4.95	-9.84589E-001	-1.09922E-004	0.00000E+000	-9.84000E-001	-9.39272E-004	10	..........a	-327.74
	1491	4.97333	-9.91724E-001	-1.09521E-004	0.00000E+000	-9.91000E-001	-9.99272E-004	10	..........a	-327.74
	1498	4.99667	-9.98681E-001	-1.08643E-004	0.00000E+000	-9.98000E-001	-1.01927E-003	10	..........a	-327.74
	1505	5.02	-9.95644E-001	-1.04132E-004	0.00000E+000	-9.95000E-001	-9.74272E-004	10	..........a	-327.74
	1512	5.04333	-9.88714E-001	-1.01625E-004	0.00000E+000	-9.88000E-001	-9.94272E-004	10	..........a	-327.74
	1519	5.06667	-9.81771E-001	-9.95198E-005	0.00000E+000	-9.81000E-001	-9.94272E-004	10	..........a	-327.74
	1526	5.09	-9.74724E-001	-9.76149E-005	0.00000E+000	-9.74000E-001	-1.03927E-003	10	..........a	-327.74
	1533	5.11333	-9.67709E-001	-9.62363E-005	0.00000E+000	-9.67000E-001	-9.99272E-004	10	..........a	-327.74
	1540	5.13667	-9.60709E-001	-9.45821E-005	0.00000E+000	-9.60000E-001	-1.06427E-003	10	..........a	-327.74
	1547	5.16	-9.53726E-001	-9.34792E-005	0.00000E+000	-9.53000E-001	-1.02427E-003	10	..........a	-327.74
	1554	5.18333	-9.46724E-001	-9.26521E-005	0.00000E+000	-9.46000E-001	-1.00927E-003	10	..........a	-327.74
	1561	5.20667	-9.39696E-001	-9.15743E-005	0.00000E+000	-9.39000E-001	-9.74272E-004	10	..........a	-327.74
	1568	5.23	-9.32729E-001	-9.01456E-005	0.00000E+000	-9.32000E-001	-1.00427E-003	10	..........a	-327.74
	1575	5.25333	-9.25691E-001	-8.93936E-005	0.00000E+000	-9.25000E-001	-9.44272E-004	10	..........a	-327.74
	1582	5.27667	-9.18714E-001	-8.86417E-005	0.00000E+000	-9.18000E-001	-9.49272E-004	10	..........a	-327.74
	1589	5.3	-9.11711E-001	-8.79399E-005	0.00000E+000	-9.11000E-001	-8.79272E-004	10	..........a	-327.74
	1596	5.32333	-9.04716E-001	-8.70626E-005	0.00000E+000	-9.04000E-001	-9.99272E-004	10	..........a	-327.74
	1603	5.34667	-8.97719E-001	-8.59598E-005	0.00000E+000	-8.97000E-001	-1.04427E-003	10	..........a	-327.74
	1610	5.37	-8.90741E-001	-8.54083E-005	0.00000E+000	-8.90000E-001	-1.05927E-003	10	..........a	-327.74
	1617	5.39333	-8.83719E-001	-8.49321E-005	0.00000E+000	-8.83000E-001	-1.03927E-003	10	..........a	-327.74
	1624	5.41667	-8.76721E-001	-8.38794E-005	0.00000E+000	-8.76000E-001	-1.02927E-003	10	..........a	-327.74
	1631	5.44	-8.69864E-001	-8.29520E-005	0.00000E+000	-8.69000E-001	-1.09927E-003	10	..........a	-327.74
	1638	5.46333	-8.62754E-001	-8.24256E-005	0.00000E+000	-8.62000E-001	-1.10427E-003	10	..........a	-327.74
	1645	5.48667	-8.55761E-001	-8.14982E-005	0.00000E+000	-8.55000E-001	-1.04927E-003	10	..........a	-327.74
	1652	5.51	-8.48671E-001	-8.15233E-005	0.00000E+000	-8.48000E-001	-9.79272E-004	10	..........a	-327.74
	1659	5.53333	-8.41776E-001	-8.05207E-005	0.00000E+000	-8.41000E-001	-9.34272E-004	10	..........a	-327.74
	1666	5.55667	-8.34724E-001	-7.97938E-005	0.00000E+000	-8.34000E-001	-9.79272E-004	10	..........a	-327.74
	1673	5.58	-8.27664E-001	-7.95181E-005	0.00000E+000	-8.27000E-001	-9.39272E-004	10	..........a	-327.74
	1680	5.60333	-8.20754E-001	-7.83400E-005	0.00000E+000	-8.20000E-001	-1.01427E-003	10	..........a	-327.74
	1687	5.62667	-8.13771E-001	-7.82899E-005	0.00000E+000	-8.13000E-001	-8.99272E-004	10	..........a	-327.74
	1694	5.65	-8.06811E-001	-7.71620E-005	0.00000E+000	-8.06000E-001	-9.64272E-004	10	..........a	-327.74
	1701	5.67333	-7.99864E-001	-7.65855E-005	0.00000E+000	-7.99000E-001	-1.02427E-003	10	..........a	-327.74
	1708	5.69667	-7.92856E-001	-7.59088E-005	0.00000E+000	-7.92000E-001	-1.00427E-003	10	..........a	-327.74
	1715	5.72	-7.85816E-001	-7.60090E-005	0.00000E+000	-7.85000E-001	-9.39272E-004	10	..........a	-327.74
	1722	5.74333	-7.78871E-001	-7.48059E-005	0.00000E+000	-7.78000E-001	-1.00927E-003	10	..........a	-327.74
	1729	5.76667	-7.71761E-001	-7.41292E-005	0.00000E+000	-7.71000E-001	-9.84272E-004	10	..........a	-327.74
	1736	5.79	-7.64829E-001	-7.36780E-005	0.00000E+000	-7.64000E-001	-9.24272E-004	10	..........a	-327.74
	1743	5.81333	-7.57834E-001	-7.27756E-005	0.00000E+000	-7.57000E-001	-9.49272E-004	10	..........a	-327.74
	1750	5.83667	-7.50804E-001	-7.22242E-005	0.00000E+000	-7.50000E-001	-1.01927E-003	10	..........a	-327.74
	1757	5.86	-7.43819E-001	-7.16728E-005	0.00000E+000	-7.43000E-001	-9.39272E-004	10	..........a	-327.74
	1764	5.88333	-7.36789E-001	-7.10712E-005	0.00000E+000	-7.36000E-001	-9.64272E-004	10	..........a	-327.74
	1771	5.90667	-7.29841E-001	-7.03444E-005	0.00000E+000	-7.29000E-001	-9.54272E-004	10	..........a	-327.74
	1778	5.93	-7.22819E-001	-6.99433E-005	0.00000E+000	-7.22000E-001	-9.99272E-004	10	..........a	-327.74
	1785	5.95333	-7.15846E-001	-6.91412E-005	0.00000E+000	-7.15000E-001	-1.02927E-003	10	..........a	-327.74
	1792	5.97667	-7.08854E-001	-6.84394E-005	0.00000E+000	-7.08000E-001	-1.03427E-003	10	..........a	-327.74
	1799	6	-7.01896E-001	-6.77627E-005	0.00000E+000	-7.01000E-001	-1.07927E-003	10	..........a	-327.74
	1806	6.02333	-6.94809E-001	-6.69105E-005	0.00000E+000	-6.94000E-001	-1.02927E-003	10	..........a	-327.74
	1813	6.04667	-6.87876E-001	-6.58076E-005	0.00000E+000	-6.87000E-001	-1.05427E-003	10	..........a	-327.74
	1820	6.07	-6.80894E-001	-6.48552E-005	0.00000E+000	-6.80000E-001	-1.03927E-003	10	..........a	-327.74
	1827	6.09333	-6.73874E-001	-6.40531E-005	0.00000E+000	-6.73000E-001	-9.89272E-004	10	..........a	-327.74
	1834	6.11667	-6.66806E-001	-6.28500E-005	0.00000E+000	-6.66000E-001	-1.02427E-003	10	..........a	-327.74
	1841	6.14	-6.59806E-001	-6.15717E-005	0.00000E+000	-6.59000E-001	-1.01427E-003	10	..........a	-327.74
	1848	6.16333	-6.52871E-001	-6.05691E-005	0.00000E+000	-6.52000E-001	-1.00927E-003	10	..........a	-327.74
	1855	6.18667	-6.45904E-001	-5.88145E-005	0.00000E+000	-6.45000E-001	-9.79272E-004	10	..........a	-327.74
	1862	6.21	-6.38874E-001	-5.71853E-005	0.00000E+000	-6.38000E-001	-9.64272E-004	10	..........a	-327.74
	1869	6.23333	-6.31869E-001	-5.53556E-005	0.00000E+000	-6.31000E-001	-9.49272E-004	10	..........a	-327.74
	1876	6.25667	-6.24924E-001	-5.28742E-005	0.00000E+000	-6.24000E-001	-9.94272E-004	10	..........a	-327.74
	1883	6.28	-6.17894E-001	-4.96909E-005	0.00000E+000	-6.17000E-001	-9.79272E-004	10	..........a	-327.74
	1890	6.30333	-6.10864E-001	-4.63322E-005	0.00000E+000	-6.10000E-001	-9.49272E-004	10	..........a	-327.74
	1897	6.32667	-6.03866E-001	-4.21715E-005	0.00000E+000	-6.03000E-001	-9.44272E-004	10	..........a	-327.74
	1904	6.35	-5.96871E-001	-3.74843E-005	0.00000E+000	-5.96000E-001	-9.64272E-004	10	..........a	-327.74
	1911	6.37333	-5.89876E-001	-3.09424E-005	0.00000E+000	-5.89000E-001	-9.84272E-004	10	..........a	-327.74
	1918	6.39667	-5.82919E-001	-2.42000E-005	0.00000E+000	-5.82000E-001	-9.84272E-004	10	..........a	-327.74
	1925	6.42	-5.75879E-001	-1.63045E-005	0.00000E+000	-5.75000E-001	-9.84272E-004	10	..........a	-327.74
	1932	6.44333	-5.68839E-001	-6.77990E-006	0.00000E+000	-5.68000E-001	-9.54272E-004	10	..........a	-327.74
	1939	6.46667	-5.61921E-001	3.09565E-006	0.00000E+000	-5.61000E-001	-9.89272E-004	10	..........a	-327.74
	1946	6.49	-5.54924E-001	1.42746E-005	0.00000E+000	-5.54000E-001	-1.00927E-003	10	..........a	-327.74
	1953	6.51333	-5.47901E-001	2.59047E-005	0.00000E+000	-5.47000E-001	-1.00427E-003	10	..........a	-327.74
	1960	6.53667	-5.40941E-001	3.75348E-005	0.00000E+000	-5.40000E-001	-9.49272E-004	10	..........a	-327.74
	1967	6.56	-5.33919E-001	4.95158E-005	0.00000E+000	-5.33000E-001	-9.79272E-004	10	..........a	-327.74
	1974	6.58333	-5.26911E-001	6.14968E-005	0.00000E+000	-5.26000E-001	-9.69272E-004	10	..........a	-327.74
	1981	6.60667	-5.19916E-001	7.25253E-005	0.00000E+000	-5.19000E-001	-9.39272E-004	10	..........a	-327.74
	1988	6.63	-5.12871E-001	8.28520E-005	0.00000E+000	-5.12000E-001	-9.29272E-004	10	..........a	-327.74
	1995	6.65333	-5.05954E-001	9.34043E-005	0.00000E+000	-5.05000E-001	-1.10427E-003	10	..........a	-327.74
	2002	6.67667	-4.98939E-001	1.03180E-004	0.00000E+000	-4.98000E-001	-9.74272E-004	10	..........a	-327.74
	2009	6.7	-4.91856E-001	1.11576E-004	0.00000E+000	-4.91000E-001	-9.34272E-004	10	..........a	-327.74
	2016	6.72333	-4.84974E-001	1.19647E-004	0.00000E+000	-4.84000E-001	-1.01427E-003	10	..........a	-327.74
	2023	6.74667	-4.77954E-001	1.26415E-004	0.00000E+000	-4.77000E-001	-9.84272E-004	10	..........a	-327.74
	2030	6.77	-4.70889E-001	1.32054E-004	0.00000E+000	-4.70000E-001	-9.19272E-004	10	..........a	-327.74
	2037	6.79333	-4.63939E-001	1.36641E-004	0.00000E+000	-4.63000E-001	-1.01927E-003	10	..........a	-327.74
	2044	6.81667	-4.57006E-001	1.39373E-004	0.00000E+000	-4.56000E-001	-1.11427E-003	10	..........a	-327.74
	2051	6.84	-4.49959E-001	1.41203E-004	0.00000E+000	-4.49000E-001	-1.03427E-003	10	..........a	-327.74
	2058	6.86333	-4.42966E-001	1.42030E-004	0.00000E+000	-4.42000E-001	-1.02427E-003	10	..........a	-327.74
	2065	6.88667	-4.35904E-001	1.41028E-004	0.00000E+000	-4.35000E-001	-9.64272E-004	10	..........a	-327.74
	2072	6.91	-4.28991E-001	1.39649E-004	0.00000E+000	-4.28000E-001	-1.00427E-003	10	..........a	-327.74
	2079	6.93333	-4.21936E-001	1.37468E-004	0.00000E+000	-4.21000E-001	-1.03927E-003	10	..........a	-327.74
	2086	6.95667	-4.14861E-001	1.34661E-004	0.00000E+000	-4.14000E-001	-9.29272E-004	10	..........a	-327.74
	2093	6.98	-4.07969E-001	1.31553E-004	0.00000E+000	-4.07000E-001	-9.99272E-004	10	..........a	-327.74
	2100	7.00333	-4.00951E-001	1.28094E-004	0.00000E+000	-4.00000E-001	-9.29272E-004	10	..........a	-327.74
	2107	7.02667	-3.93924E-001	1.25412E-004	0.00000E+000	-3.93000E-001	-1.02927E-003	10	..........a	-327.74
	2114	7.05	-3.86989E-001	1.22078E-004	0.00000E+000	-3.86000E-001	-9.04272E-004	10	..........a	-327.74
	2121	7.07333	-3.79964E-001	1.19447E-004	0.00000E+000	-3.79000E-001	-1.00927E-003	10	..........a	-327.74
	2128	7.09667	-3.72991E-001	1.16213E-004	0.00000E+000	-3.72000E-001	-9.19272E-004	10	..........a	-327.74
	2135	7.12	-3.65931E-001	1.13331E-004	0.00000E+000	-3.65000E-001	-9.59272E-004	10	..........a	-327.74
	2142	7.14333	-3.58886E-001	1.10875E-004	0.00000E+000	-3.58000E-001	-9.59272E-004	10	..........a	-327.74
	2149	7.16667	-3.51996E-001	1.07967E-004	0.00000E+000	-3.51000E-001	-1.08927E-003	10	..........a	-327.74
	2156	7.19	-3.44924E-001	1.06087E-004	0.00000E+000	-3.44000E-001	-9.24272E-004	10	..........a	-327.74
	2163	7.21333	-3.37946E-001	1.04182E-004	0.00000E+000	-3.37000E-001	-9.89272E-004	10	..........a	-327.74
	2170	7.23667	-3.30966E-001	1.02202E-004	0.00000E+000	-3.30000E-001	-8.54272E-004	10	..........a	-327.74
	2177	7.26	-3.23966E-001	1.00272E-004	0.00000E+000	-3.23000E-001	-8.29272E-004	10	..........a	-327.74
	2184	7.28333	-3.16939E-001	9.87431E-005	0.00000E+000	-3.16000E-001	-9.64272E-004	10	..........a	-327.74
	2191	7.30667	-3.09914E-001	9.72142E-005	0.00000E+000	-3.09000E-001	-9.84272E-004	10	..........a	-327.74
	2198	7.33	-3.02934E-001	9.59860E-005	0.00000E+000	-3.02000E-001	-9.34272E-004	10	..........a	-327.74
	2205	7.35333	-2.95996E-001	9.44821E-005	0.00000E+000	-2.95000E-001	-9.39272E-004	10	..........a	-327.74
	2212	7.37667	-2.89054E-001	9.32038E-005	0.00000E+000	-2.88000E-001	-9.69272E-004	10	..........a	-327.74
	2219	7.4	-2.81951E-001	9.15495E-005	0.00000E+000	-2.81000E-001	-9.64272E-004	10	..........a	-327.74
	2226	7.42333	-2.75046E-001	9.01208E-005	0.00000E+000	-2.74000E-001	-9.34272E-004	10	..........a	-327.74
	2233	7.44667	-2.67956E-001	8.92435E-005	0.00000E+000	-2.67000E-001	-9.14272E-004	10	..........a	-327.74
	2240	7.47	-2.60964E-001	8.77647E-005	0.00000E+000	-2.60000E-001	-8.34272E-004	10	..........a	-327.74
	2247	7.49333	-2.54064E-001	8.66368E-005	0.00000E+000	-2.53000E-001	-9.54272E-004	10	..........a	-327.74
	2254	7.51667	-2.46981E-001	8.51329E-005	0.00000E+000	-2.46000E-001	-8.89272E-004	10	..........a	-327.74
	2261	7.54	-2.40019E-001	8.38045E-005	0.00000E+000	-2.39000E-001	-9.59272E-004	10	..........a	-327.74
	2268	7.56333	-2.32926E-001	8.23758E-005	0.00000E+000	-2.32000E-001	-9.24272E-004	10	..........a	-327.74
	2275	7.58667	-2.25976E-001	8.10223E-005	0.00000E+000	-2.25000E-001	-8.74272E-004	10	..........a	-327.74
	2282	7.61	-2.19001E-001	8.03956E-005	0.00000E+000	-2.18000E-001	-9.24272E-004	10	..........a	-327.74
	2289	7.63333	-2.12006E-001	7.87664E-005	0.00000E+000	-2.11000E-001	-9.14272E-004	10	..........a	-327.74
	2296	7.65667	-2.05046E-001	7.75132E-005	0.00000E+000	-2.04000E-001	-8.99272E-004	10	..........a	-327.74
	2303	7.68	-1.98029E-001	7.61597E-005	0.00000E+000	-1.97000E-001	-9.39272E-004	10	..........a	-327.74
	2310	7.70333	-1.91024E-001	7.47561E-005	0.00000E+000	-1.90000E-001	-9.39272E-004	10	..........a	-327.74
	2317	7.72667	-1.84031E-001	7.36783E-005	0.00000E+000	-1.83000E-001	-9.04272E-004	10	..........a	-327.74
	2324	7.75	-1.77014E-001	7.29514E-005	0.00000E+000	-1.76000E-001	-9.19272E-004	10	..........a	-327.74
	2331	7.77333	-1.70049E-001	7.17733E-005	0.00000E+000	-1.69000E-001	-9.24272E-004	10	..........a	-327.74
	2338	7.79667	-1.63111E-001	7.06705E-005	0.00000E+000	-1.62000E-001	-1.03427E-003	10	..........a	-327.74
	2345	7.82	-1.56016E-001	6.92167E-005	0.00000E+000	-1.55000E-001	-9.24272E-004	10	..........a	-327.74
	2352	7.84333	-1.49049E-001	6.78382E-005	0.00000E+000	-1.48000E-001	-8.84272E-004	10	..........a	-327.74
	2359	7.86667	-1.42024E-001	6.68857E-005	0.00000E+000	-1.41000E-001	-9.14272E-004	10	..........a	-327.74
	2366	7.89	-1.34956E-001	6.62089E-005	0.00000E+000	-1.34000E-001	-9.34272E-004	10	..........a	-327.74
	2373	7.91333	-1.28044E-001	6.52815E-005	0.00000E+000	-1.27000E-001	-9.69272E-004	10	..........a	-327.74
	2380	7.93667	-1.21049E-001	6.43291E-005	0.00000E+000	-1.20000E-001	-9.14272E-004	10	..........a	-327.74
	2387	7.96	-1.13999E-001	6.32262E-005	0.00000E+000	-1.13000E-001	-8.84272E-004	10	..........a	-327.74
	2394	7.98333	-1.07076E-001	6.22988E-005	0.00000E+000	-1.06000E-001	-9.64272E-004	10	..........a	-327.74
	2401	8.00667	-1.00084E-001	6.12712E-005	0.00000E+000	-9.90000E-002	-9.79272E-004	10	..........a	-327.74
	2408	8.03	-9.30739E-002	6.03187E-005	0.00000E+000	-9.20000E-002	-9.64272E-004	10	..........a	-327.74
	2415	8.05333	-8.60339E-002	5.94665E-005	0.00000E+000	-8.50000E-002	-9.69272E-004	10	..........a	-327.74
	2422	8.07667	-7.90564E-002	5.88148E-005	0.00000E+000	-7.80000E-002	-9.94272E-004	10	..........a	-327.74
	2429	8.1	-7.20864E-002	5.82634E-005	0.00000E+000	-7.10000E-002	-9.14272E-004	10	..........a	-327.74
	2436	8.12333	-6.50539E-002	5.75866E-005	0.00000E+000	-6.40000E-002	-1.00427E-003	10	..........a	-327.74
	2443	8.14667	-5.80364E-002	5.72859E-005	0.00000E+000	-5.70000E-002	-9.44272E-004	10	..........a	-327.74
	2450	8.17	-5.10939E-002	5.68096E-005	0.00000E+000	-5.00000E-002	-9.94272E-004	10	..........a	-327.74
	2457	8.19333	-4.41339E-002	5.58572E-005	0.00000E+000	-4.30000E-002	-1.03427E-003	10	..........a	-327.74
	2464	8.21667	-3.71089E-002	5.55564E-005	0.00000E+000	-3.60000E-002	-9.99272E-004	10	..........a	-327.74
	2471	8.24	-3.01189E-002	5.46791E-005	0.00000E+000	-2.90000E-002	-9.19272E-004	10	..........a	-327.74
	2478	8.26333	-2.30689E-002	5.43282E-005	0.00000E+000	-2.20000E-002	-9.54272E-004	10	..........a	-327.74
	2485	8.28667	-1.61014E-002	5.40024E-005	0.00000E+000	-1.50000E-002	-9.29272E-004	10	..........a	-327.74
	2492	8.31	-9.11394E-003	5.33256E-005	0.00000E+000	-8.00000E-003	-9.69272E-004	10	..........a	-327.74
	2499	8.33333	-2.03644E-003	5.27491E-005	0.00000E+000	-1.00000E-003	-8.89272E-004	10	..........a	-327.74
	2506	8.35667	4.92606E-003	5.24734E-005	0.00000E+000	5.99998E-003	-8.89272E-004	10	..........a	-327.74
	2513	8.38	1.19286E-002	5.20724E-005	0.00000E+000	1.30000E-002	-8.49272E-004	10	..........a	-327.74
	2520	8.40333	1.89111E-002	5.14457E-005	0.00000E+000	2.00000E-002	-9.24272E-004	10	..........a	-327.74
	2527	8.42667	2.59611E-002	5.10196E-005	0.00000E+000	2.70000E-002	-9.14272E-004	10	..........a	-327.74
	2534	8.45	3.29361E-002	5.09444E-005	0.00000E+000	3.40000E-002	-8.89272E-004	10	..........a	-327.74
	2541	8.47333	3.98286E-002	5.09946E-005	0.00000E+000	4.10000E-002	-9.89272E-004	10	..........a	-327.74
	2548	8.49667	4.69586E-002	5.03429E-005	0.00000E+000	4.80000E-002	-9.34272E-004	10	..........a	-327.74
	2555	8.52	5.39036E-002	5.05183E-005	0.00000E+000	5.50000E-002	-9.89272E-004	10	..........a	-327.74
	2562	8.54333	6.09136E-002	4.97163E-005	0.00000E+000	6.20000E-002	-9.24272E-004	10	..........a	-327.74
	2569	8.56667	6.79736E-002	4.98416E-005	0.00000E+000	6.90000E-002	-1.00927E-003	10	..........a	-327.74
	2576	8.59	7.49161E-002	4.96411E-005	0.00000E+000	7.60000E-002	-9.74272E-004	10	..........a	-327.74
	2583	8.61333	8.18686E-002	4.93904E-005	0.00000E+000	8.30000E-002	-9.79272E-004	10	..........a	-327.74
	2590	8.63667	8.89386E-002	4.93654E-005	0.00000E+000	9.00000E-002	-9.19272E-004	10	..........a	-327.74
	2597	8.66	9.59786E-002	4.92150E-005	0.00000E+000	9.70000E-002	-9.34272E-004	10	..........a	-327.74
	2604	8.68333	1.02906E-001	4.93904E-005	0.00000E+000	1.04000E-001	-9.29272E-004	10	..........a	-327.74
	2611	8.70667	1.09931E-001	4.97413E-005	0.00000E+000	1.11000E-001	-9.39272E-004	10	..........a	-327.74
	2618	8.73	1.16861E-001	4.97915E-005	0.00000E+000	1.18000E-001	-9.24272E-004	10	..........a	-327.74
	2625	8.75333	1.23894E-001	5.02176E-005	0.00000E+000	1.25000E-001	-9.19272E-004	10	..........a	-327.74
	2632	8.77667	1.30921E-001	4.98667E-005	0.00000E+000	1.32000E-001	-8.74272E-004	10	..........a	-327.74
	2639	8.8	1.37896E-001	5.06938E-005	0.00000E+000	1.39000E-001	-9.59272E-004	10	..........a	-327.74
	2646	8.82333	1.44914E-001	5.11199E-005	0.00000E+000	1.46000E-001	-9.49272E-004	10	..........a	-327.74
	2653	8.84667	1.51844E-001	5.19220E-005	0.00000E+000	1.53000E-001	-9.39272E-004	10	..........a	-327.74
	2660	8.87	1.58876E-001	5.20473E-005	0.00000E+000	1.60000E-001	-8.89272E-004	10	..........a	-327.74
	2667	8.89333	1.65899E-001	5.28995E-005	0.00000E+000	1.67000E-001	-9.19272E-004	10	..........a	-327.74
	2674	8.91667	1.72879E-001	5.30248E-005	0.00000E+000	1.74000E-001	-9.34272E-004	10	..........a	-327.74
	2681	8.94	1.79771E-001	5.35512E-005	0.00000E+000	1.81000E-001	-9.79272E-004	10	..........a	-327.74
	2688	8.96333	1.86874E-001	5.39522E-005	0.00000E+000	1.88000E-001	-8.69272E-004	10	..........a	-327.74
	2695	8.98667	1.93826E-001	5.36013E-005	0.00000E+000	1.95000E-001	-8.84272E-004	10	..........a	-327.74
	2702	9.01	2.00894E-001	5.37266E-005	0.00000E+000	2.02000E-001	-8.39272E-004	10	..........a	-327.74
	2709	9.03333	2.07816E-001	5.36765E-005	0.00000E+000	2.09000E-001	-9.04272E-004	10	..........a	-327.74
	2716	9.05667	2.14814E-001	5.36515E-005	0.00000E+000	2.16000E-001	-9.19272E-004	10	..........a	-327.74
	2723	9.08	2.21831E-001	5.31251E-005	0.00000E+000	2.23000E-001	-9.69272E-004	10	..........a	-327.74
	2730	9.10333	2.28786E-001	5.27992E-005	0.00000E+000	2.30000E-001	-9.69272E-004	10	..........a	-327.74
	2737	9.12667	2.35799E-001	5.24985E-005	0.00000E+000	2.37000E-001	-9.39272E-004	10	..........a	-327.74
	2744	9.15	2.42879E-001	5.15961E-005	0.00000E+000	2.44000E-001	-9.09272E-004	10	..........a	-327.74
	2751	9.17333	2.49791E-001	5.15961E-005	0.00000E+000	2.51000E-001	-9.29272E-004	10	..........a	-327.74
	2758	9.19667	2.56814E-001	5.07690E-005	0.00000E+000	2.58000E-001	-8.59272E-004	10	..........a	-327.74
	2765	9.22	2.63799E-001	5.03178E-005	0.00000E+000	2.65000E-001	-9.39272E-004	10	..........a	-327.74
	2772	9.24333	2.70841E-001	5.00170E-005	0.00000E+000	2.72000E-001	-9.54272E-004	10	..........a	-327.74
	2779	9.26667	2.77901E-001	4.95659E-005	0.00000E+000	2.79000E-001	-9.29272E-004	10	..........a	-327.74
	2786	9.29	2.84804E-001	4.91147E-005	0.00000E+000	2.86000E-001	-9.94272E-004	10	..........a	-327.74
	2793	9.31333	2.91774E-001	4.83628E-005	0.00000E+000	2.93000E-001	-9.89272E-004	10	..........a	-327.74
	2800	9.33667	2.98824E-001	4.77863E-005	0.00000E+000	3.00000E-001	-9.49272E-004	10	..........a	-327.74
	2807	9.36	3.05856E-001	4.67085E-005	0.00000E+000	3.07000E-001	-9.09272E-004	10	..........a	-327.74
	2814	9.38333	3.12836E-001	4.57560E-005	0.00000E+000	3.14000E-001	-8.74272E-004	10	..........a	-327.74
	2821	9.40667	3.19771E-001	4.57811E-005	0.00000E+000	3.21000E-001	-9.09272E-004	10	..........a	-327.74
	2828	9.43	3.26811E-001	4.58062E-005	0.00000E+000	3.28000E-001	-8.94272E-004	10	..........a	-327.74
	2835	9.45333	3.33874E-001	4.46030E-005	0.00000E+000	3.35000E-001	-8.54272E-004	10	..........a	-327.74
	2842	9.47667	3.40786E-001	4.47534E-005	0.00000E+000	3.42000E-001	-8.79272E-004	10	..........a	-327.74
	2849	9.5	3.47756E-001	4.38762E-005	0.00000E+000	3.49000E-001	-8.84272E-004	10	..........a	-327.74
	2856	9.5233	3.54846E-001	4.37007E-005	0.00000E+000	3.56000E-001	-9.44272E-004	10	..........a	-327.74
	2863	9.5467	3.61739E-001	4.32997E-005	0.00000E+000	3.63000E-001	-9.39272E-004	10	..........a	-327.74
	2870	9.57	3.68779E-001	4.29488E-005	0.00000E+000	3.70000E-001	-9.34272E-004	10	..........a	-327.74
	2877	9.5933	3.75829E-001	4.21968E-005	0.00000E+000	3.77000E-001	-8.54272E-004	10	..........a	-327.74
	2884	9.6167	3.82806E-001	4.18459E-005	0.00000E+000	3.84000E-001	-9.39272E-004	10	..........a	-327.74
	2891	9.64	3.89804E-001	4.17206E-005	0.00000E+000	3.91000E-001	-8.59272E-004	10	..........a	-327.74
	2898	9.6633	3.96806E-001	4.14198E-005	0.00000E+000	3.98000E-001	-9.09272E-004	10	..........a	-327.74
	2905	9.6867	4.03814E-001	4.12694E-005	0.00000E+000	4.05000E-001	-8.49272E-004	10	..........a	-327.74
	2912	9.71	4.10806E-001	4.10689E-005	0.00000E+000	4.12000E-001	-9.19272E-004	10	..........a	-327.74
	2919	9.7333	4.17761E-001	4.03921E-005	0.00000E+000	4.19000E-001	-8.94272E-004	10	..........a	-327.74
	2926	9.7567	4.24809E-001	3.96402E-005	0.00000E+000	4.26000E-001	-8.54272E-004	10	..........a	-327.74
	2933	9.78	4.31769E-001	3.98407E-005	0.00000E+000	4.33000E-001	-9.09272E-004	10	..........a	-327.74
	2940	9.8033	4.38756E-001	3.93896E-005	0.00000E+000	4.40000E-001	-9.34272E-004	10	..........a	-327.74
	2947	9.8267	4.45799E-001	3.90637E-005	0.00000E+000	4.47000E-001	-9.04272E-004	10	..........a	-327.74
	2954	9.85	4.52779E-001	3.88883E-005	0.00000E+000	4.54000E-001	-8.04272E-004	10	..........a	-327.74
	2961	9.8733	4.59751E-001	3.87379E-005	0.00000E+000	4.61000E-001	-9.64272E-004	10	..........a	-327.74
	2968	9.8967	4.66774E-001	3.78355E-005	0.00000E+000	4.68000E-001	-8.64272E-004	10	..........a	-327.74
	2975	9.92	4.73719E-001	3.80611E-005	0.00000E+000	4.75000E-001	-9.19272E-004	10	..........a	-327.74
	2982	9.9433	4.80719E-001	3.81363E-005	0.00000E+000	4.82000E-001	-9.59272E-004	10	..........a	-327.74
	2989	9.9667	4.87704E-001	3.77603E-005	0.00000E+000	4.89000E-001	-1.02427E-003	10	..........a	-327.74
	2996	9.99	4.94726E-001	3.68329E-005	0.00000E+000	4.96000E-001	-9.44272E-004	10	..........a	-327.74
	3000	10.0033	4.98746E-001	3.69081E-005	0.00000E+000	5.00000E-001	-8.99272E-004	10	..........a	-327.74
CURVE2	TABLE
	Pt	T	Vf	Im	Vu	Sig	Ach	IERange	Over	Temp
	#	s	V vs. Ref.	A	V	V	V	#	bits	deg C
	3001	10.0067	4.98756E-001	3.58554E-005	0.00000E+000	5.00000E-001	-9.14272E-004	10	..........a	-327.74