File: data/02-SI/Figures_S9_S11_RDE/15btmapaq-rde/1mkcl-15btmapaq-nitrogen-4000mvpers.DTA
EXPLAIN
TAG	CV
TITLE	LABEL	Cyclic Voltammetry	Test &Identifier
DATE	LABEL	1/31/2023	Date
TIME	LABEL	18:21:35	Time
NOTES	NOTES	1	&Notes...

PSTAT	PSTAT	REF3000-21108	Potentiostat
VINIT	POTEN	5.00000E-001	F	Initial &E (V)
VLIMIT1	POTEN	-1.00000E+000	F	Scan Limit &1 (V)
VLIMIT2	POTEN	5.00000E-001	F	Scan Limit &2 (V)
VFINAL	POTEN	5.00000E-001	F	Final &E (V)
SCANRATE	QUANT	3.99999E+003	&Scan Rate (mV/s)
STEPSIZE	QUANT	1.00000E+000	St&ep Size (mV)
CYCLES	IQUANT	1	C&ycles (#)
IMODE	SELECTOR	1	I/E Range &Mode
IRANGE	QUANT	1.00000E+001	&Max Current (mA)
AREA	QUANT	1.00000E+000	Electrode &Area (cm^2)
ELECTRODETYPE	SELECTOR	0	Electrode Type
STRIPPING	TOGGLE	F	Used for Stripping
POLARITY	TOGGLE	F	Signal Polarity
CONDIT	TWOPARAM	F	1.50000E+001	0.00000E+000	Conditionin&g	Time(s)	E(V)
DELAY	TWOPARAM	F	5.00000E+000	0.00000E+000	Init. De&lay	Time(s)	Stab.(mV/s)
EQDELAY	QUANT	0.00000E+000	Equil. &Time (s)
IRCOMP	SELECTOR	0	IRCom&p
PFCOR	QUANT	5.00000E+001	PF Corr. (ohm)
SAMPLINGMODE	SELECTOR	1	Sampling &Mode
EOC	QUANT	0	Open Circuit (V)
PSTATMODEL	IQUANT	5	Pstat Model
PSTATSECTION	LABEL	REF3000-21108	Pstat Section
PSTATSERIALNO	LABEL	21108	Pstat Serial Number
CTRLMODE	IQUANT	1	Control Mode
ELECTROMETER	IQUANT	0	RE=0 or CS=1
IESTAB	IQUANT	2	I/E Stability
CASPEED	IQUANT	4	Control Amp Speed
CONVENTION	IQUANT	1	Current Convention
ICHRANGE	IQUANT	2	Ich Range
ICHRANGEMODE	TOGGLE	F	Ich Auto Range
ICHOFFSETENABLE	TOGGLE	F	Ich Offset Enable
ICHOFFSET	QUANT	0	Ich Offset (V)
ICHFILTER	IQUANT	1	Ich Filter
VCHRANGE	IQUANT	2	Vch Range
VCHRANGEMODE	TOGGLE	F	Vch Auto Range
VCHOFFSETENABLE	TOGGLE	F	Vch Offset Enable
VCHOFFSET	QUANT	0	Vch Offset (V)
VCHFILTER	IQUANT	1	Vch Filter
ACHRANGE	IQUANT	2	Ach Range
ACHOFFSETENABLE	TOGGLE	F	Ach Offset Enable
ACHOFFSET	QUANT	0	Ach Offset (V)
ACHFILTER	IQUANT	0	Ach Filter
IERANGELOWERLIMIT	IQUANT	2	I/E Range Lower Limit
IERANGEMODE	TOGGLE	F	I/E AutoRange
IERANGE	IQUANT	10	I/E Range
POSFEEDENABLE	TOGGLE	F	Positive Feedback IR Comp
POSFEEDRESISTANCE	QUANT	0	Positive Feedback Resistance (ohm)
ACHSELECT	IQUANT	0	Ach Select
SENSECABLEID	IQUANT	14	Sense Cable ID
PWRCABLEID	IQUANT	7	Power Cable ID
DCCALDATE	LABEL	11/9/2022	DC Calibration Date
ACCALDATE	LABEL	11/9/2022	AC Calibration Date
THERMOSELECT	IQUANT	1	Thermo Select
FRAMEWORKVERSION	LABEL	7.8.2	Framework Version
INSTRUMENTVERSION	LABEL	4.40	Instrument Version
COMPLIANCEVOLTAGE	IQUANT	0	Compliance Voltage
CURVE1	TABLE
	Pt	T	Vf	Im	Vu	Sig	Ach	IERange	Over	Temp
	#	s	V vs. Ref.	A	V	V	V	#	bits	deg C
	0	0.00025	4.98624E-001	5.38544E-005	0.00000E+000	5.00000E-001	-1.07927E-003	10	..........a	-327.74
	7	0.002	4.91958E-001	3.78129E-005	0.00000E+000	4.93000E-001	-7.29272E-004	10	..........a	-327.74
	14	0.00375	4.84924E-001	3.21315E-005	0.00000E+000	4.86000E-001	-6.29272E-004	10	..........a	-327.74
	21	0.0055	4.77691E-001	2.77869E-005	0.00000E+000	4.79000E-001	-8.29272E-004	10	..........a	-327.74
	28	0.00725	4.70891E-001	2.31082E-005	0.00000E+000	4.72000E-001	-4.29272E-004	10	..........a	-327.74
	35	0.009	4.63691E-001	2.21056E-005	0.00000E+000	4.65000E-001	-5.29272E-004	10	..........a	-327.74
	42	0.01075	4.56691E-001	1.80952E-005	0.00000E+000	4.58000E-001	-8.29272E-004	10	..........a	-327.74
	49	0.0125	4.49691E-001	1.94320E-005	0.00000E+000	4.51000E-001	-4.29272E-004	10	..........a	-327.74
	56	0.01425	4.42658E-001	1.60900E-005	0.00000E+000	4.44000E-001	-8.29272E-004	10	..........a	-327.74
	63	0.016	4.35658E-001	1.30822E-005	0.00000E+000	4.37000E-001	-7.29272E-004	10	..........a	-327.74
	70	0.01775	4.28958E-001	1.27480E-005	0.00000E+000	4.30000E-001	-7.79272E-004	10	..........a	-327.74
	77	0.0195	4.21691E-001	1.30822E-005	0.00000E+000	4.23000E-001	-6.29272E-004	10	..........a	-327.74
	84	0.02125	4.14858E-001	6.73245E-006	0.00000E+000	4.16000E-001	-4.29272E-004	10	..........a	-327.74
	91	0.023	4.07624E-001	1.07428E-005	0.00000E+000	4.09000E-001	-1.02927E-003	10	..........a	-327.74
	98	0.02475	4.00891E-001	6.73245E-006	0.00000E+000	4.02000E-001	-2.29272E-004	10	..........a	-327.74
	105	0.0265	3.93958E-001	3.72467E-006	0.00000E+000	3.95000E-001	-6.29272E-004	10	..........a	-327.74
	112	0.02825	3.86858E-001	3.05627E-006	0.00000E+000	3.88000E-001	-8.79272E-004	10	..........a	-327.74
	119	0.03	3.79924E-001	2.38788E-006	0.00000E+000	3.81000E-001	-9.79272E-004	10	..........a	-327.74
	126	0.03175	3.72724E-001	6.39825E-006	0.00000E+000	3.74000E-001	-1.12927E-003	10	..........a	-327.74
	133	0.0335	3.65991E-001	3.82690E-007	0.00000E+000	3.67000E-001	-3.79272E-004	10	..........a	-327.74
	140	0.03525	3.58658E-001	2.72208E-006	0.00000E+000	3.60000E-001	-9.29272E-004	10	..........a	-327.74
	147	0.037	3.51891E-001	4.84920E-008	0.00000E+000	3.53000E-001	-4.79272E-004	10	..........a	-327.74
	154	0.03875	3.44691E-001	-1.95670E-006	0.00000E+000	3.46000E-001	-9.79272E-004	10	..........a	-327.74
	161	0.0405	3.37691E-001	-6.19904E-007	0.00000E+000	3.39000E-001	-1.02927E-003	10	..........a	-327.74
	168	0.04225	3.30824E-001	-5.63287E-006	0.00000E+000	3.32000E-001	-6.79272E-004	10	..........a	-327.74
	175	0.044	3.23758E-001	-3.29349E-006	0.00000E+000	3.25000E-001	-1.17927E-003	10	..........a	-327.74
	182	0.04575	3.16691E-001	-3.29349E-006	0.00000E+000	3.18000E-001	-6.29272E-004	10	..........a	-327.74
	189	0.0475	3.09758E-001	-4.63028E-006	0.00000E+000	3.11000E-001	-8.29272E-004	10	..........a	-327.74
	196	0.04925	3.02724E-001	-1.95670E-006	0.00000E+000	3.04000E-001	-1.17927E-003	10	..........a	-327.74
	203	0.051	2.95691E-001	-5.29868E-006	0.00000E+000	2.97000E-001	-4.79272E-004	10	..........a	-327.74
	210	0.05275	2.88891E-001	-7.97226E-006	0.00000E+000	2.90000E-001	-5.29272E-004	10	..........a	-327.74
	217	0.0545	2.81824E-001	-4.96448E-006	0.00000E+000	2.83000E-001	-9.79272E-004	10	..........a	-327.74
	224	0.05625	2.74924E-001	-8.64066E-006	0.00000E+000	2.76000E-001	-5.79272E-004	10	..........a	-327.74
	231	0.058	2.67724E-001	-6.96967E-006	0.00000E+000	2.69000E-001	-1.17927E-003	10	..........a	-327.74
	238	0.05975	2.60791E-001	-7.97226E-006	0.00000E+000	2.62000E-001	-7.79272E-004	10	..........a	-327.74
	245	0.0615	2.54091E-001	-1.16484E-005	0.00000E+000	2.55000E-001	-6.79272E-004	10	..........a	-327.74
	252	0.06325	2.46824E-001	-1.16484E-005	0.00000E+000	2.48000E-001	-1.27927E-003	10	..........a	-327.74
	259	0.065	2.39858E-001	-1.19826E-005	0.00000E+000	2.41000E-001	-7.79272E-004	10	..........a	-327.74
	266	0.06675	2.32824E-001	-1.16484E-005	0.00000E+000	2.34000E-001	-5.29272E-004	10	..........a	-327.74
	273	0.0685	2.25958E-001	-1.03116E-005	0.00000E+000	2.27000E-001	-7.79272E-004	10	..........a	-327.74
	280	0.07025	2.18724E-001	-9.30905E-006	0.00000E+000	2.20000E-001	-1.02927E-003	10	..........a	-327.74
	287	0.072	2.11858E-001	-1.16484E-005	0.00000E+000	2.13000E-001	-6.79272E-004	10	..........a	-327.74
	294	0.07375	2.05024E-001	-1.46562E-005	0.00000E+000	2.06000E-001	-5.79272E-004	10	..........a	-327.74
	301	0.0755	1.97924E-001	-1.43220E-005	0.00000E+000	1.99000E-001	-8.79272E-004	10	..........a	-327.74
	308	0.07725	1.90858E-001	-1.33194E-005	0.00000E+000	1.92000E-001	-9.79272E-004	10	..........a	-327.74
	315	0.079	1.83758E-001	-1.56588E-005	0.00000E+000	1.85000E-001	-7.29272E-004	10	..........a	-327.74
	322	0.08075	1.77058E-001	-1.86666E-005	0.00000E+000	1.78000E-001	-8.79272E-004	10	..........a	-327.74
	329	0.0825	1.69791E-001	-1.66614E-005	0.00000E+000	1.71000E-001	-7.79272E-004	10	..........a	-327.74
	336	0.08425	1.62891E-001	-1.66614E-005	0.00000E+000	1.64000E-001	-3.29272E-004	10	..........a	-327.74
	343	0.086	1.56124E-001	-1.83324E-005	0.00000E+000	1.57000E-001	-2.79272E-004	10	..........a	-327.74
	350	0.08775	1.48924E-001	-1.79982E-005	0.00000E+000	1.50000E-001	-7.79272E-004	10	..........a	-327.74
	357	0.0895	1.42124E-001	-1.83324E-005	0.00000E+000	1.43000E-001	-6.79272E-004	10	..........a	-327.74
	364	0.09125	1.35058E-001	-1.73298E-005	0.00000E+000	1.36000E-001	-9.29272E-004	10	..........a	-327.74
	371	0.093	1.27891E-001	-1.79982E-005	0.00000E+000	1.29000E-001	-9.29272E-004	10	..........a	-327.74
	378	0.09475	1.20858E-001	-1.73298E-005	0.00000E+000	1.22000E-001	-1.12927E-003	10	..........a	-327.74
	385	0.0965	1.13991E-001	-2.00034E-005	0.00000E+000	1.15000E-001	-6.29272E-004	10	..........a	-327.74
	392	0.09825	1.06958E-001	-1.86666E-005	0.00000E+000	1.08000E-001	-8.79272E-004	10	..........a	-327.74
	399	0.1	9.97910E-002	-1.76640E-005	0.00000E+000	1.01000E-001	-7.79272E-004	10	..........a	-327.74
	406	0.10175	9.30243E-002	-1.86666E-005	0.00000E+000	9.40000E-002	-3.29272E-004	10	..........a	-327.74
	413	0.1035	8.61577E-002	-2.20086E-005	0.00000E+000	8.70000E-002	-4.79272E-004	10	..........a	-327.74
	420	0.10525	7.90243E-002	-2.00034E-005	0.00000E+000	8.00000E-002	-7.29272E-004	10	..........a	-327.74
	427	0.107	7.19577E-002	-2.00034E-005	0.00000E+000	7.30000E-002	-7.79272E-004	10	..........a	-327.74
	434	0.10875	6.47910E-002	-1.96692E-005	0.00000E+000	6.60000E-002	-7.29272E-004	10	..........a	-327.74
	441	0.1105	5.78910E-002	-2.06718E-005	0.00000E+000	5.90000E-002	-8.79272E-004	10	..........a	-327.74
	448	0.11225	5.07577E-002	-1.96692E-005	0.00000E+000	5.20000E-002	-7.79272E-004	10	..........a	-327.74
	455	0.114	4.38910E-002	-2.10060E-005	0.00000E+000	4.50000E-002	-6.29272E-004	10	..........a	-327.74
	462	0.11575	3.68577E-002	-1.90008E-005	0.00000E+000	3.80000E-002	-9.79272E-004	10	..........a	-327.74
	469	0.1175	3.00577E-002	-2.43480E-005	0.00000E+000	3.10000E-002	-9.29272E-004	10	..........a	-327.74
	476	0.11925	2.28910E-002	-2.10060E-005	0.00000E+000	2.40000E-002	-6.29272E-004	10	..........a	-327.74
	483	0.121	1.58910E-002	-2.43480E-005	0.00000E+000	1.70000E-002	-3.29272E-004	10	..........a	-327.74
	490	0.12275	8.79100E-003	-2.10060E-005	0.00000E+000	9.99999E-003	-1.17927E-003	10	..........a	-327.74
	497	0.1245	1.89100E-003	-2.16744E-005	0.00000E+000	2.99999E-003	-1.02927E-003	10	..........a	-327.74
	504	0.12625	-5.37566E-003	-2.20086E-005	0.00000E+000	-4.00001E-003	-1.17927E-003	10	..........a	-327.74
	511	0.128	-1.17757E-002	-2.56848E-005	0.00000E+000	-1.10000E-002	-2.79272E-004	10	..........a	-327.74
	518	0.12975	-1.89757E-002	-2.73557E-005	0.00000E+000	-1.80000E-002	-6.79272E-004	10	..........a	-327.74
	525	0.1315	-2.61757E-002	-2.00034E-005	0.00000E+000	-2.50000E-002	-1.12927E-003	10	..........a	-327.74
	532	0.13325	-3.30757E-002	-2.36796E-005	0.00000E+000	-3.20000E-002	-6.79272E-004	10	..........a	-327.74
	539	0.135	-4.01090E-002	-2.60190E-005	0.00000E+000	-3.90000E-002	-6.79272E-004	10	..........a	-327.74
	546	0.13675	-4.69757E-002	-2.43480E-005	0.00000E+000	-4.60000E-002	-8.29272E-004	10	..........a	-327.74
	553	0.1385	-5.41423E-002	-2.40138E-005	0.00000E+000	-5.30000E-002	-7.79272E-004	10	..........a	-327.74
	560	0.14025	-6.11090E-002	-2.26770E-005	0.00000E+000	-6.00000E-002	-9.29272E-004	10	..........a	-327.74
	567	0.142	-6.81090E-002	-2.66873E-005	0.00000E+000	-6.70000E-002	-6.29272E-004	10	..........a	-327.74
	574	0.14375	-7.49757E-002	-2.70215E-005	0.00000E+000	-7.40000E-002	-5.29272E-004	10	..........a	-327.74
	581	0.1455	-8.20423E-002	-2.33454E-005	0.00000E+000	-8.10000E-002	-1.12927E-003	10	..........a	-327.74
	588	0.14725	-8.89090E-002	-2.66873E-005	0.00000E+000	-8.80000E-002	-9.79272E-004	10	..........a	-327.74
	595	0.149	-9.59090E-002	-2.63531E-005	0.00000E+000	-9.50000E-002	-6.29272E-004	10	..........a	-327.74
	602	0.15075	-1.03109E-001	-2.20086E-005	0.00000E+000	-1.02000E-001	-1.07927E-003	10	..........a	-327.74
	609	0.1525	-1.10142E-001	-2.93609E-005	0.00000E+000	-1.09000E-001	-8.79272E-004	10	..........a	-327.74
	616	0.15425	-1.16842E-001	-2.53506E-005	0.00000E+000	-1.16000E-001	-7.79272E-004	10	..........a	-327.74
	623	0.156	-1.23942E-001	-2.80241E-005	0.00000E+000	-1.23000E-001	-1.02927E-003	10	..........a	-327.74
	630	0.15775	-1.31009E-001	-2.76899E-005	0.00000E+000	-1.30000E-001	-1.02927E-003	10	..........a	-327.74
	637	0.1595	-1.38042E-001	-2.63531E-005	0.00000E+000	-1.37000E-001	-1.02927E-003	10	..........a	-327.74
	644	0.16125	-1.44809E-001	-2.83583E-005	0.00000E+000	-1.44000E-001	-4.79272E-004	10	..........a	-327.74
	651	0.163	-1.52076E-001	-2.96951E-005	0.00000E+000	-1.51000E-001	-7.29272E-004	10	..........a	-327.74
	658	0.16475	-1.59009E-001	-2.76899E-005	0.00000E+000	-1.58000E-001	-9.79272E-004	10	..........a	-327.74
	665	0.1665	-1.65876E-001	-3.06977E-005	0.00000E+000	-1.65000E-001	-4.29272E-004	10	..........a	-327.74
	672	0.16825	-1.72942E-001	-3.13661E-005	0.00000E+000	-1.72000E-001	-8.29272E-004	10	..........a	-327.74
	679	0.17	-1.79976E-001	-3.06977E-005	0.00000E+000	-1.79000E-001	-9.29272E-004	10	..........a	-327.74
	686	0.17175	-1.87009E-001	-3.40397E-005	0.00000E+000	-1.86000E-001	-7.29272E-004	10	..........a	-327.74
	693	0.1735	-1.93909E-001	-3.37055E-005	0.00000E+000	-1.93000E-001	-5.29272E-004	10	..........a	-327.74
	700	0.17525	-2.00976E-001	-3.23687E-005	0.00000E+000	-2.00000E-001	-5.79272E-004	10	..........a	-327.74
	707	0.177	-2.08142E-001	-3.40397E-005	0.00000E+000	-2.07000E-001	-1.02927E-003	10	..........a	-327.74
	714	0.17875	-2.15009E-001	-3.06977E-005	0.00000E+000	-2.14000E-001	-1.12927E-003	10	..........a	-327.74
	721	0.1805	-2.22076E-001	-3.50423E-005	0.00000E+000	-2.21000E-001	-9.79272E-004	10	..........a	-327.74
	728	0.18225	-2.28842E-001	-3.23687E-005	0.00000E+000	-2.28000E-001	-9.29272E-004	10	..........a	-327.74
	735	0.184	-2.36009E-001	-3.63791E-005	0.00000E+000	-2.35000E-001	-5.79272E-004	10	..........a	-327.74
	742	0.18575	-2.43176E-001	-3.47081E-005	0.00000E+000	-2.42000E-001	-1.22927E-003	10	..........a	-327.74
	749	0.1875	-2.49909E-001	-4.13921E-005	0.00000E+000	-2.49000E-001	-7.29272E-004	10	..........a	-327.74
	756	0.18925	-2.57076E-001	-3.97211E-005	0.00000E+000	-2.56000E-001	-1.07927E-003	10	..........a	-327.74
	763	0.191	-2.64076E-001	-4.03895E-005	0.00000E+000	-2.63000E-001	-1.12927E-003	10	..........a	-327.74
	770	0.19275	-2.71009E-001	-4.13921E-005	0.00000E+000	-2.70000E-001	-1.07927E-003	10	..........a	-327.74
	777	0.1945	-2.78009E-001	-4.17263E-005	0.00000E+000	-2.77000E-001	-8.29272E-004	10	..........a	-327.74
	784	0.19625	-2.85009E-001	-4.27289E-005	0.00000E+000	-2.84000E-001	-8.29272E-004	10	..........a	-327.74
	791	0.198	-2.91909E-001	-4.60708E-005	0.00000E+000	-2.91000E-001	-3.79272E-004	10	..........a	-327.74
	798	0.19975	-2.98809E-001	-5.04154E-005	0.00000E+000	-2.98000E-001	-7.29272E-004	10	..........a	-327.74
	805	0.2015	-3.05909E-001	-5.00812E-005	0.00000E+000	-3.05000E-001	-8.29272E-004	10	..........a	-327.74
	812	0.20325	-3.13142E-001	-4.90786E-005	0.00000E+000	-3.12000E-001	-1.17927E-003	10	..........a	-327.74
	819	0.205	-3.20009E-001	-4.87444E-005	0.00000E+000	-3.19000E-001	-7.79272E-004	10	..........a	-327.74
	826	0.20675	-3.27042E-001	-5.10838E-005	0.00000E+000	-3.26000E-001	-7.79272E-004	10	..........a	-327.74
	833	0.2085	-3.33576E-001	-5.47600E-005	0.00000E+000	-3.33000E-001	-2.79272E-004	10	..........a	-327.74
	840	0.21025	-3.41076E-001	-5.30890E-005	0.00000E+000	-3.40000E-001	-8.29272E-004	10	..........a	-327.74
	847	0.212	-3.47909E-001	-5.81020E-005	0.00000E+000	-3.47000E-001	-9.29272E-004	10	..........a	-327.74
	854	0.21375	-3.54976E-001	-5.67652E-005	0.00000E+000	-3.54000E-001	-1.22927E-003	10	..........a	-327.74
	861	0.2155	-3.61876E-001	-5.94388E-005	0.00000E+000	-3.61000E-001	-6.79272E-004	10	..........a	-327.74
	868	0.21725	-3.68876E-001	-6.31149E-005	0.00000E+000	-3.68000E-001	-1.07927E-003	10	..........a	-327.74
	875	0.219	-3.76042E-001	-6.54543E-005	0.00000E+000	-3.75000E-001	-1.12927E-003	10	..........a	-327.74
	882	0.22075	-3.82942E-001	-7.04673E-005	0.00000E+000	-3.82000E-001	-6.29272E-004	10	..........a	-327.74
	889	0.2225	-3.90109E-001	-6.94647E-005	0.00000E+000	-3.89000E-001	-9.29272E-004	10	..........a	-327.74
	896	0.22425	-3.96876E-001	-7.91564E-005	0.00000E+000	-3.96000E-001	-6.29272E-004	10	..........a	-327.74
	903	0.226	-4.03709E-001	-8.58404E-005	0.00000E+000	-4.03000E-001	-4.79272E-004	10	..........a	-327.74
	910	0.22775	-4.10909E-001	-9.28586E-005	0.00000E+000	-4.10000E-001	-7.79272E-004	10	..........a	-327.74
	917	0.2295	-4.17876E-001	-1.05224E-004	0.00000E+000	-4.17000E-001	-7.29272E-004	10	..........a	-327.74
	924	0.23125	-4.25042E-001	-1.18592E-004	0.00000E+000	-4.24000E-001	-8.29272E-004	10	..........a	-327.74
	931	0.233	-4.32009E-001	-1.32628E-004	0.00000E+000	-4.31000E-001	-6.79272E-004	10	..........a	-327.74
	938	0.23475	-4.38909E-001	-1.49338E-004	0.00000E+000	-4.38000E-001	-7.79272E-004	10	..........a	-327.74
	945	0.2365	-4.45909E-001	-1.71061E-004	0.00000E+000	-4.45000E-001	-1.79272E-004	10	..........a	-327.74
	952	0.23825	-4.53076E-001	-1.86100E-004	0.00000E+000	-4.52000E-001	-1.12927E-003	10	..........a	-327.74
	959	0.24	-4.59742E-001	-2.10830E-004	0.00000E+000	-4.59000E-001	-7.79272E-004	10	..........a	-327.74
	966	0.24175	-4.67142E-001	-2.31551E-004	0.00000E+000	-4.66000E-001	-1.42927E-003	10	..........a	-327.74
	973	0.2435	-4.73942E-001	-2.57618E-004	0.00000E+000	-4.73000E-001	-6.29272E-004	10	..........a	-327.74
	980	0.24525	-4.81076E-001	-2.76667E-004	0.00000E+000	-4.80000E-001	-1.02927E-003	10	..........a	-327.74
	987	0.247	-4.88109E-001	-2.97722E-004	0.00000E+000	-4.87000E-001	-1.12927E-003	10	..........a	-327.74
	994	0.24875	-4.94876E-001	-3.20782E-004	0.00000E+000	-4.94000E-001	-9.29272E-004	10	..........a	-327.74
	1001	0.2505	-5.02009E-001	-3.45512E-004	0.00000E+000	-5.01000E-001	-1.07927E-003	10	..........a	-327.74
	1008	0.25225	-5.08976E-001	-3.71245E-004	0.00000E+000	-5.08000E-001	-9.29272E-004	10	..........a	-327.74
	1015	0.254	-5.15709E-001	-4.01323E-004	0.00000E+000	-5.15000E-001	-7.79272E-004	10	..........a	-327.74
	1022	0.25575	-5.23009E-001	-4.33406E-004	0.00000E+000	-5.22000E-001	-1.07927E-003	10	..........a	-327.74
	1029	0.2575	-5.29909E-001	-4.79526E-004	0.00000E+000	-5.29000E-001	-6.79272E-004	10	..........a	-327.74
	1036	0.25925	-5.36609E-001	-5.28987E-004	0.00000E+000	-5.36000E-001	-5.79272E-004	10	..........a	-327.74
	1043	0.261	-5.43976E-001	-5.81790E-004	0.00000E+000	-5.43000E-001	-1.02927E-003	10	..........a	-327.74
	1050	0.26275	-5.50742E-001	-6.45288E-004	0.00000E+000	-5.50000E-001	-3.29272E-004	10	..........a	-327.74
	1057	0.2645	-5.57709E-001	-7.09788E-004	0.00000E+000	-5.57000E-001	-4.79272E-004	10	..........a	-327.74
	1064	0.26625	-5.64909E-001	-7.68941E-004	0.00000E+000	-5.64000E-001	-7.79272E-004	10	..........a	-327.74
	1071	0.268	-5.71876E-001	-8.30099E-004	0.00000E+000	-5.71000E-001	-7.79272E-004	10	..........a	-327.74
	1078	0.26975	-5.78742E-001	-8.84574E-004	0.00000E+000	-5.78000E-001	-7.79272E-004	10	..........a	-327.74
	1085	0.2715	-5.85876E-001	-9.30025E-004	0.00000E+000	-5.85000E-001	-9.29272E-004	10	..........a	-327.74
	1092	0.27325	-5.93076E-001	-9.66786E-004	0.00000E+000	-5.92000E-001	-1.12927E-003	10	..........a	-327.74
	1099	0.275	-5.99642E-001	-9.95861E-004	0.00000E+000	-5.99000E-001	-5.79272E-004	10	..........a	-327.74
	1106	0.27675	-6.06776E-001	-1.01257E-003	0.00000E+000	-6.06000E-001	-8.79272E-004	10	..........a	-327.74
	1113	0.2785	-6.13876E-001	-1.02059E-003	0.00000E+000	-6.13000E-001	-1.32927E-003	10	..........a	-327.74
	1120	0.28025	-6.20609E-001	-1.02193E-003	0.00000E+000	-6.20000E-001	-3.29272E-004	10	..........a	-327.74
	1127	0.282	-6.27709E-001	-1.02093E-003	0.00000E+000	-6.27000E-001	-8.29272E-004	10	..........a	-327.74
	1134	0.28375	-6.34709E-001	-1.00522E-003	0.00000E+000	-6.34000E-001	-6.29272E-004	10	..........a	-327.74
	1141	0.2855	-6.41776E-001	-9.86838E-004	0.00000E+000	-6.41000E-001	-9.29272E-004	10	..........a	-327.74
	1148	0.28725	-6.48676E-001	-9.71799E-004	0.00000E+000	-6.48000E-001	-6.29272E-004	10	..........a	-327.74
	1155	0.289	-6.55876E-001	-9.52082E-004	0.00000E+000	-6.55000E-001	-1.17927E-003	10	..........a	-327.74
	1162	0.29075	-6.62709E-001	-9.35372E-004	0.00000E+000	-6.62000E-001	-8.29272E-004	10	..........a	-327.74
	1169	0.2925	-6.69809E-001	-9.09304E-004	0.00000E+000	-6.69000E-001	-9.29272E-004	10	..........a	-327.74
	1176	0.29425	-6.76842E-001	-8.90589E-004	0.00000E+000	-6.76000E-001	-7.29272E-004	10	..........a	-327.74
	1183	0.296	-6.83709E-001	-8.73879E-004	0.00000E+000	-6.83000E-001	-5.29272E-004	10	..........a	-327.74
	1190	0.29775	-6.90776E-001	-8.54496E-004	0.00000E+000	-6.90000E-001	-5.29272E-004	10	..........a	-327.74
	1197	0.2995	-6.97676E-001	-8.36115E-004	0.00000E+000	-6.97000E-001	-4.79272E-004	10	..........a	-327.74
	1204	0.30125	-7.04642E-001	-8.19739E-004	0.00000E+000	-7.04000E-001	-7.29272E-004	10	..........a	-327.74
	1211	0.303	-7.11842E-001	-8.02361E-004	0.00000E+000	-7.11000E-001	-9.79272E-004	10	..........a	-327.74
	1218	0.30475	-7.18709E-001	-7.87990E-004	0.00000E+000	-7.18000E-001	-5.29272E-004	10	..........a	-327.74
	1225	0.3065	-7.26009E-001	-7.67604E-004	0.00000E+000	-7.25000E-001	-1.22927E-003	10	..........a	-327.74
	1232	0.30825	-7.32809E-001	-7.57244E-004	0.00000E+000	-7.32000E-001	-9.79272E-004	10	..........a	-327.74
	1239	0.31	-7.39509E-001	-7.46216E-004	0.00000E+000	-7.39000E-001	-3.79272E-004	10	..........a	-327.74
	1246	0.31175	-7.46809E-001	-7.34184E-004	0.00000E+000	-7.46000E-001	-8.79272E-004	10	..........a	-327.74
	1253	0.3135	-7.53809E-001	-7.23156E-004	0.00000E+000	-7.53000E-001	-3.79272E-004	10	..........a	-327.74
	1260	0.31525	-7.60676E-001	-7.11793E-004	0.00000E+000	-7.60000E-001	-2.29272E-004	10	..........a	-327.74
	1267	0.317	-7.67676E-001	-7.01099E-004	0.00000E+000	-7.67000E-001	-4.79272E-004	10	..........a	-327.74
	1274	0.31875	-7.74709E-001	-6.88734E-004	0.00000E+000	-7.74000E-001	-5.29272E-004	10	..........a	-327.74
	1281	0.3205	-7.81742E-001	-6.76702E-004	0.00000E+000	-7.81000E-001	-6.79272E-004	10	..........a	-327.74
	1288	0.32225	-7.88576E-001	-6.67345E-004	0.00000E+000	-7.88000E-001	-6.29272E-004	10	..........a	-327.74
	1295	0.324	-7.95642E-001	-6.60661E-004	0.00000E+000	-7.95000E-001	-8.79272E-004	10	..........a	-327.74
	1302	0.32575	-8.02709E-001	-6.51972E-004	0.00000E+000	-8.02000E-001	-6.79272E-004	10	..........a	-327.74
	1309	0.3275	-8.09676E-001	-6.41277E-004	0.00000E+000	-8.09000E-001	-5.29272E-004	10	..........a	-327.74
	1316	0.32925	-8.16642E-001	-6.31920E-004	0.00000E+000	-8.16000E-001	-7.29272E-004	10	..........a	-327.74
	1323	0.331	-8.23909E-001	-6.20557E-004	0.00000E+000	-8.23000E-001	-1.12927E-003	10	..........a	-327.74
	1330	0.33275	-8.30809E-001	-6.16881E-004	0.00000E+000	-8.30000E-001	-8.79272E-004	10	..........a	-327.74
	1337	0.3345	-8.37509E-001	-6.10197E-004	0.00000E+000	-8.37000E-001	-3.29272E-004	10	..........a	-327.74
	1344	0.33625	-8.44609E-001	-6.01508E-004	0.00000E+000	-8.44000E-001	-9.29272E-004	10	..........a	-327.74
	1351	0.338	-8.51676E-001	-5.95158E-004	0.00000E+000	-8.51000E-001	-3.29272E-004	10	..........a	-327.74
	1358	0.33975	-8.58576E-001	-5.90145E-004	0.00000E+000	-8.58000E-001	-6.79272E-004	10	..........a	-327.74
	1365	0.3415	-8.65809E-001	-5.82124E-004	0.00000E+000	-8.65000E-001	-1.17927E-003	10	..........a	-327.74
	1372	0.34325	-8.72609E-001	-5.79117E-004	0.00000E+000	-8.72000E-001	-7.79272E-004	10	..........a	-327.74
	1379	0.345	-8.79576E-001	-5.70093E-004	0.00000E+000	-8.79000E-001	-5.29272E-004	10	..........a	-327.74
	1386	0.34675	-8.86576E-001	-5.65080E-004	0.00000E+000	-8.86000E-001	-7.29272E-004	10	..........a	-327.74
	1393	0.3485	-8.93842E-001	-5.57060E-004	0.00000E+000	-8.93000E-001	-9.79272E-004	10	..........a	-327.74
	1400	0.35025	-9.00642E-001	-5.55723E-004	0.00000E+000	-9.00000E-001	-5.79272E-004	10	..........a	-327.74
	1407	0.352	-9.07576E-001	-5.46699E-004	0.00000E+000	-9.07000E-001	-9.29272E-004	10	..........a	-327.74
	1414	0.35375	-9.14709E-001	-5.41018E-004	0.00000E+000	-9.14000E-001	-1.02927E-003	10	..........a	-327.74
	1421	0.3555	-9.21642E-001	-5.39013E-004	0.00000E+000	-9.21000E-001	-5.29272E-004	10	..........a	-327.74
	1428	0.35725	-9.28609E-001	-5.35003E-004	0.00000E+000	-9.28000E-001	-6.79272E-004	10	..........a	-327.74
	1435	0.359	-9.35676E-001	-5.29655E-004	0.00000E+000	-9.35000E-001	-8.79272E-004	10	..........a	-327.74
	1442	0.36075	-9.42642E-001	-5.24642E-004	0.00000E+000	-9.42000E-001	-4.79272E-004	10	..........a	-327.74
	1449	0.3625	-9.49509E-001	-5.22303E-004	0.00000E+000	-9.49000E-001	-3.79272E-004	10	..........a	-327.74
	1456	0.36425	-9.56542E-001	-5.15953E-004	0.00000E+000	-9.56000E-001	-7.29272E-004	10	..........a	-327.74
	1463	0.366	-9.63776E-001	-5.10272E-004	0.00000E+000	-9.63000E-001	-1.02927E-003	10	..........a	-327.74
	1470	0.36775	-9.70776E-001	-5.06261E-004	0.00000E+000	-9.70000E-001	-1.12927E-003	10	..........a	-327.74
	1477	0.3695	-9.77676E-001	-5.04590E-004	0.00000E+000	-9.77000E-001	-6.29272E-004	10	..........a	-327.74
	1484	0.37125	-9.84476E-001	-5.01583E-004	0.00000E+000	-9.84000E-001	-8.29272E-004	10	..........a	-327.74
	1491	0.373	-9.91709E-001	-4.96570E-004	0.00000E+000	-9.91000E-001	-1.22927E-003	10	..........a	-327.74
	1498	0.37475	-9.98509E-001	-4.93896E-004	0.00000E+000	-9.98000E-001	-6.79272E-004	10	..........a	-327.74
	1505	0.3765	-9.95842E-001	-4.51119E-004	0.00000E+000	-9.95000E-001	-1.17927E-003	10	..........a	-327.74
	1512	0.37825	-9.88576E-001	-4.27391E-004	0.00000E+000	-9.88000E-001	-6.79272E-004	10	..........a	-327.74
	1519	0.38	-9.81576E-001	-4.08341E-004	0.00000E+000	-9.81000E-001	-5.79272E-004	10	..........a	-327.74
	1526	0.38175	-9.74876E-001	-3.92968E-004	0.00000E+000	-9.74000E-001	-1.17927E-003	10	..........a	-327.74
	1533	0.3835	-9.67509E-001	-3.82942E-004	0.00000E+000	-9.67000E-001	-5.29272E-004	10	..........a	-327.74
	1540	0.38525	-9.60642E-001	-3.71580E-004	0.00000E+000	-9.60000E-001	-8.29272E-004	10	..........a	-327.74
	1547	0.387	-9.53476E-001	-3.61888E-004	0.00000E+000	-9.53000E-001	-4.29272E-004	10	..........a	-327.74
	1554	0.38875	-9.46242E-001	-3.53533E-004	0.00000E+000	-9.46000E-001	-1.79272E-004	10	..........a	-327.74
	1561	0.3905	-9.39676E-001	-3.46181E-004	0.00000E+000	-9.39000E-001	-3.29272E-004	10	..........a	-327.74
	1568	0.39225	-9.32742E-001	-3.37157E-004	0.00000E+000	-9.32000E-001	-8.29272E-004	10	..........a	-327.74
	1575	0.394	-9.25642E-001	-3.32813E-004	0.00000E+000	-9.25000E-001	-9.29272E-004	10	..........a	-327.74
	1582	0.39575	-9.18409E-001	-3.24792E-004	0.00000E+000	-9.18000E-001	-2.29272E-004	10	..........a	-327.74
	1589	0.3975	-9.11676E-001	-3.20782E-004	0.00000E+000	-9.11000E-001	-9.79272E-004	10	..........a	-327.74
	1596	0.39925	-9.04442E-001	-3.15434E-004	0.00000E+000	-9.04000E-001	-4.79272E-004	10	..........a	-327.74
	1603	0.401	-8.97742E-001	-3.09753E-004	0.00000E+000	-8.97000E-001	-1.07927E-003	10	..........a	-327.74
	1610	0.40275	-8.90676E-001	-3.07079E-004	0.00000E+000	-8.90000E-001	-4.79272E-004	10	..........a	-327.74
	1617	0.4045	-8.83676E-001	-3.02735E-004	0.00000E+000	-8.83000E-001	-6.29272E-004	10	..........a	-327.74
	1624	0.40625	-8.76842E-001	-2.94714E-004	0.00000E+000	-8.76000E-001	-1.22927E-003	10	..........a	-327.74
	1631	0.408	-8.69809E-001	-2.90704E-004	0.00000E+000	-8.69000E-001	-1.07927E-003	10	..........a	-327.74
	1638	0.40975	-8.62509E-001	-2.91706E-004	0.00000E+000	-8.62000E-001	-2.79272E-004	10	..........a	-327.74
	1645	0.4115	-8.55609E-001	-2.86359E-004	0.00000E+000	-8.55000E-001	-4.29272E-004	10	..........a	-327.74
	1652	0.41325	-8.48809E-001	-2.80009E-004	0.00000E+000	-8.48000E-001	-8.29272E-004	10	..........a	-327.74
	1659	0.415	-8.41442E-001	-2.78004E-004	0.00000E+000	-8.41000E-001	-5.79272E-004	10	..........a	-327.74
	1666	0.41675	-8.34476E-001	-2.77336E-004	0.00000E+000	-8.34000E-001	-5.29272E-004	10	..........a	-327.74
	1673	0.4185	-8.27742E-001	-2.70318E-004	0.00000E+000	-8.27000E-001	-9.29272E-004	10	..........a	-327.74
	1680	0.42025	-8.20676E-001	-2.69315E-004	0.00000E+000	-8.20000E-001	-7.29272E-004	10	..........a	-327.74
	1687	0.422	-8.13942E-001	-2.65973E-004	0.00000E+000	-8.13000E-001	-1.02927E-003	10	..........a	-327.74
	1694	0.42375	-8.06742E-001	-2.61294E-004	0.00000E+000	-8.06000E-001	-7.79272E-004	10	..........a	-327.74
	1701	0.4255	-7.99876E-001	-2.58287E-004	0.00000E+000	-7.99000E-001	-1.02927E-003	10	..........a	-327.74
	1708	0.42725	-7.92642E-001	-2.56950E-004	0.00000E+000	-7.92000E-001	-9.29272E-004	10	..........a	-327.74
	1715	0.429	-7.85942E-001	-2.52605E-004	0.00000E+000	-7.85000E-001	-8.29272E-004	10	..........a	-327.74
	1722	0.43075	-7.78776E-001	-2.49263E-004	0.00000E+000	-7.78000E-001	-4.79272E-004	10	..........a	-327.74
	1729	0.4325	-7.71709E-001	-2.41911E-004	0.00000E+000	-7.71000E-001	-1.22927E-003	10	..........a	-327.74
	1736	0.43425	-7.64742E-001	-2.40908E-004	0.00000E+000	-7.64000E-001	-8.79272E-004	10	..........a	-327.74
	1743	0.436	-7.57776E-001	-2.38569E-004	0.00000E+000	-7.57000E-001	-9.79272E-004	10	..........a	-327.74
	1750	0.43775	-7.50742E-001	-2.34559E-004	0.00000E+000	-7.50000E-001	-1.22927E-003	10	..........a	-327.74
	1757	0.4395	-7.43842E-001	-2.29880E-004	0.00000E+000	-7.43000E-001	-8.29272E-004	10	..........a	-327.74
	1764	0.44125	-7.36909E-001	-2.25201E-004	0.00000E+000	-7.36000E-001	-9.79272E-004	10	..........a	-327.74
	1771	0.443	-7.29642E-001	-2.24867E-004	0.00000E+000	-7.29000E-001	-6.29272E-004	10	..........a	-327.74
	1778	0.44475	-7.22676E-001	-2.22527E-004	0.00000E+000	-7.22000E-001	-5.79272E-004	10	..........a	-327.74
	1785	0.4465	-7.15676E-001	-2.18183E-004	0.00000E+000	-7.15000E-001	-5.79272E-004	10	..........a	-327.74
	1792	0.44825	-7.08609E-001	-2.13838E-004	0.00000E+000	-7.08000E-001	-6.79272E-004	10	..........a	-327.74
	1799	0.45	-7.01942E-001	-2.06820E-004	0.00000E+000	-7.01000E-001	-8.79272E-004	10	..........a	-327.74
	1806	0.45175	-6.94809E-001	-2.04146E-004	0.00000E+000	-6.94000E-001	-1.12927E-003	10	..........a	-327.74
	1813	0.4535	-6.87709E-001	-1.99802E-004	0.00000E+000	-6.87000E-001	-6.29272E-004	10	..........a	-327.74
	1820	0.45525	-6.81009E-001	-1.90110E-004	0.00000E+000	-6.80000E-001	-1.12927E-003	10	..........a	-327.74
	1827	0.457	-6.73842E-001	-1.84429E-004	0.00000E+000	-6.73000E-001	-1.07927E-003	10	..........a	-327.74
	1834	0.45875	-6.66709E-001	-1.78079E-004	0.00000E+000	-6.66000E-001	-6.29272E-004	10	..........a	-327.74
	1841	0.4605	-6.59642E-001	-1.73400E-004	0.00000E+000	-6.59000E-001	-4.29272E-004	10	..........a	-327.74
	1848	0.46225	-6.52842E-001	-1.61703E-004	0.00000E+000	-6.52000E-001	-9.29272E-004	10	..........a	-327.74
	1855	0.464	-6.45742E-001	-1.54351E-004	0.00000E+000	-6.45000E-001	-7.79272E-004	10	..........a	-327.74
	1862	0.46575	-6.38842E-001	-1.43657E-004	0.00000E+000	-6.38000E-001	-8.79272E-004	10	..........a	-327.74
	1869	0.4675	-6.31609E-001	-1.31960E-004	0.00000E+000	-6.31000E-001	-5.79272E-004	10	..........a	-327.74
	1876	0.46925	-6.24609E-001	-1.17923E-004	0.00000E+000	-6.24000E-001	-8.79272E-004	10	..........a	-327.74
	1883	0.471	-6.17842E-001	-1.07897E-004	0.00000E+000	-6.17000E-001	-9.79272E-004	10	..........a	-327.74
	1890	0.47275	-6.10742E-001	-8.71772E-005	0.00000E+000	-6.10000E-001	-5.79272E-004	10	..........a	-327.74
	1897	0.4745	-6.03709E-001	-6.91305E-005	0.00000E+000	-6.03000E-001	-3.29272E-004	10	..........a	-327.74
	1904	0.47625	-5.96609E-001	-5.30890E-005	0.00000E+000	-5.96000E-001	-5.29272E-004	10	..........a	-327.74
	1911	0.478	-5.89842E-001	-2.96951E-005	0.00000E+000	-5.89000E-001	-7.79272E-004	10	..........a	-327.74
	1918	0.47975	-5.82676E-001	-9.97745E-006	0.00000E+000	-5.82000E-001	-3.29272E-004	10	..........a	-327.74
	1925	0.4815	-5.75909E-001	1.84294E-005	0.00000E+000	-5.75000E-001	-1.02927E-003	10	..........a	-327.74
	1932	0.48325	-5.68976E-001	3.74787E-005	0.00000E+000	-5.68000E-001	-6.79272E-004	10	..........a	-327.74
	1939	0.485	-5.61809E-001	6.35461E-005	0.00000E+000	-5.61000E-001	-5.29272E-004	10	..........a	-327.74
	1946	0.48675	-5.54909E-001	9.06162E-005	0.00000E+000	-5.54000E-001	-8.29272E-004	10	..........a	-327.74
	1953	0.4885	-5.47742E-001	1.12005E-004	0.00000E+000	-5.47000E-001	-7.29272E-004	10	..........a	-327.74
	1960	0.49025	-5.40909E-001	1.36401E-004	0.00000E+000	-5.40000E-001	-7.29272E-004	10	..........a	-327.74
	1967	0.492	-5.33842E-001	1.59461E-004	0.00000E+000	-5.33000E-001	-9.79272E-004	10	..........a	-327.74
	1974	0.49375	-5.27009E-001	1.85863E-004	0.00000E+000	-5.26000E-001	-1.12927E-003	10	..........a	-327.74
	1981	0.4955	-5.19776E-001	2.09591E-004	0.00000E+000	-5.19000E-001	-6.79272E-004	10	..........a	-327.74
	1988	0.49725	-5.12742E-001	2.29977E-004	0.00000E+000	-5.12000E-001	-4.79272E-004	10	..........a	-327.74
	1995	0.499	-5.05876E-001	2.53036E-004	0.00000E+000	-5.05000E-001	-9.29272E-004	10	..........a	-327.74
	2002	0.50075	-4.98976E-001	2.80106E-004	0.00000E+000	-4.98000E-001	-1.02927E-003	10	..........a	-327.74
	2009	0.5025	-4.91876E-001	2.99156E-004	0.00000E+000	-4.91000E-001	-7.29272E-004	10	..........a	-327.74
	2016	0.50425	-4.84642E-001	3.22215E-004	0.00000E+000	-4.84000E-001	-1.29272E-004	10	..........a	-327.74
	2023	0.506	-4.77942E-001	3.45943E-004	0.00000E+000	-4.77000E-001	-8.29272E-004	10	..........a	-327.74
	2030	0.50775	-4.70776E-001	3.62988E-004	0.00000E+000	-4.70000E-001	-6.29272E-004	10	..........a	-327.74
	2037	0.5095	-4.63909E-001	3.84376E-004	0.00000E+000	-4.63000E-001	-7.79272E-004	10	..........a	-327.74
	2044	0.51125	-4.56942E-001	3.99749E-004	0.00000E+000	-4.56000E-001	-6.79272E-004	10	..........a	-327.74
	2051	0.513	-4.49876E-001	4.15122E-004	0.00000E+000	-4.49000E-001	-6.29272E-004	10	..........a	-327.74
	2058	0.51475	-4.42976E-001	4.26151E-004	0.00000E+000	-4.42000E-001	-8.79272E-004	10	..........a	-327.74
	2065	0.5165	-4.35776E-001	4.33169E-004	0.00000E+000	-4.35000E-001	-5.29272E-004	10	..........a	-327.74
	2072	0.51825	-4.28842E-001	4.33169E-004	0.00000E+000	-4.28000E-001	-3.29272E-004	10	..........a	-327.74
	2079	0.52	-4.22042E-001	4.39185E-004	0.00000E+000	-4.21000E-001	-8.79272E-004	10	..........a	-327.74
	2086	0.52175	-4.14942E-001	4.37179E-004	0.00000E+000	-4.14000E-001	-6.29272E-004	10	..........a	-327.74
	2093	0.5235	-4.07709E-001	4.32835E-004	0.00000E+000	-4.07000E-001	-7.29272E-004	10	..........a	-327.74
	2100	0.52525	-4.01042E-001	4.31832E-004	0.00000E+000	-4.00000E-001	-9.29272E-004	10	..........a	-327.74
	2107	0.527	-3.93842E-001	4.24814E-004	0.00000E+000	-3.93000E-001	-3.29272E-004	10	..........a	-327.74
	2114	0.52875	-3.86776E-001	4.21806E-004	0.00000E+000	-3.86000E-001	-8.29272E-004	10	..........a	-327.74
	2121	0.5305	-3.79942E-001	4.18130E-004	0.00000E+000	-3.79000E-001	-1.07927E-003	10	..........a	-327.74
	2128	0.53225	-3.73042E-001	4.10109E-004	0.00000E+000	-3.72000E-001	-7.29272E-004	10	..........a	-327.74
	2135	0.534	-3.66209E-001	4.08438E-004	0.00000E+000	-3.65000E-001	-1.12927E-003	10	..........a	-327.74
	2142	0.53575	-3.58776E-001	4.01420E-004	0.00000E+000	-3.58000E-001	-4.29272E-004	10	..........a	-327.74
	2149	0.5375	-3.52009E-001	3.99081E-004	0.00000E+000	-3.51000E-001	-1.02927E-003	10	..........a	-327.74
	2156	0.53925	-3.45042E-001	3.95405E-004	0.00000E+000	-3.44000E-001	-1.17927E-003	10	..........a	-327.74
	2163	0.541	-3.37809E-001	3.88052E-004	0.00000E+000	-3.37000E-001	-4.29272E-004	10	..........a	-327.74
	2170	0.54275	-3.31009E-001	3.86716E-004	0.00000E+000	-3.30000E-001	-1.22927E-003	10	..........a	-327.74
	2177	0.5445	-3.24076E-001	3.85713E-004	0.00000E+000	-3.23000E-001	-8.79272E-004	10	..........a	-327.74
	2184	0.54625	-3.16676E-001	3.75687E-004	0.00000E+000	-3.16000E-001	-1.79272E-004	10	..........a	-327.74
	2191	0.548	-3.10009E-001	3.79029E-004	0.00000E+000	-3.09000E-001	-5.29272E-004	10	..........a	-327.74
	2198	0.54975	-3.02776E-001	3.72679E-004	0.00000E+000	-3.02000E-001	-7.29272E-004	10	..........a	-327.74
	2205	0.5515	-2.95709E-001	3.68669E-004	0.00000E+000	-2.95000E-001	-1.79272E-004	10	..........a	-327.74
	2212	0.55325	-2.88876E-001	3.69337E-004	0.00000E+000	-2.88000E-001	-9.29272E-004	10	..........a	-327.74
	2219	0.555	-2.81876E-001	3.64658E-004	0.00000E+000	-2.81000E-001	-1.02927E-003	10	..........a	-327.74
	2226	0.55675	-2.75142E-001	3.65995E-004	0.00000E+000	-2.74000E-001	-1.12927E-003	10	..........a	-327.74
	2233	0.5585	-2.68042E-001	3.62988E-004	0.00000E+000	-2.67000E-001	-8.29272E-004	10	..........a	-327.74
	2240	0.56025	-2.61209E-001	3.58309E-004	0.00000E+000	-2.60000E-001	-1.27927E-003	10	..........a	-327.74
	2247	0.562	-2.53909E-001	3.56972E-004	0.00000E+000	-2.53000E-001	-1.12927E-003	10	..........a	-327.74
	2254	0.56375	-2.46742E-001	3.53296E-004	0.00000E+000	-2.46000E-001	-4.79272E-004	10	..........a	-327.74
	2261	0.5655	-2.39909E-001	3.49285E-004	0.00000E+000	-2.39000E-001	-6.29272E-004	10	..........a	-327.74
	2268	0.56725	-2.32742E-001	3.44941E-004	0.00000E+000	-2.32000E-001	-3.29272E-004	10	..........a	-327.74
	2275	0.569	-2.25842E-001	3.46278E-004	0.00000E+000	-2.25000E-001	-7.29272E-004	10	..........a	-327.74
	2282	0.57075	-2.19009E-001	3.41933E-004	0.00000E+000	-2.18000E-001	-6.29272E-004	10	..........a	-327.74
	2289	0.5725	-2.11909E-001	3.37588E-004	0.00000E+000	-2.11000E-001	-7.29272E-004	10	..........a	-327.74
	2296	0.57425	-2.04809E-001	3.34246E-004	0.00000E+000	-2.04000E-001	-8.29272E-004	10	..........a	-327.74
	2303	0.576	-1.98009E-001	3.28231E-004	0.00000E+000	-1.97000E-001	-5.29272E-004	10	..........a	-327.74
	2310	0.57775	-1.90909E-001	3.24555E-004	0.00000E+000	-1.90000E-001	-7.29272E-004	10	..........a	-327.74
	2317	0.5795	-1.84009E-001	3.21881E-004	0.00000E+000	-1.83000E-001	-7.79272E-004	10	..........a	-327.74
	2324	0.58125	-1.77009E-001	3.16534E-004	0.00000E+000	-1.76000E-001	-7.29272E-004	10	..........a	-327.74
	2331	0.583	-1.70042E-001	3.12524E-004	0.00000E+000	-1.69000E-001	-1.02927E-003	10	..........a	-327.74
	2338	0.58475	-1.62976E-001	3.08179E-004	0.00000E+000	-1.62000E-001	-6.79272E-004	10	..........a	-327.74
	2345	0.5865	-1.55876E-001	3.02498E-004	0.00000E+000	-1.55000E-001	-5.29272E-004	10	..........a	-327.74
	2352	0.58825	-1.49042E-001	2.99156E-004	0.00000E+000	-1.48000E-001	-8.29272E-004	10	..........a	-327.74
	2359	0.59	-1.41976E-001	2.95479E-004	0.00000E+000	-1.41000E-001	-6.79272E-004	10	..........a	-327.74
	2366	0.59175	-1.35009E-001	2.93474E-004	0.00000E+000	-1.34000E-001	-8.79272E-004	10	..........a	-327.74
	2373	0.5935	-1.27942E-001	2.87459E-004	0.00000E+000	-1.27000E-001	-9.29272E-004	10	..........a	-327.74
	2380	0.59525	-1.21009E-001	2.83114E-004	0.00000E+000	-1.20000E-001	-1.02927E-003	10	..........a	-327.74
	2387	0.597	-1.13942E-001	2.83783E-004	0.00000E+000	-1.13000E-001	-9.79272E-004	10	..........a	-327.74
	2394	0.59875	-1.06876E-001	2.75428E-004	0.00000E+000	-1.06000E-001	-4.29272E-004	10	..........a	-327.74
	2401	0.6005	-1.00009E-001	2.73422E-004	0.00000E+000	-9.90000E-002	-7.29272E-004	10	..........a	-327.74
	2408	0.60225	-9.29757E-002	2.70080E-004	0.00000E+000	-9.20000E-002	-7.29272E-004	10	..........a	-327.74
	2415	0.604	-8.58757E-002	2.65736E-004	0.00000E+000	-8.50000E-002	-4.79272E-004	10	..........a	-327.74
	2422	0.60575	-7.90757E-002	2.64065E-004	0.00000E+000	-7.80000E-002	-8.29272E-004	10	..........a	-327.74
	2429	0.6075	-7.22090E-002	2.63062E-004	0.00000E+000	-7.10000E-002	-1.07927E-003	10	..........a	-327.74
	2436	0.60925	-6.50090E-002	2.57047E-004	0.00000E+000	-6.40000E-002	-6.29272E-004	10	..........a	-327.74
	2443	0.611	-5.82423E-002	2.54039E-004	0.00000E+000	-5.70000E-002	-1.17927E-003	10	..........a	-327.74
	2450	0.61275	-5.10090E-002	2.52034E-004	0.00000E+000	-5.00000E-002	-7.29272E-004	10	..........a	-327.74
	2457	0.6145	-4.41757E-002	2.47689E-004	0.00000E+000	-4.30000E-002	-7.29272E-004	10	..........a	-327.74
	2464	0.61625	-3.69757E-002	2.47021E-004	0.00000E+000	-3.60000E-002	-7.29272E-004	10	..........a	-327.74
	2471	0.618	-3.01423E-002	2.44681E-004	0.00000E+000	-2.90000E-002	-1.07927E-003	10	..........a	-327.74
	2478	0.61975	-2.29423E-002	2.40671E-004	0.00000E+000	-2.20000E-002	-2.79272E-004	10	..........a	-327.74
	2485	0.6215	-1.60423E-002	2.42342E-004	0.00000E+000	-1.50000E-002	-9.29272E-004	10	..........a	-327.74
	2492	0.62325	-8.90900E-003	2.41005E-004	0.00000E+000	-8.00000E-003	-5.79272E-004	10	..........a	-327.74
	2499	0.625	-2.00900E-003	2.40003E-004	0.00000E+000	-1.00000E-003	-8.29272E-004	10	..........a	-327.74
	2506	0.62675	4.85767E-003	2.40003E-004	0.00000E+000	5.99998E-003	-7.79272E-004	10	..........a	-327.74
	2513	0.6285	1.19577E-002	2.37663E-004	0.00000E+000	1.30000E-002	-7.79272E-004	10	..........a	-327.74
	2520	0.63025	1.90243E-002	2.36326E-004	0.00000E+000	2.00000E-002	-7.79272E-004	10	..........a	-327.74
	2527	0.632	2.56910E-002	2.37329E-004	0.00000E+000	2.70000E-002	-8.79272E-004	10	..........a	-327.74
	2534	0.63375	3.29577E-002	2.32316E-004	0.00000E+000	3.40000E-002	-5.79272E-004	10	..........a	-327.74
	2541	0.6355	3.98910E-002	2.33653E-004	0.00000E+000	4.10000E-002	-7.29272E-004	10	..........a	-327.74
	2548	0.63725	4.69243E-002	2.33319E-004	0.00000E+000	4.80000E-002	-9.29272E-004	10	..........a	-327.74
	2555	0.639	5.39577E-002	2.32650E-004	0.00000E+000	5.50000E-002	-7.29272E-004	10	..........a	-327.74
	2562	0.64075	6.08910E-002	2.33319E-004	0.00000E+000	6.20000E-002	-1.12927E-003	10	..........a	-327.74
	2569	0.6425	6.78243E-002	2.32316E-004	0.00000E+000	6.90000E-002	-1.02927E-003	10	..........a	-327.74
	2576	0.64425	7.50243E-002	2.33987E-004	0.00000E+000	7.60000E-002	-6.79272E-004	10	..........a	-327.74
	2583	0.646	8.15910E-002	2.30979E-004	0.00000E+000	8.30000E-002	-9.29272E-004	10	..........a	-327.74
	2590	0.64775	8.89243E-002	2.31314E-004	0.00000E+000	9.00000E-002	-6.79272E-004	10	..........a	-327.74
	2597	0.6495	9.60577E-002	2.31982E-004	0.00000E+000	9.70000E-002	-5.79272E-004	10	..........a	-327.74
	2604	0.65125	1.02791E-001	2.35324E-004	0.00000E+000	1.04000E-001	-8.29272E-004	10	..........a	-327.74
	2611	0.653	1.09858E-001	2.34321E-004	0.00000E+000	1.11000E-001	-1.02927E-003	10	..........a	-327.74
	2618	0.65475	1.16891E-001	2.29308E-004	0.00000E+000	1.18000E-001	-5.29272E-004	10	..........a	-327.74
	2625	0.6565	1.23858E-001	2.36995E-004	0.00000E+000	1.25000E-001	-1.12927E-003	10	..........a	-327.74
	2632	0.65825	1.30724E-001	2.35992E-004	0.00000E+000	1.32000E-001	-1.22927E-003	10	..........a	-327.74
	2639	0.66	1.38058E-001	2.30645E-004	0.00000E+000	1.39000E-001	-2.29272E-004	10	..........a	-327.74
	2646	0.66175	1.44958E-001	2.37997E-004	0.00000E+000	1.46000E-001	-4.79272E-004	10	..........a	-327.74
	2653	0.6635	1.51824E-001	2.33987E-004	0.00000E+000	1.53000E-001	-9.29272E-004	10	..........a	-327.74
	2660	0.66525	1.58891E-001	2.40337E-004	0.00000E+000	1.60000E-001	-6.29272E-004	10	..........a	-327.74
	2667	0.667	1.65791E-001	2.40337E-004	0.00000E+000	1.67000E-001	-9.79272E-004	10	..........a	-327.74
	2674	0.66875	1.72924E-001	2.39000E-004	0.00000E+000	1.74000E-001	-8.79272E-004	10	..........a	-327.74
	2681	0.6705	1.79891E-001	2.43679E-004	0.00000E+000	1.81000E-001	-9.79272E-004	10	..........a	-327.74
	2688	0.67225	1.87091E-001	2.39000E-004	0.00000E+000	1.88000E-001	-5.79272E-004	10	..........a	-327.74
	2695	0.674	1.93891E-001	2.40671E-004	0.00000E+000	1.95000E-001	-7.29272E-004	10	..........a	-327.74
	2702	0.67575	2.00824E-001	2.42342E-004	0.00000E+000	2.02000E-001	-8.29272E-004	10	..........a	-327.74
	2709	0.6775	2.07924E-001	2.34321E-004	0.00000E+000	2.09000E-001	-2.29272E-004	10	..........a	-327.74
	2716	0.67925	2.14858E-001	2.39000E-004	0.00000E+000	2.16000E-001	-9.29272E-004	10	..........a	-327.74
	2723	0.681	2.21958E-001	2.37663E-004	0.00000E+000	2.23000E-001	-5.79272E-004	10	..........a	-327.74
	2730	0.68275	2.28991E-001	2.36995E-004	0.00000E+000	2.30000E-001	-6.79272E-004	10	..........a	-327.74
	2737	0.6845	2.35891E-001	2.33653E-004	0.00000E+000	2.37000E-001	-8.29272E-004	10	..........a	-327.74
	2744	0.68625	2.42758E-001	2.35992E-004	0.00000E+000	2.44000E-001	-8.29272E-004	10	..........a	-327.74
	2751	0.688	2.49824E-001	2.33319E-004	0.00000E+000	2.51000E-001	-7.29272E-004	10	..........a	-327.74
	2758	0.68975	2.56624E-001	2.33987E-004	0.00000E+000	2.58000E-001	-1.12927E-003	10	..........a	-327.74
	2765	0.6915	2.63958E-001	2.29977E-004	0.00000E+000	2.65000E-001	-7.29272E-004	10	..........a	-327.74
	2772	0.69325	2.70891E-001	2.26301E-004	0.00000E+000	2.72000E-001	-9.79272E-004	10	..........a	-327.74
	2779	0.695	2.77658E-001	2.24295E-004	0.00000E+000	2.79000E-001	-1.07927E-003	10	..........a	-327.74
	2786	0.69675	2.84824E-001	2.24964E-004	0.00000E+000	2.86000E-001	-6.79272E-004	10	..........a	-327.74
	2793	0.6985	2.91558E-001	2.19951E-004	0.00000E+000	2.93000E-001	-1.17927E-003	10	..........a	-327.74
	2800	0.70025	2.98858E-001	2.15940E-004	0.00000E+000	3.00000E-001	-3.79272E-004	10	..........a	-327.74
	2807	0.702	3.05758E-001	2.16609E-004	0.00000E+000	3.07000E-001	-8.29272E-004	10	..........a	-327.74
	2814	0.70375	3.12858E-001	2.11262E-004	0.00000E+000	3.14000E-001	-1.12927E-003	10	..........a	-327.74
	2821	0.7055	3.19991E-001	2.09256E-004	0.00000E+000	3.21000E-001	-3.29272E-004	10	..........a	-327.74
	2828	0.70725	3.26591E-001	2.06249E-004	0.00000E+000	3.28000E-001	-1.12927E-003	10	..........a	-327.74
	2835	0.709	3.33824E-001	2.05246E-004	0.00000E+000	3.35000E-001	-6.79272E-004	10	..........a	-327.74
	2842	0.71075	3.40658E-001	2.05246E-004	0.00000E+000	3.42000E-001	-7.29272E-004	10	..........a	-327.74
	2849	0.7125	3.47791E-001	2.00567E-004	0.00000E+000	3.49000E-001	-1.02927E-003	10	..........a	-327.74
	2856	0.71425	3.54724E-001	2.01904E-004	0.00000E+000	3.56000E-001	-1.32927E-003	10	..........a	-327.74
	2863	0.716	3.61924E-001	1.99231E-004	0.00000E+000	3.63000E-001	-6.79272E-004	10	..........a	-327.74
	2870	0.71775	3.68858E-001	1.95554E-004	0.00000E+000	3.70000E-001	-6.29272E-004	10	..........a	-327.74
	2877	0.7195	3.75958E-001	1.94218E-004	0.00000E+000	3.77000E-001	-6.29272E-004	10	..........a	-327.74
	2884	0.72125	3.82791E-001	1.92212E-004	0.00000E+000	3.84000E-001	-5.29272E-004	10	..........a	-327.74
	2891	0.723	3.89724E-001	1.91544E-004	0.00000E+000	3.91000E-001	-6.29272E-004	10	..........a	-327.74
	2898	0.72475	3.96624E-001	1.92212E-004	0.00000E+000	3.98000E-001	-1.17927E-003	10	..........a	-327.74
	2905	0.7265	4.03658E-001	1.89539E-004	0.00000E+000	4.05000E-001	-8.79272E-004	10	..........a	-327.74
	2912	0.72825	4.10691E-001	1.88202E-004	0.00000E+000	4.12000E-001	-1.02927E-003	10	..........a	-327.74
	2919	0.73	4.17791E-001	1.84526E-004	0.00000E+000	4.19000E-001	-7.29272E-004	10	..........a	-327.74
	2926	0.73175	4.24658E-001	1.85528E-004	0.00000E+000	4.26000E-001	-8.79272E-004	10	..........a	-327.74
	2933	0.7335	4.31658E-001	1.82521E-004	0.00000E+000	4.33000E-001	-1.22927E-003	10	..........a	-327.74
	2940	0.73525	4.38624E-001	1.81184E-004	0.00000E+000	4.40000E-001	-7.79272E-004	10	..........a	-327.74
	2947	0.737	4.45658E-001	1.82186E-004	0.00000E+000	4.47000E-001	-1.07927E-003	10	..........a	-327.74
	2954	0.73875	4.52758E-001	1.80850E-004	0.00000E+000	4.54000E-001	-7.29272E-004	10	..........a	-327.74
	2961	0.7405	4.59891E-001	1.79179E-004	0.00000E+000	4.61000E-001	-5.79272E-004	10	..........a	-327.74
	2968	0.74225	4.66658E-001	1.79847E-004	0.00000E+000	4.68000E-001	-9.79272E-004	10	..........a	-327.74
	2975	0.744	4.73691E-001	1.78176E-004	0.00000E+000	4.75000E-001	-1.02927E-003	10	..........a	-327.74
	2982	0.74575	4.80791E-001	1.75168E-004	0.00000E+000	4.82000E-001	-1.22927E-003	10	..........a	-327.74
	2989	0.7475	4.87658E-001	1.77842E-004	0.00000E+000	4.89000E-001	-9.29272E-004	10	..........a	-327.74
	2996	0.74925	4.94891E-001	1.75502E-004	0.00000E+000	4.96000E-001	-4.79272E-004	10	..........a	-327.74
	3000	0.75025	4.98724E-001	1.68818E-004	0.00000E+000	5.00000E-001	-7.79272E-004	10	..........a	-327.74
CURVE2	TABLE
	Pt	T	Vf	Im	Vu	Sig	Ach	IERange	Over	Temp
	#	s	V vs. Ref.	A	V	V	V	#	bits	deg C
	3001	0.7505	4.98591E-001	1.67482E-004	0.00000E+000	5.00000E-001	-1.12927E-003	10	..........a	-327.74