File: data/02-SI/Figures_S9_S11_RDE/15btmapaq-rde/1mkcl-15btmapaq-nitrogen-50mvpers.DTA
EXPLAIN
TAG	CV
TITLE	LABEL	Cyclic Voltammetry	Test &Identifier
DATE	LABEL	1/31/2023	Date
TIME	LABEL	18:15:53	Time
NOTES	NOTES	1	&Notes...

PSTAT	PSTAT	REF3000-21108	Potentiostat
VINIT	POTEN	5.00000E-001	F	Initial &E (V)
VLIMIT1	POTEN	-1.00000E+000	F	Scan Limit &1 (V)
VLIMIT2	POTEN	5.00000E-001	F	Scan Limit &2 (V)
VFINAL	POTEN	5.00000E-001	F	Final &E (V)
SCANRATE	QUANT	4.99999E+001	&Scan Rate (mV/s)
STEPSIZE	QUANT	1.00000E+000	St&ep Size (mV)
CYCLES	IQUANT	1	C&ycles (#)
IMODE	SELECTOR	1	I/E Range &Mode
IRANGE	QUANT	1.00000E+001	&Max Current (mA)
AREA	QUANT	1.00000E+000	Electrode &Area (cm^2)
ELECTRODETYPE	SELECTOR	0	Electrode Type
STRIPPING	TOGGLE	F	Used for Stripping
POLARITY	TOGGLE	F	Signal Polarity
CONDIT	TWOPARAM	F	1.50000E+001	0.00000E+000	Conditionin&g	Time(s)	E(V)
DELAY	TWOPARAM	F	5.00000E+000	0.00000E+000	Init. De&lay	Time(s)	Stab.(mV/s)
EQDELAY	QUANT	0.00000E+000	Equil. &Time (s)
IRCOMP	SELECTOR	0	IRCom&p
PFCOR	QUANT	5.00000E+001	PF Corr. (ohm)
SAMPLINGMODE	SELECTOR	1	Sampling &Mode
EOC	QUANT	0	Open Circuit (V)
PSTATMODEL	IQUANT	5	Pstat Model
PSTATSECTION	LABEL	REF3000-21108	Pstat Section
PSTATSERIALNO	LABEL	21108	Pstat Serial Number
CTRLMODE	IQUANT	1	Control Mode
ELECTROMETER	IQUANT	0	RE=0 or CS=1
IESTAB	IQUANT	2	I/E Stability
CASPEED	IQUANT	4	Control Amp Speed
CONVENTION	IQUANT	1	Current Convention
ICHRANGE	IQUANT	2	Ich Range
ICHRANGEMODE	TOGGLE	F	Ich Auto Range
ICHOFFSETENABLE	TOGGLE	F	Ich Offset Enable
ICHOFFSET	QUANT	0	Ich Offset (V)
ICHFILTER	IQUANT	2	Ich Filter
VCHRANGE	IQUANT	2	Vch Range
VCHRANGEMODE	TOGGLE	F	Vch Auto Range
VCHOFFSETENABLE	TOGGLE	F	Vch Offset Enable
VCHOFFSET	QUANT	0	Vch Offset (V)
VCHFILTER	IQUANT	2	Vch Filter
ACHRANGE	IQUANT	2	Ach Range
ACHOFFSETENABLE	TOGGLE	F	Ach Offset Enable
ACHOFFSET	QUANT	0	Ach Offset (V)
ACHFILTER	IQUANT	0	Ach Filter
IERANGELOWERLIMIT	IQUANT	2	I/E Range Lower Limit
IERANGEMODE	TOGGLE	F	I/E AutoRange
IERANGE	IQUANT	10	I/E Range
POSFEEDENABLE	TOGGLE	F	Positive Feedback IR Comp
POSFEEDRESISTANCE	QUANT	0	Positive Feedback Resistance (ohm)
ACHSELECT	IQUANT	0	Ach Select
SENSECABLEID	IQUANT	14	Sense Cable ID
PWRCABLEID	IQUANT	7	Power Cable ID
DCCALDATE	LABEL	11/9/2022	DC Calibration Date
ACCALDATE	LABEL	11/9/2022	AC Calibration Date
THERMOSELECT	IQUANT	1	Thermo Select
FRAMEWORKVERSION	LABEL	7.8.2	Framework Version
INSTRUMENTVERSION	LABEL	4.40	Instrument Version
COMPLIANCEVOLTAGE	IQUANT	0	Compliance Voltage
CURVE1	TABLE
	Pt	T	Vf	Im	Vu	Sig	Ach	IERange	Over	Temp
	#	s	V vs. Ref.	A	V	V	V	#	bits	deg C
	0	0.02	4.98828E-001	4.47284E-005	0.00000E+000	5.00000E-001	-8.50939E-004	10	..........a	-327.74
	7	0.16	4.91832E-001	2.41501E-005	0.00000E+000	4.93000E-001	-8.65106E-004	10	..........a	-327.74
	14	0.3	4.84853E-001	1.80259E-005	0.00000E+000	4.86000E-001	-8.61772E-004	10	..........a	-327.74
	21	0.44	4.77882E-001	1.48093E-005	0.00000E+000	4.79000E-001	-8.90939E-004	10	..........a	-327.74
	28	0.58	4.70841E-001	1.28501E-005	0.00000E+000	4.72000E-001	-8.71772E-004	10	..........a	-327.74
	35	0.72	4.63772E-001	1.12668E-005	0.00000E+000	4.65000E-001	-9.04272E-004	10	..........a	-327.74
	42	0.86	4.56879E-001	1.04229E-005	0.00000E+000	4.58000E-001	-8.59272E-004	10	..........a	-327.74
	49	1	4.49752E-001	9.55820E-006	0.00000E+000	4.51000E-001	-8.39272E-004	10	..........a	-327.74
	56	1.14	4.42864E-001	8.93158E-006	0.00000E+000	4.44000E-001	-8.47606E-004	10	..........a	-327.74
	63	1.28	4.35862E-001	8.46371E-006	0.00000E+000	4.37000E-001	-8.67606E-004	10	..........a	-327.74
	70	1.42	4.28854E-001	7.99583E-006	0.00000E+000	4.30000E-001	-8.69272E-004	10	..........a	-327.74
	77	1.56	4.21877E-001	7.53213E-006	0.00000E+000	4.23000E-001	-8.71772E-004	10	..........a	-327.74
	84	1.7	4.14850E-001	7.28984E-006	0.00000E+000	4.16000E-001	-8.82606E-004	10	..........a	-327.74
	91	1.84	4.07841E-001	6.90133E-006	0.00000E+000	4.09000E-001	-8.61772E-004	10	..........a	-327.74
	98	1.98	4.00883E-001	6.65068E-006	0.00000E+000	4.02000E-001	-8.65939E-004	10	..........a	-327.74
	105	2.12	3.93846E-001	6.34155E-006	0.00000E+000	3.95000E-001	-8.45939E-004	10	..........a	-327.74
	112	2.26	3.86854E-001	5.84443E-006	0.00000E+000	3.88000E-001	-8.42605E-004	10	..........a	-327.74
	119	2.4	3.79814E-001	5.66480E-006	0.00000E+000	3.81000E-001	-8.41772E-004	10	..........a	-327.74
	126	2.54	3.72791E-001	5.35984E-006	0.00000E+000	3.74000E-001	-8.47606E-004	10	..........a	-327.74
	133	2.68	3.65899E-001	5.33895E-006	0.00000E+000	3.67000E-001	-8.36772E-004	10	..........a	-327.74
	140	2.82	3.58813E-001	5.30554E-006	0.00000E+000	3.60000E-001	-8.36772E-004	10	..........a	-327.74
	147	2.96	3.51779E-001	5.06742E-006	0.00000E+000	3.53000E-001	-8.32606E-004	10	..........a	-327.74
	154	3.1	3.44886E-001	4.96298E-006	0.00000E+000	3.46000E-001	-8.38439E-004	10	..........a	-327.74
	161	3.24	3.37855E-001	4.75829E-006	0.00000E+000	3.39000E-001	-8.43439E-004	10	..........a	-327.74
	168	3.38	3.30864E-001	4.54523E-006	0.00000E+000	3.32000E-001	-8.50939E-004	10	..........a	-327.74
	175	3.52	3.23766E-001	4.49511E-006	0.00000E+000	3.25000E-001	-8.60939E-004	10	..........a	-327.74
	182	3.66	3.16874E-001	4.45333E-006	0.00000E+000	3.18000E-001	-8.65939E-004	10	..........a	-327.74
	189	3.8	3.09906E-001	4.39902E-006	0.00000E+000	3.11000E-001	-8.62605E-004	10	..........a	-327.74
	196	3.94	3.02873E-001	4.04394E-006	0.00000E+000	3.04000E-001	-8.53439E-004	10	..........a	-327.74
	203	4.08	2.95768E-001	3.89773E-006	0.00000E+000	2.97000E-001	-8.66772E-004	10	..........a	-327.74
	210	4.22	2.88932E-001	3.93950E-006	0.00000E+000	2.90000E-001	-8.60939E-004	10	..........a	-327.74
	217	4.36	2.81881E-001	3.62619E-006	0.00000E+000	2.83000E-001	-8.65939E-004	10	..........a	-327.74
	224	4.5	2.74886E-001	3.75987E-006	0.00000E+000	2.76000E-001	-8.70106E-004	10	..........a	-327.74
	231	4.64	2.67909E-001	3.72227E-006	0.00000E+000	2.69000E-001	-8.73439E-004	10	..........a	-327.74
	238	4.78	2.60906E-001	3.42149E-006	0.00000E+000	2.62000E-001	-8.77606E-004	10	..........a	-327.74
	245	4.92	2.53952E-001	3.34630E-006	0.00000E+000	2.55000E-001	-8.52606E-004	10	..........a	-327.74
	252	5.06	2.46901E-001	3.30452E-006	0.00000E+000	2.48000E-001	-8.69272E-004	10	..........a	-327.74
	259	5.2	2.39922E-001	3.07059E-006	0.00000E+000	2.41000E-001	-8.52606E-004	10	..........a	-327.74
	266	5.34	2.32969E-001	3.15414E-006	0.00000E+000	2.34000E-001	-8.69272E-004	10	..........a	-327.74
	273	5.48	2.25938E-001	2.86171E-006	0.00000E+000	2.27000E-001	-8.69272E-004	10	..........a	-327.74
	280	5.62	2.18907E-001	3.10401E-006	0.00000E+000	2.20000E-001	-8.76772E-004	10	..........a	-327.74
	287	5.76	2.11929E-001	2.99539E-006	0.00000E+000	2.13000E-001	-8.79272E-004	10	..........a	-327.74
	294	5.9	2.04926E-001	2.87007E-006	0.00000E+000	2.06000E-001	-8.58439E-004	10	..........a	-327.74
	301	6.04	1.98011E-001	2.83665E-006	0.00000E+000	1.99000E-001	-8.72606E-004	10	..........a	-327.74
	308	6.18	1.90935E-001	2.87007E-006	0.00000E+000	1.92000E-001	-8.77606E-004	10	..........a	-327.74
	315	6.32	1.83943E-001	2.72803E-006	0.00000E+000	1.85000E-001	-8.66772E-004	10	..........a	-327.74
	322	6.46	1.77024E-001	2.69044E-006	0.00000E+000	1.78000E-001	-8.65939E-004	10	..........a	-327.74
	329	6.6	1.69992E-001	2.54422E-006	0.00000E+000	1.71000E-001	-8.72606E-004	10	..........a	-327.74
	336	6.74	1.62965E-001	2.54422E-006	0.00000E+000	1.64000E-001	-8.67606E-004	10	..........a	-327.74
	343	6.88	1.55978E-001	2.45650E-006	0.00000E+000	1.57000E-001	-8.45106E-004	10	..........a	-327.74
	350	7.02	1.48946E-001	2.15154E-006	0.00000E+000	1.50000E-001	-8.63439E-004	10	..........a	-327.74
	357	7.16	1.42054E-001	2.07217E-006	0.00000E+000	1.43000E-001	-8.63439E-004	10	..........a	-327.74
	364	7.3	1.34986E-001	1.95938E-006	0.00000E+000	1.36000E-001	-8.55939E-004	10	..........a	-327.74
	371	7.44	1.28026E-001	1.96773E-006	0.00000E+000	1.29000E-001	-8.51772E-004	10	..........a	-327.74
	378	7.58	1.21128E-001	1.88418E-006	0.00000E+000	1.22000E-001	-8.46772E-004	10	..........a	-327.74
	385	7.72	1.14004E-001	1.70455E-006	0.00000E+000	1.15000E-001	-8.52606E-004	10	..........a	-327.74
	392	7.86	1.07006E-001	1.66695E-006	0.00000E+000	1.08000E-001	-8.49272E-004	10	..........a	-327.74
	399	8	1.00063E-001	1.66278E-006	0.00000E+000	1.01000E-001	-8.53439E-004	10	..........a	-327.74
	406	8.14	9.29952E-002	1.59594E-006	0.00000E+000	9.40000E-002	-8.55105E-004	10	..........a	-327.74
	413	8.28	8.60340E-002	1.56670E-006	0.00000E+000	8.70000E-002	-8.50939E-004	10	..........a	-327.74
	420	8.42	7.90261E-002	1.52910E-006	0.00000E+000	8.00000E-002	-8.40106E-004	10	..........a	-327.74
	427	8.56	7.20456E-002	1.51239E-006	0.00000E+000	7.30000E-002	-8.46772E-004	10	..........a	-327.74
	434	8.7	6.51619E-002	1.48315E-006	0.00000E+000	6.60000E-002	-8.50939E-004	10	..........a	-327.74
	441	8.84	5.80215E-002	1.70873E-006	0.00000E+000	5.90000E-002	-8.50105E-004	10	..........a	-327.74
	448	8.98	5.10723E-002	1.50821E-006	0.00000E+000	5.20000E-002	-8.57606E-004	10	..........a	-327.74
	455	9.12	4.40948E-002	1.39542E-006	0.00000E+000	4.50000E-002	-8.40106E-004	10	..........a	-327.74
	462	9.26	3.70294E-002	1.33276E-006	0.00000E+000	3.80000E-002	-8.44272E-004	10	..........a	-327.74
	469	9.4	3.00540E-002	1.47061E-006	0.00000E+000	3.10000E-002	-8.61772E-004	10	..........a	-327.74
	476	9.54	2.30740E-002	1.21161E-006	0.00000E+000	2.40000E-002	-8.50939E-004	10	..........a	-327.74
	483	9.68	1.60490E-002	1.20325E-006	0.00000E+000	1.70000E-002	-8.50939E-004	10	..........a	-327.74
	490	9.82	9.06731E-003	9.94381E-007	0.00000E+000	9.99999E-003	-8.56772E-004	10	..........a	-327.74
	497	9.96	2.04523E-003	9.98558E-007	0.00000E+000	2.99999E-003	-8.62605E-004	10	..........a	-327.74
	504	10.1	-4.89977E-003	9.73494E-007	0.00000E+000	-4.00001E-003	-8.49272E-004	10	..........a	-327.74
	511	10.24	-1.18889E-002	8.18927E-007	0.00000E+000	-1.10000E-002	-8.63439E-004	10	..........a	-327.74
	518	10.38	-1.89885E-002	8.06395E-007	0.00000E+000	-1.80000E-002	-8.62605E-004	10	..........a	-327.74
	525	10.52	-2.59539E-002	8.35637E-007	0.00000E+000	-2.50000E-002	-8.50105E-004	10	..........a	-327.74
	532	10.66	-3.29402E-002	6.14231E-007	0.00000E+000	-3.20000E-002	-8.66772E-004	10	..........a	-327.74
	539	10.8	-3.99623E-002	4.01179E-007	0.00000E+000	-3.90000E-002	-8.69272E-004	10	..........a	-327.74
	546	10.94	-4.69144E-002	5.84988E-007	0.00000E+000	-4.60000E-002	-8.66772E-004	10	..........a	-327.74
	553	11.08	-5.39373E-002	7.93862E-007	0.00000E+000	-5.30000E-002	-8.46772E-004	10	..........a	-327.74
	560	11.22	-6.08764E-002	5.84988E-007	0.00000E+000	-6.00000E-002	-8.67606E-004	10	..........a	-327.74
	567	11.36	-6.79319E-002	7.06135E-007	0.00000E+000	-6.70000E-002	-8.55939E-004	10	..........a	-327.74
	574	11.5	-7.49606E-002	7.10313E-007	0.00000E+000	-7.40000E-002	-8.63439E-004	10	..........a	-327.74
	581	11.64	-8.19485E-002	7.98040E-007	0.00000E+000	-8.10000E-002	-8.65939E-004	10	..........a	-327.74
	588	11.78	-8.88523E-002	8.43992E-007	0.00000E+000	-8.80000E-002	-8.51772E-004	10	..........a	-327.74
	595	11.92	-9.59419E-002	6.10053E-007	0.00000E+000	-9.50000E-002	-8.57606E-004	10	..........a	-327.74
	602	12.06	-1.02878E-001	4.17889E-007	0.00000E+000	-1.02000E-001	-8.65939E-004	10	..........a	-327.74
	609	12.2	-1.09933E-001	3.88647E-007	0.00000E+000	-1.09000E-001	-8.77606E-004	10	..........a	-327.74
	616	12.34	-1.16920E-001	6.60183E-007	0.00000E+000	-1.16000E-001	-8.77606E-004	10	..........a	-327.74
	623	12.48	-1.23902E-001	3.09275E-007	0.00000E+000	-1.23000E-001	-8.80939E-004	10	..........a	-327.74
	630	12.62	-1.30913E-001	1.75596E-007	0.00000E+000	-1.30000E-001	-8.90106E-004	10	..........a	-327.74
	637	12.76	-1.37922E-001	1.96483E-007	0.00000E+000	-1.37000E-001	-8.91772E-004	10	..........a	-327.74
	644	12.9	-1.44928E-001	1.54709E-007	0.00000E+000	-1.44000E-001	-8.79272E-004	10	..........a	-327.74
	651	13.04	-1.51937E-001	7.95139E-008	0.00000E+000	-1.51000E-001	-8.93439E-004	10	..........a	-327.74
	658	13.18	-1.58887E-001	7.11590E-008	0.00000E+000	-1.58000E-001	-8.80105E-004	10	..........a	-327.74
	665	13.32	-1.65893E-001	-8.21312E-009	0.00000E+000	-1.65000E-001	-8.79272E-004	10	..........a	-327.74
	672	13.46	-1.72916E-001	-1.33537E-007	0.00000E+000	-1.72000E-001	-8.79272E-004	10	..........a	-327.74
	679	13.6	-1.79871E-001	-1.21005E-007	0.00000E+000	-1.79000E-001	-8.88439E-004	10	..........a	-327.74
	686	13.74	-1.86908E-001	-2.63039E-007	0.00000E+000	-1.86000E-001	-8.82606E-004	10	..........a	-327.74
	693	13.88	-1.93910E-001	-2.83926E-007	0.00000E+000	-1.93000E-001	-8.80105E-004	10	..........a	-327.74
	700	14.02	-2.00919E-001	-4.09251E-007	0.00000E+000	-2.00000E-001	-8.92605E-004	10	..........a	-327.74
	707	14.16	-2.07911E-001	-6.22302E-007	0.00000E+000	-2.07000E-001	-8.87605E-004	10	..........a	-327.74
	714	14.3	-2.14899E-001	-5.17865E-007	0.00000E+000	-2.14000E-001	-8.97606E-004	10	..........a	-327.74
	721	14.44	-2.21899E-001	-5.47107E-007	0.00000E+000	-2.21000E-001	-8.99272E-004	10	..........a	-327.74
	728	14.58	-2.28894E-001	-7.26739E-007	0.00000E+000	-2.28000E-001	-9.01772E-004	10	..........a	-327.74
	735	14.72	-2.35824E-001	-5.97237E-007	0.00000E+000	-2.35000E-001	-8.92605E-004	10	..........a	-327.74
	742	14.86	-2.42882E-001	-7.18384E-007	0.00000E+000	-2.42000E-001	-8.95939E-004	10	..........a	-327.74
	749	15	-2.49901E-001	-7.68514E-007	0.00000E+000	-2.49000E-001	-8.91772E-004	10	..........a	-327.74
	756	15.14	-2.56873E-001	-9.39790E-007	0.00000E+000	-2.56000E-001	-8.82606E-004	10	..........a	-327.74
	763	15.28	-2.63909E-001	-9.02193E-007	0.00000E+000	-2.63000E-001	-8.83439E-004	10	..........a	-327.74
	770	15.42	-2.70855E-001	-9.06370E-007	0.00000E+000	-2.70000E-001	-8.65106E-004	10	..........a	-327.74
	777	15.56	-2.77900E-001	-1.03169E-006	0.00000E+000	-2.77000E-001	-8.99272E-004	10	..........a	-327.74
	784	15.7	-2.84906E-001	-1.31159E-006	0.00000E+000	-2.84000E-001	-8.71772E-004	10	..........a	-327.74
	791	15.84	-2.91812E-001	-1.45780E-006	0.00000E+000	-2.91000E-001	-8.48439E-004	10	..........a	-327.74
	798	15.98	-2.98875E-001	-1.26146E-006	0.00000E+000	-2.98000E-001	-8.80939E-004	10	..........a	-327.74
	805	16.12	-3.05886E-001	-1.23221E-006	0.00000E+000	-3.05000E-001	-8.88439E-004	10	..........a	-327.74
	812	16.26	-3.12878E-001	-1.28234E-006	0.00000E+000	-3.12000E-001	-8.69272E-004	10	..........a	-327.74
	819	16.4	-3.19868E-001	-1.42855E-006	0.00000E+000	-3.19000E-001	-8.66772E-004	10	..........a	-327.74
	826	16.54	-3.26836E-001	-1.46615E-006	0.00000E+000	-3.26000E-001	-8.68439E-004	10	..........a	-327.74
	833	16.68	-3.33875E-001	-1.58730E-006	0.00000E+000	-3.33000E-001	-8.65106E-004	10	..........a	-327.74
	840	16.82	-3.40874E-001	-1.70845E-006	0.00000E+000	-3.40000E-001	-8.51772E-004	10	..........a	-327.74
	847	16.96	-3.47843E-001	-1.82124E-006	0.00000E+000	-3.47000E-001	-8.33439E-004	10	..........a	-327.74
	854	17.1	-3.54881E-001	-2.35595E-006	0.00000E+000	-3.54000E-001	-8.28439E-004	10	..........a	-327.74
	861	17.24	-3.61908E-001	-2.56901E-006	0.00000E+000	-3.61000E-001	-8.16772E-004	10	..........a	-327.74
	868	17.38	-3.68983E-001	-2.78206E-006	0.00000E+000	-3.68000E-001	-8.20939E-004	10	..........a	-327.74
	875	17.52	-3.75876E-001	-3.50058E-006	0.00000E+000	-3.75000E-001	-8.19272E-004	10	..........a	-327.74
	882	17.66	-3.82841E-001	-4.20240E-006	0.00000E+000	-3.82000E-001	-8.39272E-004	10	..........a	-327.74
	889	17.8	-3.89851E-001	-5.31778E-006	0.00000E+000	-3.89000E-001	-8.25105E-004	10	..........a	-327.74
	896	17.94	-3.96804E-001	-6.57103E-006	0.00000E+000	-3.96000E-001	-8.08439E-004	10	..........a	-327.74
	903	18.08	-4.03830E-001	-8.17936E-006	0.00000E+000	-4.03000E-001	-8.22606E-004	10	..........a	-327.74
	910	18.22	-4.10846E-001	-1.00717E-005	0.00000E+000	-4.10000E-001	-8.16772E-004	10	..........a	-327.74
	917	18.36	-4.17873E-001	-1.25198E-005	0.00000E+000	-4.17000E-001	-8.50105E-004	10	..........a	-327.74
	924	18.5	-4.24792E-001	-1.49385E-005	0.00000E+000	-4.24000E-001	-8.30939E-004	10	..........a	-327.74
	931	18.64	-4.31849E-001	-1.78168E-005	0.00000E+000	-4.31000E-001	-8.28439E-004	10	..........a	-327.74
	938	18.78	-4.38825E-001	-2.08204E-005	0.00000E+000	-4.38000E-001	-8.39272E-004	10	..........a	-327.74
	945	18.92	-4.45776E-001	-2.37446E-005	0.00000E+000	-4.45000E-001	-8.31772E-004	10	..........a	-327.74
	952	19.06	-4.52846E-001	-2.70156E-005	0.00000E+000	-4.52000E-001	-8.32606E-004	10	..........a	-327.74
	959	19.2	-4.59760E-001	-3.06918E-005	0.00000E+000	-4.59000E-001	-8.25939E-004	10	..........a	-327.74
	966	19.34	-4.66780E-001	-3.43763E-005	0.00000E+000	-4.66000E-001	-8.16772E-004	10	..........a	-327.74
	973	19.48	-4.73801E-001	-3.83491E-005	0.00000E+000	-4.73000E-001	-8.16772E-004	10	..........a	-327.74
	980	19.62	-4.80812E-001	-4.28357E-005	0.00000E+000	-4.80000E-001	-8.30939E-004	10	..........a	-327.74
	987	19.76	-4.87828E-001	-4.78445E-005	0.00000E+000	-4.87000E-001	-8.42605E-004	10	..........a	-327.74
	994	19.9	-4.94826E-001	-5.31666E-005	0.00000E+000	-4.94000E-001	-8.25939E-004	10	..........a	-327.74
	1001	20.04	-5.01845E-001	-5.90276E-005	0.00000E+000	-5.01000E-001	-8.30939E-004	10	..........a	-327.74
	1008	20.18	-5.08795E-001	-6.56823E-005	0.00000E+000	-5.08000E-001	-8.22606E-004	10	..........a	-327.74
	1015	20.32	-5.15776E-001	-7.29135E-005	0.00000E+000	-5.15000E-001	-8.46772E-004	10	..........a	-327.74
	1022	20.46	-5.22799E-001	-8.07755E-005	0.00000E+000	-5.22000E-001	-8.50105E-004	10	..........a	-327.74
	1029	20.6	-5.29794E-001	-8.88840E-005	0.00000E+000	-5.29000E-001	-8.54272E-004	10	..........a	-327.74
	1036	20.74	-5.36791E-001	-9.70927E-005	0.00000E+000	-5.36000E-001	-8.53439E-004	10	..........a	-327.74
	1043	20.88	-5.43874E-001	-1.04529E-004	0.00000E+000	-5.43000E-001	-8.34272E-004	10	..........a	-327.74
	1050	21.02	-5.50769E-001	-1.11288E-004	0.00000E+000	-5.50000E-001	-8.32606E-004	10	..........a	-327.74
	1057	21.16	-5.57845E-001	-1.16794E-004	0.00000E+000	-5.57000E-001	-8.40106E-004	10	..........a	-327.74
	1064	21.3	-5.64761E-001	-1.20733E-004	0.00000E+000	-5.64000E-001	-8.43439E-004	10	..........a	-327.74
	1071	21.44	-5.71671E-001	-1.22826E-004	0.00000E+000	-5.71000E-001	-8.19272E-004	10	..........a	-327.74
	1078	21.58	-5.78797E-001	-1.23352E-004	0.00000E+000	-5.78000E-001	-8.37606E-004	10	..........a	-327.74
	1085	21.72	-5.85817E-001	-1.22116E-004	0.00000E+000	-5.85000E-001	-8.24272E-004	10	..........a	-327.74
	1092	21.86	-5.92746E-001	-1.19538E-004	0.00000E+000	-5.92000E-001	-8.30939E-004	10	..........a	-327.74
	1099	22	-5.99874E-001	-1.16251E-004	0.00000E+000	-5.99000E-001	-8.41772E-004	10	..........a	-327.74
	1106	22.14	-6.06771E-001	-1.12466E-004	0.00000E+000	-6.06000E-001	-8.60106E-004	10	..........a	-327.74
	1113	22.28	-6.13864E-001	-1.08723E-004	0.00000E+000	-6.13000E-001	-8.47606E-004	10	..........a	-327.74
	1120	22.42	-6.20751E-001	-1.04967E-004	0.00000E+000	-6.20000E-001	-8.58439E-004	10	..........a	-327.74
	1127	22.56	-6.27758E-001	-1.01228E-004	0.00000E+000	-6.27000E-001	-8.32606E-004	10	..........a	-327.74
	1134	22.7	-6.34749E-001	-9.79241E-005	0.00000E+000	-6.34000E-001	-8.25105E-004	10	..........a	-327.74
	1141	22.84	-6.41671E-001	-9.44943E-005	0.00000E+000	-6.41000E-001	-8.13439E-004	10	..........a	-327.74
	1148	22.98	-6.48706E-001	-9.15910E-005	0.00000E+000	-6.48000E-001	-8.29272E-004	10	..........a	-327.74
	1155	23.12	-6.55750E-001	-8.89843E-005	0.00000E+000	-6.55000E-001	-8.34272E-004	10	..........a	-327.74
	1162	23.26	-6.62738E-001	-8.64903E-005	0.00000E+000	-6.62000E-001	-8.05105E-004	10	..........a	-327.74
	1169	23.4	-6.69803E-001	-8.40131E-005	0.00000E+000	-6.69000E-001	-8.32606E-004	10	..........a	-327.74
	1176	23.54	-6.76781E-001	-8.20079E-005	0.00000E+000	-6.76000E-001	-8.34272E-004	10	..........a	-327.74
	1183	23.68	-6.83710E-001	-8.02157E-005	0.00000E+000	-6.83000E-001	-8.44272E-004	10	..........a	-327.74
	1190	23.82	-6.90724E-001	-7.84654E-005	0.00000E+000	-6.90000E-001	-8.17605E-004	10	..........a	-327.74
	1197	23.96	-6.97776E-001	-7.68696E-005	0.00000E+000	-6.97000E-001	-8.44272E-004	10	..........a	-327.74
	1204	24.1	-7.04708E-001	-7.51485E-005	0.00000E+000	-7.04000E-001	-8.21772E-004	10	..........a	-327.74
	1211	24.24	-7.11723E-001	-7.38952E-005	0.00000E+000	-7.11000E-001	-8.27606E-004	10	..........a	-327.74
	1218	24.38	-7.18708E-001	-7.24665E-005	0.00000E+000	-7.18000E-001	-8.45939E-004	10	..........a	-327.74
	1225	24.52	-7.25619E-001	-7.12091E-005	0.00000E+000	-7.25000E-001	-8.12605E-004	10	..........a	-327.74
	1232	24.66	-7.32715E-001	-7.01355E-005	0.00000E+000	-7.32000E-001	-8.22606E-004	10	..........a	-327.74
	1239	24.8	-7.39716E-001	-6.90117E-005	0.00000E+000	-7.39000E-001	-8.58439E-004	10	..........a	-327.74
	1246	24.94	-7.46729E-001	-6.81261E-005	0.00000E+000	-7.46000E-001	-8.43439E-004	10	..........a	-327.74
	1253	25.08	-7.53881E-001	-6.70107E-005	0.00000E+000	-7.53000E-001	-8.27606E-004	10	..........a	-327.74
	1260	25.22	-7.60671E-001	-6.59914E-005	0.00000E+000	-7.60000E-001	-8.25105E-004	10	..........a	-327.74
	1267	25.36	-7.67718E-001	-6.49095E-005	0.00000E+000	-7.67000E-001	-8.50939E-004	10	..........a	-327.74
	1274	25.5	-7.74696E-001	-6.42745E-005	0.00000E+000	-7.74000E-001	-8.37606E-004	10	..........a	-327.74
	1281	25.64	-7.81670E-001	-6.33137E-005	0.00000E+000	-7.81000E-001	-8.31772E-004	10	..........a	-327.74
	1288	25.78	-7.88714E-001	-6.24531E-005	0.00000E+000	-7.88000E-001	-8.13439E-004	10	..........a	-327.74
	1295	25.92	-7.95630E-001	-6.18599E-005	0.00000E+000	-7.95000E-001	-8.29272E-004	10	..........a	-327.74
	1302	26.06	-8.02708E-001	-6.10244E-005	0.00000E+000	-8.02000E-001	-8.50105E-004	10	..........a	-327.74
	1309	26.2	-8.09708E-001	-6.05900E-005	0.00000E+000	-8.09000E-001	-8.50939E-004	10	..........a	-327.74
	1316	26.34	-8.16655E-001	-5.98923E-005	0.00000E+000	-8.16000E-001	-8.40939E-004	10	..........a	-327.74
	1323	26.48	-8.23638E-001	-5.92490E-005	0.00000E+000	-8.23000E-001	-8.18439E-004	10	..........a	-327.74
	1330	26.62	-8.30707E-001	-5.86098E-005	0.00000E+000	-8.30000E-001	-8.28439E-004	10	..........a	-327.74
	1337	26.76	-8.37615E-001	-5.80668E-005	0.00000E+000	-8.37000E-001	-8.20939E-004	10	..........a	-327.74
	1344	26.9	-8.44680E-001	-5.75864E-005	0.00000E+000	-8.44000E-001	-8.44272E-004	10	..........a	-327.74
	1351	27.04	-8.51645E-001	-5.70307E-005	0.00000E+000	-8.51000E-001	-8.39272E-004	10	..........a	-327.74
	1358	27.18	-8.58620E-001	-5.61994E-005	0.00000E+000	-8.58000E-001	-8.61772E-004	10	..........a	-327.74
	1365	27.32	-8.65613E-001	-5.58694E-005	0.00000E+000	-8.65000E-001	-8.42605E-004	10	..........a	-327.74
	1372	27.46	-8.72575E-001	-5.56104E-005	0.00000E+000	-8.72000E-001	-8.33439E-004	10	..........a	-327.74
	1379	27.6	-8.79643E-001	-5.53054E-005	0.00000E+000	-8.79000E-001	-8.24272E-004	10	..........a	-327.74
	1386	27.74	-8.86621E-001	-5.48000E-005	0.00000E+000	-8.86000E-001	-8.21772E-004	10	..........a	-327.74
	1393	27.88	-8.93587E-001	-5.42026E-005	0.00000E+000	-8.93000E-001	-8.07606E-004	10	..........a	-327.74
	1400	28.02	-9.00667E-001	-5.38266E-005	0.00000E+000	-9.00000E-001	-8.38439E-004	10	..........a	-327.74
	1407	28.16	-9.07576E-001	-5.36762E-005	0.00000E+000	-9.07000E-001	-8.18439E-004	10	..........a	-327.74
	1414	28.3	-9.14644E-001	-5.30454E-005	0.00000E+000	-9.14000E-001	-8.53439E-004	10	..........a	-327.74
	1421	28.44	-9.21577E-001	-5.24773E-005	0.00000E+000	-9.21000E-001	-8.52606E-004	10	..........a	-327.74
	1428	28.58	-9.28618E-001	-5.20136E-005	0.00000E+000	-9.28000E-001	-8.45106E-004	10	..........a	-327.74
	1435	28.72	-9.35584E-001	-5.15332E-005	0.00000E+000	-9.35000E-001	-8.34272E-004	10	..........a	-327.74
	1442	28.86	-9.42645E-001	-5.11823E-005	0.00000E+000	-9.42000E-001	-8.18439E-004	10	..........a	-327.74
	1449	29	-9.49576E-001	-5.08982E-005	0.00000E+000	-9.49000E-001	-8.05939E-004	10	..........a	-327.74
	1456	29.14	-9.56654E-001	-5.04345E-005	0.00000E+000	-9.56000E-001	-8.14272E-004	10	..........a	-327.74
	1463	29.28	-9.63569E-001	-5.02883E-005	0.00000E+000	-9.63000E-001	-8.07606E-004	10	..........a	-327.74
	1470	29.42	-9.70615E-001	-4.95781E-005	0.00000E+000	-9.70000E-001	-8.39272E-004	10	..........a	-327.74
	1477	29.56	-9.77581E-001	-4.93442E-005	0.00000E+000	-9.77000E-001	-8.34272E-004	10	..........a	-327.74
	1484	29.7	-9.84521E-001	-4.91019E-005	0.00000E+000	-9.84000E-001	-8.53439E-004	10	..........a	-327.74
	1491	29.84	-9.91585E-001	-4.88345E-005	0.00000E+000	-9.91000E-001	-8.56772E-004	10	..........a	-327.74
	1498	29.98	-9.98561E-001	-4.85964E-005	0.00000E+000	-9.98000E-001	-8.52606E-004	10	..........a	-327.74
	1505	30.12	-9.95565E-001	-4.74226E-005	0.00000E+000	-9.95000E-001	-8.26772E-004	10	..........a	-327.74
	1512	30.26	-9.88566E-001	-4.66372E-005	0.00000E+000	-9.88000E-001	-8.15106E-004	10	..........a	-327.74
	1519	30.4	-9.81550E-001	-4.59772E-005	0.00000E+000	-9.81000E-001	-8.27606E-004	10	..........a	-327.74
	1526	30.54	-9.74609E-001	-4.52795E-005	0.00000E+000	-9.74000E-001	-8.37606E-004	10	..........a	-327.74
	1533	30.68	-9.67593E-001	-4.48910E-005	0.00000E+000	-9.67000E-001	-8.50939E-004	10	..........a	-327.74
	1540	30.82	-9.60572E-001	-4.46654E-005	0.00000E+000	-9.60000E-001	-8.54272E-004	10	..........a	-327.74
	1547	30.96	-9.53596E-001	-4.41098E-005	0.00000E+000	-9.53000E-001	-8.45939E-004	10	..........a	-327.74
	1554	31.1	-9.46688E-001	-4.35459E-005	0.00000E+000	-9.46000E-001	-8.34272E-004	10	..........a	-327.74
	1561	31.24	-9.39590E-001	-4.32284E-005	0.00000E+000	-9.39000E-001	-8.37606E-004	10	..........a	-327.74
	1568	31.38	-9.32699E-001	-4.29401E-005	0.00000E+000	-9.32000E-001	-8.27606E-004	10	..........a	-327.74
	1575	31.52	-9.25583E-001	-4.25266E-005	0.00000E+000	-9.25000E-001	-8.19272E-004	10	..........a	-327.74
	1582	31.66	-9.18638E-001	-4.21589E-005	0.00000E+000	-9.18000E-001	-8.20106E-004	10	..........a	-327.74
	1589	31.8	-9.11597E-001	-4.18289E-005	0.00000E+000	-9.11000E-001	-8.35106E-004	10	..........a	-327.74
	1596	31.94	-9.04555E-001	-4.14195E-005	0.00000E+000	-9.04000E-001	-8.27606E-004	10	..........a	-327.74
	1603	32.08	-8.97591E-001	-4.10770E-005	0.00000E+000	-8.97000E-001	-8.28439E-004	10	..........a	-327.74
	1610	32.22	-8.90621E-001	-4.06885E-005	0.00000E+000	-8.90000E-001	-8.26772E-004	10	..........a	-327.74
	1617	32.36	-8.83602E-001	-4.03417E-005	0.00000E+000	-8.83000E-001	-8.60939E-004	10	..........a	-327.74
	1624	32.5	-8.76690E-001	-4.00618E-005	0.00000E+000	-8.76000E-001	-8.30106E-004	10	..........a	-327.74
	1631	32.64	-8.69600E-001	-3.96232E-005	0.00000E+000	-8.69000E-001	-8.29272E-004	10	..........a	-327.74
	1638	32.78	-8.62611E-001	-3.94018E-005	0.00000E+000	-8.62000E-001	-8.18439E-004	10	..........a	-327.74
	1645	32.92	-8.55643E-001	-3.91888E-005	0.00000E+000	-8.55000E-001	-8.18439E-004	10	..........a	-327.74
	1652	33.06	-8.48599E-001	-3.89465E-005	0.00000E+000	-8.48000E-001	-8.05939E-004	10	..........a	-327.74
	1659	33.2	-8.41603E-001	-3.86749E-005	0.00000E+000	-8.41000E-001	-8.01772E-004	10	..........a	-327.74
	1666	33.34	-8.34633E-001	-3.83157E-005	0.00000E+000	-8.34000E-001	-8.03439E-004	10	..........a	-327.74
	1673	33.48	-8.27669E-001	-3.82697E-005	0.00000E+000	-8.27000E-001	-8.20939E-004	10	..........a	-327.74
	1680	33.62	-8.20672E-001	-3.79522E-005	0.00000E+000	-8.20000E-001	-8.10939E-004	10	..........a	-327.74
	1687	33.76	-8.13661E-001	-3.78144E-005	0.00000E+000	-8.13000E-001	-8.21772E-004	10	..........a	-327.74
	1694	33.9	-8.06690E-001	-3.77016E-005	0.00000E+000	-8.06000E-001	-8.40939E-004	10	..........a	-327.74
	1701	34.04	-7.99699E-001	-3.74091E-005	0.00000E+000	-7.99000E-001	-8.19272E-004	10	..........a	-327.74
	1708	34.18	-7.92695E-001	-3.71669E-005	0.00000E+000	-7.92000E-001	-8.48439E-004	10	..........a	-327.74
	1715	34.32	-7.85718E-001	-3.69287E-005	0.00000E+000	-7.85000E-001	-8.41772E-004	10	..........a	-327.74
	1722	34.46	-7.78709E-001	-3.68285E-005	0.00000E+000	-7.78000E-001	-8.54272E-004	10	..........a	-327.74
	1729	34.6	-7.71688E-001	-3.66572E-005	0.00000E+000	-7.71000E-001	-8.39272E-004	10	..........a	-327.74
	1736	34.74	-7.64727E-001	-3.63439E-005	0.00000E+000	-7.64000E-001	-8.56772E-004	10	..........a	-327.74
	1743	34.88	-7.57705E-001	-3.61058E-005	0.00000E+000	-7.57000E-001	-8.48439E-004	10	..........a	-327.74
	1750	35.02	-7.50729E-001	-3.58175E-005	0.00000E+000	-7.50000E-001	-8.43439E-004	10	..........a	-327.74
	1757	35.16	-7.43696E-001	-3.57716E-005	0.00000E+000	-7.43000E-001	-8.31772E-004	10	..........a	-327.74
	1764	35.3	-7.36725E-001	-3.53246E-005	0.00000E+000	-7.36000E-001	-8.36772E-004	10	..........a	-327.74
	1771	35.44	-7.29700E-001	-3.54332E-005	0.00000E+000	-7.29000E-001	-8.11772E-004	10	..........a	-327.74
	1778	35.58	-7.22732E-001	-3.51951E-005	0.00000E+000	-7.22000E-001	-8.20106E-004	10	..........a	-327.74
	1785	35.72	-7.15673E-001	-3.50530E-005	0.00000E+000	-7.15000E-001	-8.34272E-004	10	..........a	-327.74
	1792	35.86	-7.08735E-001	-3.46980E-005	0.00000E+000	-7.08000E-001	-8.31772E-004	10	..........a	-327.74
	1799	36	-7.01848E-001	-3.41507E-005	0.00000E+000	-7.01000E-001	-8.27606E-004	10	..........a	-327.74
	1806	36.14	-6.94729E-001	-3.40003E-005	0.00000E+000	-6.94000E-001	-8.12605E-004	10	..........a	-327.74
	1813	36.28	-6.87727E-001	-3.36202E-005	0.00000E+000	-6.87000E-001	-8.20939E-004	10	..........a	-327.74
	1820	36.42	-6.80709E-001	-3.30353E-005	0.00000E+000	-6.80000E-001	-8.55105E-004	10	..........a	-327.74
	1827	36.56	-6.73749E-001	-3.28014E-005	0.00000E+000	-6.73000E-001	-8.69272E-004	10	..........a	-327.74
	1834	36.7	-6.66723E-001	-3.26301E-005	0.00000E+000	-6.66000E-001	-8.69272E-004	10	..........a	-327.74
	1841	36.84	-6.59728E-001	-3.23084E-005	0.00000E+000	-6.59000E-001	-8.54272E-004	10	..........a	-327.74
	1848	36.98	-6.52739E-001	-3.16484E-005	0.00000E+000	-6.52000E-001	-8.51772E-004	10	..........a	-327.74
	1855	37.12	-6.45642E-001	-3.12056E-005	0.00000E+000	-6.45000E-001	-8.41772E-004	10	..........a	-327.74
	1862	37.26	-6.38725E-001	-3.06625E-005	0.00000E+000	-6.38000E-001	-8.16772E-004	10	..........a	-327.74
	1869	37.4	-6.31738E-001	-3.00735E-005	0.00000E+000	-6.31000E-001	-8.35939E-004	10	..........a	-327.74
	1876	37.54	-6.24675E-001	-2.92756E-005	0.00000E+000	-6.24000E-001	-8.54272E-004	10	..........a	-327.74
	1883	37.68	-6.17835E-001	-2.78594E-005	0.00000E+000	-6.17000E-001	-8.25939E-004	10	..........a	-327.74
	1890	37.82	-6.10800E-001	-2.64224E-005	0.00000E+000	-6.10000E-001	-8.34272E-004	10	..........a	-327.74
	1897	37.96	-6.03768E-001	-2.48642E-005	0.00000E+000	-6.03000E-001	-8.40939E-004	10	..........a	-327.74
	1904	38.1	-5.96745E-001	-2.26835E-005	0.00000E+000	-5.96000E-001	-8.04272E-004	10	..........a	-327.74
	1911	38.24	-5.89840E-001	-1.99348E-005	0.00000E+000	-5.89000E-001	-8.54272E-004	10	..........a	-327.74
	1918	38.38	-5.82785E-001	-1.62711E-005	0.00000E+000	-5.82000E-001	-8.61772E-004	10	..........a	-327.74
	1925	38.52	-5.75774E-001	-1.17762E-005	0.00000E+000	-5.75000E-001	-8.50105E-004	10	..........a	-327.74
	1932	38.66	-5.68743E-001	-6.43735E-006	0.00000E+000	-5.68000E-001	-8.18439E-004	10	..........a	-327.74
	1939	38.8	-5.61777E-001	1.54709E-007	0.00000E+000	-5.61000E-001	-8.98439E-004	10	..........a	-327.74
	1946	38.94	-5.54781E-001	7.27730E-006	0.00000E+000	-5.54000E-001	-8.78439E-004	10	..........a	-327.74
	1953	39.08	-5.47726E-001	1.48761E-005	0.00000E+000	-5.47000E-001	-8.72606E-004	10	..........a	-327.74
	1960	39.22	-5.40778E-001	2.25209E-005	0.00000E+000	-5.40000E-001	-8.66772E-004	10	..........a	-327.74
	1967	39.36	-5.33849E-001	2.98649E-005	0.00000E+000	-5.33000E-001	-8.69272E-004	10	..........a	-327.74
	1974	39.5	-5.26787E-001	3.70126E-005	0.00000E+000	-5.26000E-001	-8.30939E-004	10	..........a	-327.74
	1981	39.64	-5.19879E-001	4.31785E-005	0.00000E+000	-5.19000E-001	-8.67606E-004	10	..........a	-327.74
	1988	39.78	-5.12753E-001	4.89309E-005	0.00000E+000	-5.12000E-001	-8.50939E-004	10	..........a	-327.74
	1995	39.92	-5.05856E-001	5.37726E-005	0.00000E+000	-5.05000E-001	-8.36772E-004	10	..........a	-327.74
	2002	40.06	-4.98771E-001	5.76242E-005	0.00000E+000	-4.98000E-001	-8.48439E-004	10	..........a	-327.74
	2009	40.2	-4.91752E-001	6.12294E-005	0.00000E+000	-4.91000E-001	-8.55105E-004	10	..........a	-327.74
	2016	40.34	-4.84829E-001	6.38570E-005	0.00000E+000	-4.84000E-001	-8.74272E-004	10	..........a	-327.74
	2023	40.48	-4.77801E-001	6.57452E-005	0.00000E+000	-4.77000E-001	-8.32606E-004	10	..........a	-327.74
	2030	40.62	-4.70774E-001	6.68940E-005	0.00000E+000	-4.70000E-001	-8.60106E-004	10	..........a	-327.74
	2037	40.76	-4.63843E-001	6.78465E-005	0.00000E+000	-4.63000E-001	-8.60106E-004	10	..........a	-327.74
	2044	40.9	-4.56833E-001	6.77045E-005	0.00000E+000	-4.56000E-001	-8.56772E-004	10	..........a	-327.74
	2051	41.04	-4.49862E-001	6.73536E-005	0.00000E+000	-4.49000E-001	-8.61772E-004	10	..........a	-327.74
	2058	41.18	-4.42778E-001	6.62925E-005	0.00000E+000	-4.42000E-001	-8.48439E-004	10	..........a	-327.74
	2065	41.32	-4.35774E-001	6.48429E-005	0.00000E+000	-4.35000E-001	-8.55105E-004	10	..........a	-327.74
	2072	41.46	-4.28840E-001	6.31510E-005	0.00000E+000	-4.28000E-001	-8.75105E-004	10	..........a	-327.74
	2079	41.6	-4.21916E-001	6.12879E-005	0.00000E+000	-4.21000E-001	-8.57606E-004	10	..........a	-327.74
	2086	41.74	-4.14811E-001	5.92660E-005	0.00000E+000	-4.14000E-001	-8.66772E-004	10	..........a	-327.74
	2093	41.88	-4.07896E-001	5.71981E-005	0.00000E+000	-4.07000E-001	-8.39272E-004	10	..........a	-327.74
	2100	42.02	-4.00848E-001	5.49214E-005	0.00000E+000	-4.00000E-001	-8.63439E-004	10	..........a	-327.74
	2107	42.16	-3.93929E-001	5.30875E-005	0.00000E+000	-3.93000E-001	-8.30106E-004	10	..........a	-327.74
	2114	42.3	-3.86823E-001	5.08024E-005	0.00000E+000	-3.86000E-001	-8.59272E-004	10	..........a	-327.74
	2121	42.44	-3.79805E-001	4.94865E-005	0.00000E+000	-3.79000E-001	-8.48439E-004	10	..........a	-327.74
	2128	42.58	-3.72851E-001	4.76902E-005	0.00000E+000	-3.72000E-001	-8.69272E-004	10	..........a	-327.74
	2135	42.72	-3.65884E-001	4.62448E-005	0.00000E+000	-3.65000E-001	-8.49272E-004	10	..........a	-327.74
	2142	42.86	-3.58792E-001	4.48955E-005	0.00000E+000	-3.58000E-001	-8.70106E-004	10	..........a	-327.74
	2149	43	-3.51895E-001	4.34835E-005	0.00000E+000	-3.51000E-001	-8.64272E-004	10	..........a	-327.74
	2156	43.14	-3.44865E-001	4.24600E-005	0.00000E+000	-3.44000E-001	-8.48439E-004	10	..........a	-327.74
	2163	43.28	-3.37839E-001	4.14950E-005	0.00000E+000	-3.37000E-001	-8.47606E-004	10	..........a	-327.74
	2170	43.42	-3.30888E-001	4.02835E-005	0.00000E+000	-3.30000E-001	-8.59272E-004	10	..........a	-327.74
	2177	43.56	-3.23858E-001	3.92350E-005	0.00000E+000	-3.23000E-001	-8.64272E-004	10	..........a	-327.74
	2184	43.7	-3.16933E-001	3.83870E-005	0.00000E+000	-3.16000E-001	-8.29272E-004	10	..........a	-327.74
	2191	43.84	-3.09904E-001	3.76601E-005	0.00000E+000	-3.09000E-001	-8.40106E-004	10	..........a	-327.74
	2198	43.98	-3.02861E-001	3.67452E-005	0.00000E+000	-3.02000E-001	-8.44272E-004	10	..........a	-327.74
	2205	44.12	-2.95891E-001	3.60518E-005	0.00000E+000	-2.95000E-001	-8.65939E-004	10	..........a	-327.74
	2212	44.26	-2.88910E-001	3.52246E-005	0.00000E+000	-2.88000E-001	-8.61772E-004	10	..........a	-327.74
	2219	44.4	-2.81885E-001	3.47191E-005	0.00000E+000	-2.81000E-001	-8.60106E-004	10	..........a	-327.74
	2226	44.54	-2.74855E-001	3.38210E-005	0.00000E+000	-2.74000E-001	-8.55939E-004	10	..........a	-327.74
	2233	44.68	-2.67739E-001	3.32278E-005	0.00000E+000	-2.67000E-001	-8.45106E-004	10	..........a	-327.74
	2240	44.82	-2.60831E-001	3.24173E-005	0.00000E+000	-2.60000E-001	-8.68439E-004	10	..........a	-327.74
	2247	44.96	-2.53896E-001	3.17155E-005	0.00000E+000	-2.53000E-001	-8.86772E-004	10	..........a	-327.74
	2254	45.1	-2.46863E-001	3.10471E-005	0.00000E+000	-2.46000E-001	-8.81772E-004	10	..........a	-327.74
	2261	45.24	-2.39921E-001	3.05667E-005	0.00000E+000	-2.39000E-001	-8.75939E-004	10	..........a	-327.74
	2268	45.38	-2.32917E-001	2.97229E-005	0.00000E+000	-2.32000E-001	-8.42605E-004	10	..........a	-327.74
	2275	45.52	-2.25924E-001	2.91506E-005	0.00000E+000	-2.25000E-001	-8.49272E-004	10	..........a	-327.74
	2282	45.66	-2.18858E-001	2.88247E-005	0.00000E+000	-2.18000E-001	-8.55939E-004	10	..........a	-327.74
	2289	45.8	-2.11902E-001	2.78931E-005	0.00000E+000	-2.11000E-001	-8.75105E-004	10	..........a	-327.74
	2296	45.94	-2.04952E-001	2.77177E-005	0.00000E+000	-2.04000E-001	-8.90106E-004	10	..........a	-327.74
	2303	46.08	-1.97932E-001	2.69866E-005	0.00000E+000	-1.97000E-001	-8.77606E-004	10	..........a	-327.74
	2310	46.22	-1.90888E-001	2.64310E-005	0.00000E+000	-1.90000E-001	-8.50939E-004	10	..........a	-327.74
	2317	46.36	-1.83927E-001	2.58420E-005	0.00000E+000	-1.83000E-001	-8.42605E-004	10	..........a	-327.74
	2324	46.5	-1.76909E-001	2.53783E-005	0.00000E+000	-1.76000E-001	-8.35939E-004	10	..........a	-327.74
	2331	46.64	-1.69930E-001	2.47935E-005	0.00000E+000	-1.69000E-001	-8.49272E-004	10	..........a	-327.74
	2338	46.78	-1.63032E-001	2.44843E-005	0.00000E+000	-1.62000E-001	-8.66772E-004	10	..........a	-327.74
	2345	46.92	-1.55909E-001	2.40123E-005	0.00000E+000	-1.55000E-001	-8.73439E-004	10	..........a	-327.74
	2352	47.06	-1.48944E-001	2.36488E-005	0.00000E+000	-1.48000E-001	-8.85939E-004	10	..........a	-327.74
	2359	47.2	-1.41945E-001	2.32896E-005	0.00000E+000	-1.41000E-001	-8.57606E-004	10	..........a	-327.74
	2366	47.34	-1.34925E-001	2.29219E-005	0.00000E+000	-1.34000E-001	-8.74272E-004	10	..........a	-327.74
	2373	47.48	-1.27946E-001	2.27716E-005	0.00000E+000	-1.27000E-001	-8.55939E-004	10	..........a	-327.74
	2380	47.62	-1.20969E-001	2.25460E-005	0.00000E+000	-1.20000E-001	-8.46772E-004	10	..........a	-327.74
	2387	47.76	-1.13949E-001	2.19319E-005	0.00000E+000	-1.13000E-001	-8.53439E-004	10	..........a	-327.74
	2394	47.9	-1.06996E-001	2.17230E-005	0.00000E+000	-1.06000E-001	-8.40106E-004	10	..........a	-327.74
	2401	48.04	-9.99664E-002	2.12384E-005	0.00000E+000	-9.90000E-002	-8.30106E-004	10	..........a	-327.74
	2408	48.18	-9.30019E-002	2.06870E-005	0.00000E+000	-9.20000E-002	-8.41772E-004	10	..........a	-327.74
	2415	48.32	-8.59827E-002	2.04405E-005	0.00000E+000	-8.50000E-002	-8.51772E-004	10	..........a	-327.74
	2422	48.46	-7.89364E-002	1.99267E-005	0.00000E+000	-7.80000E-002	-8.65106E-004	10	..........a	-327.74
	2429	48.6	-7.19789E-002	1.97262E-005	0.00000E+000	-7.10000E-002	-8.50939E-004	10	..........a	-327.74
	2436	48.74	-6.49985E-002	1.92416E-005	0.00000E+000	-6.40000E-002	-8.80105E-004	10	..........a	-327.74
	2443	48.88	-5.79502E-002	1.90411E-005	0.00000E+000	-5.70000E-002	-8.70939E-004	10	..........a	-327.74
	2450	49.02	-5.09777E-002	1.85941E-005	0.00000E+000	-5.00000E-002	-8.60106E-004	10	..........a	-327.74
	2457	49.16	-4.39477E-002	1.84312E-005	0.00000E+000	-4.30000E-002	-8.54272E-004	10	..........a	-327.74
	2464	49.3	-3.69494E-002	1.81095E-005	0.00000E+000	-3.60000E-002	-8.52606E-004	10	..........a	-327.74
	2471	49.44	-2.99456E-002	1.78630E-005	0.00000E+000	-2.90000E-002	-8.56772E-004	10	..........a	-327.74
	2478	49.58	-2.29289E-002	1.73784E-005	0.00000E+000	-2.20000E-002	-8.56772E-004	10	..........a	-327.74
	2485	49.72	-1.59669E-002	1.72364E-005	0.00000E+000	-1.50000E-002	-8.47606E-004	10	..........a	-327.74
	2492	49.86	-8.90935E-003	1.70526E-005	0.00000E+000	-8.00000E-003	-8.49272E-004	10	..........a	-327.74
	2499	50	-1.95727E-003	1.71069E-005	0.00000E+000	-1.00000E-003	-8.42605E-004	10	..........a	-327.74
	2506	50.14	5.00481E-003	1.68563E-005	0.00000E+000	5.99998E-003	-8.52606E-004	10	..........a	-327.74
	2513	50.28	1.20452E-002	1.67602E-005	0.00000E+000	1.30000E-002	-8.59272E-004	10	..........a	-327.74
	2520	50.42	1.90561E-002	1.65137E-005	0.00000E+000	2.00000E-002	-8.67606E-004	10	..........a	-327.74
	2527	50.56	2.60052E-002	1.62296E-005	0.00000E+000	2.70000E-002	-8.68439E-004	10	..........a	-327.74
	2534	50.7	3.30327E-002	1.60458E-005	0.00000E+000	3.40000E-002	-8.86772E-004	10	..........a	-327.74
	2541	50.84	4.00036E-002	1.60918E-005	0.00000E+000	4.10000E-002	-8.95106E-004	10	..........a	-327.74
	2548	50.98	4.70327E-002	1.58495E-005	0.00000E+000	4.80000E-002	-8.89272E-004	10	..........a	-327.74
	2555	51.12	5.39915E-002	1.56197E-005	0.00000E+000	5.50000E-002	-8.88439E-004	10	..........a	-327.74
	2562	51.26	6.09940E-002	1.54777E-005	0.00000E+000	6.20000E-002	-9.09272E-004	10	..........a	-327.74
	2569	51.4	6.80215E-002	1.53524E-005	0.00000E+000	6.90000E-002	-8.80105E-004	10	..........a	-327.74
	2576	51.54	7.49977E-002	1.51184E-005	0.00000E+000	7.60000E-002	-8.82606E-004	10	..........a	-327.74
	2583	51.68	8.19781E-002	1.51769E-005	0.00000E+000	8.30000E-002	-8.86772E-004	10	..........a	-327.74
	2590	51.82	8.90198E-002	1.52145E-005	0.00000E+000	9.00000E-002	-8.91772E-004	10	..........a	-327.74
	2597	51.96	9.59902E-002	1.50850E-005	0.00000E+000	9.70000E-002	-8.88439E-004	10	..........a	-327.74
	2604	52.1	1.02964E-001	1.50558E-005	0.00000E+000	1.04000E-001	-9.00105E-004	10	..........a	-327.74
	2611	52.24	1.09995E-001	1.50182E-005	0.00000E+000	1.11000E-001	-9.00105E-004	10	..........a	-327.74
	2618	52.38	1.16936E-001	1.49137E-005	0.00000E+000	1.18000E-001	-8.94272E-004	10	..........a	-327.74
	2625	52.52	1.23990E-001	1.51686E-005	0.00000E+000	1.25000E-001	-8.85939E-004	10	..........a	-327.74
	2632	52.66	1.30954E-001	1.49346E-005	0.00000E+000	1.32000E-001	-8.83439E-004	10	..........a	-327.74
	2639	52.8	1.37974E-001	1.49847E-005	0.00000E+000	1.39000E-001	-8.99272E-004	10	..........a	-327.74
	2646	52.94	1.45013E-001	1.51226E-005	0.00000E+000	1.46000E-001	-9.04272E-004	10	..........a	-327.74
	2653	53.08	1.51972E-001	1.50641E-005	0.00000E+000	1.53000E-001	-8.80939E-004	10	..........a	-327.74
	2660	53.22	1.58945E-001	1.50056E-005	0.00000E+000	1.60000E-001	-8.84272E-004	10	..........a	-327.74
	2667	53.36	1.65961E-001	1.49263E-005	0.00000E+000	1.67000E-001	-8.86772E-004	10	..........a	-327.74
	2674	53.5	1.72933E-001	1.50098E-005	0.00000E+000	1.74000E-001	-9.01772E-004	10	..........a	-327.74
	2681	53.64	1.79917E-001	1.47049E-005	0.00000E+000	1.81000E-001	-8.73439E-004	10	..........a	-327.74
	2688	53.78	1.86938E-001	1.45210E-005	0.00000E+000	1.88000E-001	-8.77606E-004	10	..........a	-327.74
	2695	53.92	1.93956E-001	1.44250E-005	0.00000E+000	1.95000E-001	-8.61772E-004	10	..........a	-327.74
	2702	54.06	2.01011E-001	1.43748E-005	0.00000E+000	2.02000E-001	-8.95106E-004	10	..........a	-327.74
	2709	54.2	2.07879E-001	1.40866E-005	0.00000E+000	2.09000E-001	-8.67606E-004	10	..........a	-327.74
	2716	54.34	2.14891E-001	1.37775E-005	0.00000E+000	2.16000E-001	-8.65106E-004	10	..........a	-327.74
	2723	54.48	2.21994E-001	1.37942E-005	0.00000E+000	2.23000E-001	-8.66772E-004	10	..........a	-327.74
	2730	54.62	2.28895E-001	1.36104E-005	0.00000E+000	2.30000E-001	-8.75939E-004	10	..........a	-327.74
	2737	54.76	2.35903E-001	1.33305E-005	0.00000E+000	2.37000E-001	-8.52606E-004	10	..........a	-327.74
	2744	54.9	2.42894E-001	1.32845E-005	0.00000E+000	2.44000E-001	-8.58439E-004	10	..........a	-327.74
	2751	55.04	2.49907E-001	1.30840E-005	0.00000E+000	2.51000E-001	-8.55939E-004	10	..........a	-327.74
	2758	55.18	2.56906E-001	1.30882E-005	0.00000E+000	2.58000E-001	-8.60106E-004	10	..........a	-327.74
	2765	55.32	2.63887E-001	1.27874E-005	0.00000E+000	2.65000E-001	-8.75939E-004	10	..........a	-327.74
	2772	55.46	2.70877E-001	1.25284E-005	0.00000E+000	2.72000E-001	-8.82606E-004	10	..........a	-327.74
	2779	55.6	2.77957E-001	1.24657E-005	0.00000E+000	2.79000E-001	-8.61772E-004	10	..........a	-327.74
	2786	55.74	2.84879E-001	1.23822E-005	0.00000E+000	2.86000E-001	-8.80105E-004	10	..........a	-327.74
	2793	55.88	2.91863E-001	1.23488E-005	0.00000E+000	2.93000E-001	-8.69272E-004	10	..........a	-327.74
	2800	56.02	2.98879E-001	1.21274E-005	0.00000E+000	3.00000E-001	-8.98439E-004	10	..........a	-327.74
	2807	56.16	3.05883E-001	1.20689E-005	0.00000E+000	3.07000E-001	-8.85939E-004	10	..........a	-327.74
	2814	56.3	3.12881E-001	1.19059E-005	0.00000E+000	3.14000E-001	-8.80939E-004	10	..........a	-327.74
	2821	56.44	3.19867E-001	1.18851E-005	0.00000E+000	3.21000E-001	-8.87605E-004	10	..........a	-327.74
	2828	56.58	3.26878E-001	1.16720E-005	0.00000E+000	3.28000E-001	-8.78439E-004	10	..........a	-327.74
	2835	56.72	3.33858E-001	1.15091E-005	0.00000E+000	3.35000E-001	-9.09272E-004	10	..........a	-327.74
	2842	56.86	3.40864E-001	1.11331E-005	0.00000E+000	3.42000E-001	-8.81772E-004	10	..........a	-327.74
	2849	57	3.47796E-001	1.10161E-005	0.00000E+000	3.49000E-001	-8.93439E-004	10	..........a	-327.74
	2856	57.14	3.54865E-001	1.11415E-005	0.00000E+000	3.56000E-001	-8.75105E-004	10	..........a	-327.74
	2863	57.28	3.61828E-001	1.08992E-005	0.00000E+000	3.63000E-001	-8.68439E-004	10	..........a	-327.74
	2870	57.42	3.68871E-001	1.07780E-005	0.00000E+000	3.70000E-001	-8.71772E-004	10	..........a	-327.74
	2877	57.56	3.75839E-001	1.08114E-005	0.00000E+000	3.77000E-001	-8.75105E-004	10	..........a	-327.74
	2884	57.7	3.82887E-001	1.04981E-005	0.00000E+000	3.84000E-001	-8.66772E-004	10	..........a	-327.74
	2891	57.84	3.89879E-001	1.06527E-005	0.00000E+000	3.91000E-001	-8.76772E-004	10	..........a	-327.74
	2898	57.98	3.96859E-001	1.05524E-005	0.00000E+000	3.98000E-001	-8.75939E-004	10	..........a	-327.74
	2905	58.12	4.03875E-001	1.03979E-005	0.00000E+000	4.05000E-001	-8.69272E-004	10	..........a	-327.74
	2912	58.26	4.10876E-001	1.01389E-005	0.00000E+000	4.12000E-001	-8.44272E-004	10	..........a	-327.74
	2919	58.4	4.17841E-001	1.01848E-005	0.00000E+000	4.19000E-001	-8.50105E-004	10	..........a	-327.74
	2926	58.54	4.24886E-001	1.00511E-005	0.00000E+000	4.26000E-001	-8.55939E-004	10	..........a	-327.74
	2933	58.68	4.31864E-001	9.92164E-006	0.00000E+000	4.33000E-001	-8.55105E-004	10	..........a	-327.74
	2940	58.82	4.38844E-001	1.00762E-005	0.00000E+000	4.40000E-001	-8.49272E-004	10	..........a	-327.74
	2947	58.96	4.45859E-001	9.95924E-006	0.00000E+000	4.47000E-001	-8.42605E-004	10	..........a	-327.74
	2954	59.1	4.52859E-001	9.99684E-006	0.00000E+000	4.54000E-001	-8.49272E-004	10	..........a	-327.74
	2961	59.24	4.59873E-001	9.85063E-006	0.00000E+000	4.61000E-001	-8.55105E-004	10	..........a	-327.74
	2968	59.38	4.66849E-001	9.54567E-006	0.00000E+000	4.68000E-001	-8.46772E-004	10	..........a	-327.74
	2975	59.52	4.73851E-001	9.46630E-006	0.00000E+000	4.75000E-001	-8.28439E-004	10	..........a	-327.74
	2982	59.66	4.80870E-001	9.59163E-006	0.00000E+000	4.82000E-001	-8.59272E-004	10	..........a	-327.74
	2989	59.8	4.87829E-001	9.44123E-006	0.00000E+000	4.89000E-001	-8.44272E-004	10	..........a	-327.74
	2996	59.94	4.94838E-001	9.33680E-006	0.00000E+000	4.96000E-001	-8.25105E-004	10	..........a	-327.74
	3000	60.02	4.98836E-001	9.37022E-006	0.00000E+000	5.00000E-001	-8.18439E-004	10	..........a	-327.74
CURVE2	TABLE
	Pt	T	Vf	Im	Vu	Sig	Ach	IERange	Over	Temp
	#	s	V vs. Ref.	A	V	V	V	#	bits	deg C
	3001	60.04	4.98841E-001	9.28667E-006	0.00000E+000	5.00000E-001	-8.37606E-004	10	..........a	-327.74