File: data/02-SI/Figures_S9_S11_RDE/15btmapaq-rde/1mkcl-15btmapaq-nitrogen-400mvpers.DTA
EXPLAIN
TAG	CV
TITLE	LABEL	Cyclic Voltammetry	Test &Identifier
DATE	LABEL	1/31/2023	Date
TIME	LABEL	18:18:33	Time
NOTES	NOTES	1	&Notes...

PSTAT	PSTAT	REF3000-21108	Potentiostat
VINIT	POTEN	5.00000E-001	F	Initial &E (V)
VLIMIT1	POTEN	-1.00000E+000	F	Scan Limit &1 (V)
VLIMIT2	POTEN	5.00000E-001	F	Scan Limit &2 (V)
VFINAL	POTEN	5.00000E-001	F	Final &E (V)
SCANRATE	QUANT	3.99999E+002	&Scan Rate (mV/s)
STEPSIZE	QUANT	1.00000E+000	St&ep Size (mV)
CYCLES	IQUANT	1	C&ycles (#)
IMODE	SELECTOR	1	I/E Range &Mode
IRANGE	QUANT	1.00000E+001	&Max Current (mA)
AREA	QUANT	1.00000E+000	Electrode &Area (cm^2)
ELECTRODETYPE	SELECTOR	0	Electrode Type
STRIPPING	TOGGLE	F	Used for Stripping
POLARITY	TOGGLE	F	Signal Polarity
CONDIT	TWOPARAM	F	1.50000E+001	0.00000E+000	Conditionin&g	Time(s)	E(V)
DELAY	TWOPARAM	F	5.00000E+000	0.00000E+000	Init. De&lay	Time(s)	Stab.(mV/s)
EQDELAY	QUANT	0.00000E+000	Equil. &Time (s)
IRCOMP	SELECTOR	0	IRCom&p
PFCOR	QUANT	5.00000E+001	PF Corr. (ohm)
SAMPLINGMODE	SELECTOR	1	Sampling &Mode
EOC	QUANT	0	Open Circuit (V)
PSTATMODEL	IQUANT	5	Pstat Model
PSTATSECTION	LABEL	REF3000-21108	Pstat Section
PSTATSERIALNO	LABEL	21108	Pstat Serial Number
CTRLMODE	IQUANT	1	Control Mode
ELECTROMETER	IQUANT	0	RE=0 or CS=1
IESTAB	IQUANT	2	I/E Stability
CASPEED	IQUANT	4	Control Amp Speed
CONVENTION	IQUANT	1	Current Convention
ICHRANGE	IQUANT	2	Ich Range
ICHRANGEMODE	TOGGLE	F	Ich Auto Range
ICHOFFSETENABLE	TOGGLE	F	Ich Offset Enable
ICHOFFSET	QUANT	0	Ich Offset (V)
ICHFILTER	IQUANT	2	Ich Filter
VCHRANGE	IQUANT	2	Vch Range
VCHRANGEMODE	TOGGLE	F	Vch Auto Range
VCHOFFSETENABLE	TOGGLE	F	Vch Offset Enable
VCHOFFSET	QUANT	0	Vch Offset (V)
VCHFILTER	IQUANT	2	Vch Filter
ACHRANGE	IQUANT	2	Ach Range
ACHOFFSETENABLE	TOGGLE	F	Ach Offset Enable
ACHOFFSET	QUANT	0	Ach Offset (V)
ACHFILTER	IQUANT	0	Ach Filter
IERANGELOWERLIMIT	IQUANT	2	I/E Range Lower Limit
IERANGEMODE	TOGGLE	F	I/E AutoRange
IERANGE	IQUANT	10	I/E Range
POSFEEDENABLE	TOGGLE	F	Positive Feedback IR Comp
POSFEEDRESISTANCE	QUANT	0	Positive Feedback Resistance (ohm)
ACHSELECT	IQUANT	0	Ach Select
SENSECABLEID	IQUANT	14	Sense Cable ID
PWRCABLEID	IQUANT	7	Power Cable ID
DCCALDATE	LABEL	11/9/2022	DC Calibration Date
ACCALDATE	LABEL	11/9/2022	AC Calibration Date
THERMOSELECT	IQUANT	1	Thermo Select
FRAMEWORKVERSION	LABEL	7.8.2	Framework Version
INSTRUMENTVERSION	LABEL	4.40	Instrument Version
COMPLIANCEVOLTAGE	IQUANT	0	Compliance Voltage
CURVE1	TABLE
	Pt	T	Vf	Im	Vu	Sig	Ach	IERange	Over	Temp
	#	s	V vs. Ref.	A	V	V	V	#	bits	deg C
	0	0.0025	4.98764E-001	9.60695E-005	0.00000E+000	5.00000E-001	-9.02606E-004	10	..........a	-327.74
	7	0.02	4.91668E-001	7.78557E-005	0.00000E+000	4.93000E-001	-9.29272E-004	10	..........a	-327.74
	14	0.0375	4.84741E-001	6.65264E-005	0.00000E+000	4.86000E-001	-9.89272E-004	10	..........a	-327.74
	21	0.055	4.77724E-001	5.92075E-005	0.00000E+000	4.79000E-001	-9.89272E-004	10	..........a	-327.74
	28	0.0725	4.70674E-001	5.37935E-005	0.00000E+000	4.72000E-001	-9.75939E-004	10	..........a	-327.74
	35	0.09	4.63694E-001	4.93487E-005	0.00000E+000	4.65000E-001	-9.69272E-004	10	..........a	-327.74
	42	0.1075	4.56654E-001	4.61738E-005	0.00000E+000	4.58000E-001	-1.04927E-003	10	..........a	-327.74
	49	0.125	4.49641E-001	4.26981E-005	0.00000E+000	4.51000E-001	-1.08261E-003	10	..........a	-327.74
	56	0.1425	4.42708E-001	4.05927E-005	0.00000E+000	4.44000E-001	-1.01594E-003	10	..........a	-327.74
	63	0.16	4.35681E-001	3.78188E-005	0.00000E+000	4.37000E-001	-9.89272E-004	10	..........a	-327.74
	70	0.1775	4.28601E-001	3.65154E-005	0.00000E+000	4.30000E-001	-1.00927E-003	10	..........a	-327.74
	77	0.195	4.21801E-001	3.44100E-005	0.00000E+000	4.23000E-001	-9.02606E-004	10	..........a	-327.74
	84	0.2125	4.14724E-001	3.30398E-005	0.00000E+000	4.16000E-001	-9.75939E-004	10	..........a	-327.74
	91	0.23	4.07758E-001	3.18033E-005	0.00000E+000	4.09000E-001	-1.00261E-003	10	..........a	-327.74
	98	0.2475	4.00744E-001	3.06001E-005	0.00000E+000	4.02000E-001	-9.82606E-004	10	..........a	-327.74
	105	0.265	3.93761E-001	2.92634E-005	0.00000E+000	3.95000E-001	-9.95939E-004	10	..........a	-327.74
	112	0.2825	3.86818E-001	2.81271E-005	0.00000E+000	3.88000E-001	-9.55939E-004	10	..........a	-327.74
	119	0.3	3.79768E-001	2.77260E-005	0.00000E+000	3.81000E-001	-9.75939E-004	10	..........a	-327.74
	126	0.3175	3.72688E-001	2.65898E-005	0.00000E+000	3.74000E-001	-1.03594E-003	10	..........a	-327.74
	133	0.335	3.65814E-001	2.55872E-005	0.00000E+000	3.67000E-001	-8.15939E-004	10	..........a	-327.74
	140	0.3525	3.58798E-001	2.50525E-005	0.00000E+000	3.60000E-001	-8.35939E-004	10	..........a	-327.74
	147	0.37	3.51761E-001	2.40833E-005	0.00000E+000	3.53000E-001	-1.00927E-003	10	..........a	-327.74
	154	0.3875	3.44751E-001	2.36154E-005	0.00000E+000	3.46000E-001	-8.89272E-004	10	..........a	-327.74
	161	0.405	3.37771E-001	2.30139E-005	0.00000E+000	3.39000E-001	-9.22606E-004	10	..........a	-327.74
	168	0.4225	3.30771E-001	2.27799E-005	0.00000E+000	3.32000E-001	-1.04927E-003	10	..........a	-327.74
	175	0.44	3.23684E-001	2.15434E-005	0.00000E+000	3.25000E-001	-9.49272E-004	10	..........a	-327.74
	182	0.4575	3.16734E-001	2.12426E-005	0.00000E+000	3.18000E-001	-9.82606E-004	10	..........a	-327.74
	189	0.475	3.09751E-001	2.07079E-005	0.00000E+000	3.11000E-001	-1.00927E-003	10	..........a	-327.74
	196	0.4925	3.02718E-001	1.97387E-005	0.00000E+000	3.04000E-001	-1.03594E-003	10	..........a	-327.74
	203	0.51	2.95731E-001	1.95048E-005	0.00000E+000	2.97000E-001	-1.04927E-003	10	..........a	-327.74
	210	0.5275	2.88751E-001	1.87695E-005	0.00000E+000	2.90000E-001	-1.00261E-003	10	..........a	-327.74
	217	0.545	2.81738E-001	1.78672E-005	0.00000E+000	2.83000E-001	-9.49272E-004	10	..........a	-327.74
	224	0.5625	2.74874E-001	1.77001E-005	0.00000E+000	2.76000E-001	-9.09272E-004	10	..........a	-327.74
	231	0.58	2.67804E-001	1.73325E-005	0.00000E+000	2.69000E-001	-9.95939E-004	10	..........a	-327.74
	238	0.5975	2.60794E-001	1.64970E-005	0.00000E+000	2.62000E-001	-8.89272E-004	10	..........a	-327.74
	245	0.615	2.53868E-001	1.62296E-005	0.00000E+000	2.55000E-001	-9.09272E-004	10	..........a	-327.74
	252	0.6325	2.46844E-001	1.55947E-005	0.00000E+000	2.48000E-001	-9.42605E-004	10	..........a	-327.74
	259	0.65	2.39808E-001	1.49597E-005	0.00000E+000	2.41000E-001	-9.82606E-004	10	..........a	-327.74
	266	0.6675	2.32831E-001	1.50599E-005	0.00000E+000	2.34000E-001	-8.82606E-004	10	..........a	-327.74
	273	0.685	2.25821E-001	1.43581E-005	0.00000E+000	2.27000E-001	-9.42605E-004	10	..........a	-327.74
	280	0.7025	2.18808E-001	1.42244E-005	0.00000E+000	2.20000E-001	-1.04261E-003	10	..........a	-327.74
	287	0.72	2.11768E-001	1.29545E-005	0.00000E+000	2.13000E-001	-9.75939E-004	10	..........a	-327.74
	294	0.7375	2.04794E-001	1.32887E-005	0.00000E+000	2.06000E-001	-1.10927E-003	10	..........a	-327.74
	301	0.755	1.97861E-001	1.16177E-005	0.00000E+000	1.99000E-001	-1.06927E-003	10	..........a	-327.74
	308	0.7725	1.90821E-001	1.16177E-005	0.00000E+000	1.92000E-001	-9.95939E-004	10	..........a	-327.74
	315	0.79	1.83738E-001	1.11832E-005	0.00000E+000	1.85000E-001	-1.03594E-003	10	..........a	-327.74
	322	0.8075	1.76848E-001	1.06819E-005	0.00000E+000	1.78000E-001	-9.42605E-004	10	..........a	-327.74
	329	0.825	1.69751E-001	1.01138E-005	0.00000E+000	1.71000E-001	-9.29272E-004	10	..........a	-327.74
	336	0.8425	1.62858E-001	9.17805E-006	0.00000E+000	1.64000E-001	-9.89272E-004	10	..........a	-327.74
	343	0.86	1.55858E-001	9.41199E-006	0.00000E+000	1.57000E-001	-9.82606E-004	10	..........a	-327.74
	350	0.8775	1.48864E-001	8.81044E-006	0.00000E+000	1.50000E-001	-1.06261E-003	10	..........a	-327.74
	357	0.895	1.41898E-001	8.07520E-006	0.00000E+000	1.43000E-001	-9.29272E-004	10	..........a	-327.74
	364	0.9125	1.34821E-001	7.74100E-006	0.00000E+000	1.36000E-001	-9.22606E-004	10	..........a	-327.74
	371	0.93	1.27834E-001	7.23971E-006	0.00000E+000	1.29000E-001	-1.00927E-003	10	..........a	-327.74
	378	0.9475	1.20858E-001	6.83867E-006	0.00000E+000	1.22000E-001	-1.04927E-003	10	..........a	-327.74
	385	0.965	1.13854E-001	6.50447E-006	0.00000E+000	1.15000E-001	-9.55939E-004	10	..........a	-327.74
	392	0.9825	1.06844E-001	6.30395E-006	0.00000E+000	1.08000E-001	-1.07594E-003	10	..........a	-327.74
	399	1	9.98444E-002	5.53530E-006	0.00000E+000	1.01000E-001	-9.75939E-004	10	..........a	-327.74
	406	1.0175	9.28377E-002	5.66898E-006	0.00000E+000	9.40000E-002	-9.29272E-004	10	..........a	-327.74
	413	1.035	8.58644E-002	5.16768E-006	0.00000E+000	8.70000E-002	-8.82606E-004	10	..........a	-327.74
	420	1.0525	7.88177E-002	4.36560E-006	0.00000E+000	8.00000E-002	-9.35939E-004	10	..........a	-327.74
	427	1.07	7.18044E-002	4.53270E-006	0.00000E+000	7.30000E-002	-1.00261E-003	10	..........a	-327.74
	434	1.0875	6.47377E-002	4.53270E-006	0.00000E+000	6.60000E-002	-1.13594E-003	10	..........a	-327.74
	441	1.105	5.78277E-002	3.73063E-006	0.00000E+000	5.90000E-002	-1.07594E-003	10	..........a	-327.74
	448	1.1225	5.08511E-002	4.09824E-006	0.00000E+000	5.20000E-002	-1.05594E-003	10	..........a	-327.74
	455	1.14	4.37944E-002	3.73063E-006	0.00000E+000	4.50000E-002	-9.89272E-004	10	..........a	-327.74
	462	1.1575	3.68544E-002	3.63037E-006	0.00000E+000	3.80000E-002	-1.07594E-003	10	..........a	-327.74
	469	1.175	2.99244E-002	3.56353E-006	0.00000E+000	3.10000E-002	-9.95939E-004	10	..........a	-327.74
	476	1.1925	2.28977E-002	3.26275E-006	0.00000E+000	2.40000E-002	-8.69272E-004	10	..........a	-327.74
	483	1.21	1.58744E-002	3.12907E-006	0.00000E+000	1.70000E-002	-1.06261E-003	10	..........a	-327.74
	490	1.2275	8.96440E-003	2.79487E-006	0.00000E+000	9.99999E-003	-9.89272E-004	10	..........a	-327.74
	497	1.245	1.88773E-003	2.62777E-006	0.00000E+000	2.99999E-003	-9.15939E-004	10	..........a	-327.74
	504	1.2625	-5.04560E-003	2.39384E-006	0.00000E+000	-4.00001E-003	-9.29272E-004	10	..........a	-327.74
	511	1.28	-1.20823E-002	2.42725E-006	0.00000E+000	-1.10000E-002	-9.89272E-004	10	..........a	-327.74
	518	1.2975	-1.90956E-002	2.32700E-006	0.00000E+000	-1.80000E-002	-9.35939E-004	10	..........a	-327.74
	525	1.315	-2.59789E-002	1.72544E-006	0.00000E+000	-2.50000E-002	-7.89272E-004	10	..........a	-327.74
	532	1.3325	-3.30489E-002	2.19332E-006	0.00000E+000	-3.20000E-002	-9.42605E-004	10	..........a	-327.74
	539	1.35	-4.01089E-002	2.15990E-006	0.00000E+000	-3.90000E-002	-9.02606E-004	10	..........a	-327.74
	546	1.3675	-4.70356E-002	2.09306E-006	0.00000E+000	-4.60000E-002	-9.22606E-004	10	..........a	-327.74
	553	1.385	-5.39956E-002	1.92596E-006	0.00000E+000	-5.30000E-002	-8.49272E-004	10	..........a	-327.74
	560	1.4025	-6.10389E-002	1.79228E-006	0.00000E+000	-6.00000E-002	-8.89272E-004	10	..........a	-327.74
	567	1.42	-6.80823E-002	2.19332E-006	0.00000E+000	-6.70000E-002	-9.29272E-004	10	..........a	-327.74
	574	1.4375	-7.51089E-002	2.42725E-006	0.00000E+000	-7.40000E-002	-1.00261E-003	10	..........a	-327.74
	581	1.455	-8.20356E-002	2.39384E-006	0.00000E+000	-8.10000E-002	-1.02927E-003	10	..........a	-327.74
	588	1.4725	-8.90456E-002	2.52751E-006	0.00000E+000	-8.80000E-002	-9.35939E-004	10	..........a	-327.74
	595	1.49	-9.60589E-002	2.12648E-006	0.00000E+000	-9.50000E-002	-9.55939E-004	10	..........a	-327.74
	602	1.5075	-1.02956E-001	2.15990E-006	0.00000E+000	-1.02000E-001	-9.55939E-004	10	..........a	-327.74
	609	1.525	-1.09979E-001	2.15990E-006	0.00000E+000	-1.09000E-001	-9.42605E-004	10	..........a	-327.74
	616	1.5425	-1.17079E-001	1.95938E-006	0.00000E+000	-1.16000E-001	-1.02927E-003	10	..........a	-327.74
	623	1.56	-1.24039E-001	2.09306E-006	0.00000E+000	-1.23000E-001	-1.02261E-003	10	..........a	-327.74
	630	1.5775	-1.31096E-001	2.12648E-006	0.00000E+000	-1.30000E-001	-9.95939E-004	10	..........a	-327.74
	637	1.595	-1.37929E-001	1.15730E-006	0.00000E+000	-1.37000E-001	-8.89272E-004	10	..........a	-327.74
	644	1.6125	-1.45049E-001	9.56784E-007	0.00000E+000	-1.44000E-001	-9.22606E-004	10	..........a	-327.74
	651	1.63	-1.51966E-001	1.15730E-006	0.00000E+000	-1.51000E-001	-9.02606E-004	10	..........a	-327.74
	658	1.6475	-1.58956E-001	8.23105E-007	0.00000E+000	-1.58000E-001	-8.75939E-004	10	..........a	-327.74
	665	1.665	-1.65962E-001	5.55746E-007	0.00000E+000	-1.65000E-001	-8.75939E-004	10	..........a	-327.74
	672	1.6825	-1.73046E-001	1.25756E-006	0.00000E+000	-1.72000E-001	-9.15939E-004	10	..........a	-327.74
	679	1.7	-1.79979E-001	8.23105E-007	0.00000E+000	-1.79000E-001	-9.09272E-004	10	..........a	-327.74
	686	1.7175	-1.86966E-001	3.21808E-007	0.00000E+000	-1.86000E-001	-9.49272E-004	10	..........a	-327.74
	693	1.735	-1.93972E-001	-1.23905E-008	0.00000E+000	-1.93000E-001	-8.69272E-004	10	..........a	-327.74
	700	1.7525	-2.01032E-001	2.88388E-007	0.00000E+000	-2.00000E-001	-9.62605E-004	10	..........a	-327.74
	707	1.77	-2.07972E-001	-3.46589E-007	0.00000E+000	-2.07000E-001	-9.95939E-004	10	..........a	-327.74
	714	1.7875	-2.14929E-001	-2.46329E-007	0.00000E+000	-2.14000E-001	-1.01594E-003	10	..........a	-327.74
	721	1.805	-2.22002E-001	-7.92302E-008	0.00000E+000	-2.21000E-001	-1.04927E-003	10	..........a	-327.74
	728	1.8225	-2.29056E-001	-4.46848E-007	0.00000E+000	-2.28000E-001	-9.62605E-004	10	..........a	-327.74
	735	1.84	-2.35962E-001	-9.14725E-007	0.00000E+000	-2.35000E-001	-9.35939E-004	10	..........a	-327.74
	742	1.8575	-2.42972E-001	-9.48145E-007	0.00000E+000	-2.42000E-001	-9.29272E-004	10	..........a	-327.74
	749	1.875	-2.50009E-001	-1.34918E-006	0.00000E+000	-2.49000E-001	-1.04927E-003	10	..........a	-327.74
	756	1.8925	-2.57026E-001	-1.95074E-006	0.00000E+000	-2.56000E-001	-8.95939E-004	10	..........a	-327.74
	763	1.91	-2.64009E-001	-2.08442E-006	0.00000E+000	-2.63000E-001	-9.55939E-004	10	..........a	-327.74
	770	1.9275	-2.70976E-001	-2.41862E-006	0.00000E+000	-2.70000E-001	-1.00927E-003	10	..........a	-327.74
	777	1.945	-2.77906E-001	-3.22069E-006	0.00000E+000	-2.77000E-001	-8.55939E-004	10	..........a	-327.74
	784	1.9625	-2.85022E-001	-3.38779E-006	0.00000E+000	-2.84000E-001	-8.95939E-004	10	..........a	-327.74
	791	1.98	-2.91992E-001	-4.32354E-006	0.00000E+000	-2.91000E-001	-9.29272E-004	10	..........a	-327.74
	798	1.9975	-2.98966E-001	-4.15645E-006	0.00000E+000	-2.98000E-001	-9.62605E-004	10	..........a	-327.74
	805	2.015	-3.05996E-001	-4.08961E-006	0.00000E+000	-3.05000E-001	-9.95939E-004	10	..........a	-327.74
	812	2.0325	-3.12946E-001	-5.02536E-006	0.00000E+000	-3.12000E-001	-8.42605E-004	10	..........a	-327.74
	819	2.05	-3.19966E-001	-5.66034E-006	0.00000E+000	-3.19000E-001	-9.02606E-004	10	..........a	-327.74
	826	2.0675	-3.26942E-001	-5.42640E-006	0.00000E+000	-3.26000E-001	-9.15939E-004	10	..........a	-327.74
	833	2.085	-3.33909E-001	-6.06137E-006	0.00000E+000	-3.33000E-001	-8.82606E-004	10	..........a	-327.74
	840	2.1025	-3.40916E-001	-6.83003E-006	0.00000E+000	-3.40000E-001	-8.49272E-004	10	..........a	-327.74
	847	2.12	-3.47962E-001	-7.09739E-006	0.00000E+000	-3.47000E-001	-8.89272E-004	10	..........a	-327.74
	854	2.1375	-3.55012E-001	-7.86604E-006	0.00000E+000	-3.54000E-001	-9.29272E-004	10	..........a	-327.74
	861	2.155	-3.61949E-001	-9.03574E-006	0.00000E+000	-3.61000E-001	-1.01594E-003	10	..........a	-327.74
	868	2.1725	-3.69026E-001	-1.01720E-005	0.00000E+000	-3.68000E-001	-8.82606E-004	10	..........a	-327.74
	875	2.19	-3.76002E-001	-1.08070E-005	0.00000E+000	-3.75000E-001	-9.15939E-004	10	..........a	-327.74
	882	2.2075	-3.82906E-001	-1.36477E-005	0.00000E+000	-3.82000E-001	-9.89272E-004	10	..........a	-327.74
	889	2.225	-3.89916E-001	-1.54858E-005	0.00000E+000	-3.89000E-001	-9.09272E-004	10	..........a	-327.74
	896	2.2425	-3.96959E-001	-1.84935E-005	0.00000E+000	-3.96000E-001	-9.69272E-004	10	..........a	-327.74
	903	2.26	-4.03936E-001	-2.20026E-005	0.00000E+000	-4.03000E-001	-9.55939E-004	10	..........a	-327.74
	910	2.2775	-4.10936E-001	-2.59462E-005	0.00000E+000	-4.10000E-001	-9.49272E-004	10	..........a	-327.74
	917	2.295	-4.17922E-001	-3.11931E-005	0.00000E+000	-4.17000E-001	-9.22606E-004	10	..........a	-327.74
	924	2.3125	-4.24906E-001	-3.72086E-005	0.00000E+000	-4.24000E-001	-9.15939E-004	10	..........a	-327.74
	931	2.33	-4.31929E-001	-4.35250E-005	0.00000E+000	-4.31000E-001	-8.95939E-004	10	..........a	-327.74
	938	2.3475	-4.38899E-001	-4.98079E-005	0.00000E+000	-4.38000E-001	-9.82606E-004	10	..........a	-327.74
	945	2.365	-4.45929E-001	-5.68595E-005	0.00000E+000	-4.45000E-001	-9.75939E-004	10	..........a	-327.74
	952	2.3825	-4.52929E-001	-6.45794E-005	0.00000E+000	-4.52000E-001	-9.02606E-004	10	..........a	-327.74
	959	2.4	-4.59889E-001	-7.15642E-005	0.00000E+000	-4.59000E-001	-8.95939E-004	10	..........a	-327.74
	966	2.4175	-4.66839E-001	-7.85489E-005	0.00000E+000	-4.66000E-001	-8.95939E-004	10	..........a	-327.74
	973	2.435	-4.73932E-001	-8.55337E-005	0.00000E+000	-4.73000E-001	-9.35939E-004	10	..........a	-327.74
	980	2.4525	-4.80952E-001	-9.31534E-005	0.00000E+000	-4.80000E-001	-9.35939E-004	10	..........a	-327.74
	987	2.47	-4.87936E-001	-1.00539E-004	0.00000E+000	-4.87000E-001	-1.00261E-003	10	..........a	-327.74
	994	2.4875	-4.94886E-001	-1.09128E-004	0.00000E+000	-4.94000E-001	-9.89272E-004	10	..........a	-327.74
	1001	2.505	-5.01946E-001	-1.18619E-004	0.00000E+000	-5.01000E-001	-9.82606E-004	10	..........a	-327.74
	1008	2.5225	-5.08946E-001	-1.30316E-004	0.00000E+000	-5.08000E-001	-9.02606E-004	10	..........a	-327.74
	1015	2.54	-5.15836E-001	-1.43784E-004	0.00000E+000	-5.15000E-001	-8.69272E-004	10	..........a	-327.74
	1022	2.5575	-5.22896E-001	-1.59024E-004	0.00000E+000	-5.22000E-001	-9.29272E-004	10	..........a	-327.74
	1029	2.575	-5.29912E-001	-1.76603E-004	0.00000E+000	-5.29000E-001	-8.62605E-004	10	..........a	-327.74
	1036	2.5925	-5.36996E-001	-1.95585E-004	0.00000E+000	-5.36000E-001	-9.82606E-004	10	..........a	-327.74
	1043	2.61	-5.43916E-001	-2.16138E-004	0.00000E+000	-5.43000E-001	-9.55939E-004	10	..........a	-327.74
	1050	2.6275	-5.50879E-001	-2.35856E-004	0.00000E+000	-5.50000E-001	-1.04261E-003	10	..........a	-327.74
	1057	2.645	-5.57916E-001	-2.54070E-004	0.00000E+000	-5.57000E-001	-9.82606E-004	10	..........a	-327.74
	1064	2.6625	-5.64799E-001	-2.71114E-004	0.00000E+000	-5.64000E-001	-8.75939E-004	10	..........a	-327.74
	1071	2.68	-5.71782E-001	-2.84782E-004	0.00000E+000	-5.71000E-001	-9.49272E-004	10	..........a	-327.74
	1078	2.6975	-5.78849E-001	-2.94341E-004	0.00000E+000	-5.78000E-001	-9.22606E-004	10	..........a	-327.74
	1085	2.715	-5.85902E-001	-3.00289E-004	0.00000E+000	-5.85000E-001	-9.82606E-004	10	..........a	-327.74
	1092	2.7325	-5.92862E-001	-3.02829E-004	0.00000E+000	-5.92000E-001	-9.55939E-004	10	..........a	-327.74
	1099	2.75	-5.99879E-001	-3.02061E-004	0.00000E+000	-5.99000E-001	-1.05594E-003	10	..........a	-327.74
	1106	2.7675	-6.06882E-001	-2.98485E-004	0.00000E+000	-6.06000E-001	-9.35939E-004	10	..........a	-327.74
	1113	2.785	-6.13842E-001	-2.93538E-004	0.00000E+000	-6.13000E-001	-9.49272E-004	10	..........a	-327.74
	1120	2.8025	-6.20849E-001	-2.86119E-004	0.00000E+000	-6.20000E-001	-9.95939E-004	10	..........a	-327.74
	1127	2.82	-6.27862E-001	-2.78600E-004	0.00000E+000	-6.27000E-001	-9.02606E-004	10	..........a	-327.74
	1134	2.8375	-6.34819E-001	-2.70412E-004	0.00000E+000	-6.34000E-001	-9.82606E-004	10	..........a	-327.74
	1141	2.855	-6.41836E-001	-2.62124E-004	0.00000E+000	-6.41000E-001	-1.02261E-003	10	..........a	-327.74
	1148	2.8725	-6.48842E-001	-2.54404E-004	0.00000E+000	-6.48000E-001	-1.03594E-003	10	..........a	-327.74
	1155	2.89	-6.55842E-001	-2.46951E-004	0.00000E+000	-6.55000E-001	-9.95939E-004	10	..........a	-327.74
	1162	2.9075	-6.62806E-001	-2.39766E-004	0.00000E+000	-6.62000E-001	-1.06261E-003	10	..........a	-327.74
	1169	2.925	-6.69856E-001	-2.33416E-004	0.00000E+000	-6.69000E-001	-9.62605E-004	10	..........a	-327.74
	1176	2.9425	-6.76956E-001	-2.27100E-004	0.00000E+000	-6.76000E-001	-1.04927E-003	10	..........a	-327.74
	1183	2.96	-6.83799E-001	-2.21385E-004	0.00000E+000	-6.83000E-001	-9.82606E-004	10	..........a	-327.74
	1190	2.9775	-6.90809E-001	-2.16372E-004	0.00000E+000	-6.90000E-001	-9.22606E-004	10	..........a	-327.74
	1197	2.995	-6.97846E-001	-2.11393E-004	0.00000E+000	-6.97000E-001	-8.42605E-004	10	..........a	-327.74
	1204	3.0125	-7.04756E-001	-2.06814E-004	0.00000E+000	-7.04000E-001	-8.62605E-004	10	..........a	-327.74
	1211	3.03	-7.11842E-001	-2.02202E-004	0.00000E+000	-7.11000E-001	-9.22606E-004	10	..........a	-327.74
	1218	3.0475	-7.18779E-001	-1.98092E-004	0.00000E+000	-7.18000E-001	-9.22606E-004	10	..........a	-327.74
	1225	3.065	-7.25842E-001	-1.94482E-004	0.00000E+000	-7.25000E-001	-8.02606E-004	10	..........a	-327.74
	1232	3.0825	-7.32789E-001	-1.90405E-004	0.00000E+000	-7.32000E-001	-9.49272E-004	10	..........a	-327.74
	1239	3.1	-7.39812E-001	-1.86996E-004	0.00000E+000	-7.39000E-001	-8.82606E-004	10	..........a	-327.74
	1246	3.1175	-7.46809E-001	-1.84356E-004	0.00000E+000	-7.46000E-001	-9.09272E-004	10	..........a	-327.74
	1253	3.135	-7.53789E-001	-1.81682E-004	0.00000E+000	-7.53000E-001	-8.42605E-004	10	..........a	-327.74
	1260	3.1525	-7.60772E-001	-1.78140E-004	0.00000E+000	-7.60000E-001	-9.09272E-004	10	..........a	-327.74
	1267	3.17	-7.67816E-001	-1.75667E-004	0.00000E+000	-7.67000E-001	-9.22606E-004	10	..........a	-327.74
	1274	3.1875	-7.74722E-001	-1.73327E-004	0.00000E+000	-7.74000E-001	-8.55939E-004	10	..........a	-327.74
	1281	3.205	-7.81802E-001	-1.70387E-004	0.00000E+000	-7.81000E-001	-9.29272E-004	10	..........a	-327.74
	1288	3.2225	-7.88762E-001	-1.67947E-004	0.00000E+000	-7.88000E-001	-8.29272E-004	10	..........a	-327.74
	1295	3.24	-7.95696E-001	-1.66009E-004	0.00000E+000	-7.95000E-001	-8.95939E-004	10	..........a	-327.74
	1302	3.2575	-8.02762E-001	-1.63569E-004	0.00000E+000	-8.02000E-001	-1.01594E-003	10	..........a	-327.74
	1309	3.275	-8.09786E-001	-1.60962E-004	0.00000E+000	-8.09000E-001	-9.62605E-004	10	..........a	-327.74
	1316	3.2925	-8.16726E-001	-1.59559E-004	0.00000E+000	-8.16000E-001	-8.02606E-004	10	..........a	-327.74
	1323	3.31	-8.23669E-001	-1.57654E-004	0.00000E+000	-8.23000E-001	-9.09272E-004	10	..........a	-327.74
	1330	3.3275	-8.30759E-001	-1.55481E-004	0.00000E+000	-8.30000E-001	-1.00927E-003	10	..........a	-327.74
	1337	3.345	-8.37652E-001	-1.54111E-004	0.00000E+000	-8.37000E-001	-8.35939E-004	10	..........a	-327.74
	1344	3.3625	-8.44676E-001	-1.52540E-004	0.00000E+000	-8.44000E-001	-9.09272E-004	10	..........a	-327.74
	1351	3.38	-8.51642E-001	-1.51237E-004	0.00000E+000	-8.51000E-001	-8.55939E-004	10	..........a	-327.74
	1358	3.3975	-8.58686E-001	-1.49432E-004	0.00000E+000	-8.58000E-001	-9.22606E-004	10	..........a	-327.74
	1365	3.415	-8.65752E-001	-1.47594E-004	0.00000E+000	-8.65000E-001	-9.09272E-004	10	..........a	-327.74
	1372	3.4325	-8.72606E-001	-1.46491E-004	0.00000E+000	-8.72000E-001	-7.95939E-004	10	..........a	-327.74
	1379	3.45	-8.79716E-001	-1.44921E-004	0.00000E+000	-8.79000E-001	-9.22606E-004	10	..........a	-327.74
	1386	3.4675	-8.86646E-001	-1.43851E-004	0.00000E+000	-8.86000E-001	-7.42605E-004	10	..........a	-327.74
	1393	3.485	-8.93672E-001	-1.42113E-004	0.00000E+000	-8.93000E-001	-8.89272E-004	10	..........a	-327.74
	1400	3.5025	-9.00676E-001	-1.41011E-004	0.00000E+000	-9.00000E-001	-9.55939E-004	10	..........a	-327.74
	1407	3.52	-9.07666E-001	-1.39005E-004	0.00000E+000	-9.07000E-001	-1.00261E-003	10	..........a	-327.74
	1414	3.5375	-9.14699E-001	-1.38036E-004	0.00000E+000	-9.14000E-001	-9.15939E-004	10	..........a	-327.74
	1421	3.555	-9.21689E-001	-1.36766E-004	0.00000E+000	-9.21000E-001	-9.22606E-004	10	..........a	-327.74
	1428	3.5725	-9.28632E-001	-1.35864E-004	0.00000E+000	-9.28000E-001	-8.42605E-004	10	..........a	-327.74
	1435	3.59	-9.35659E-001	-1.34995E-004	0.00000E+000	-9.35000E-001	-9.42605E-004	10	..........a	-327.74
	1442	3.6075	-9.42656E-001	-1.34327E-004	0.00000E+000	-9.42000E-001	-8.95939E-004	10	..........a	-327.74
	1449	3.625	-9.49696E-001	-1.33057E-004	0.00000E+000	-9.49000E-001	-9.82606E-004	10	..........a	-327.74
	1456	3.6425	-9.56702E-001	-1.32188E-004	0.00000E+000	-9.56000E-001	-1.00261E-003	10	..........a	-327.74
	1463	3.66	-9.63672E-001	-1.31219E-004	0.00000E+000	-9.63000E-001	-8.82606E-004	10	..........a	-327.74
	1470	3.6775	-9.70696E-001	-1.30851E-004	0.00000E+000	-9.70000E-001	-8.69272E-004	10	..........a	-327.74
	1477	3.695	-9.77662E-001	-1.29180E-004	0.00000E+000	-9.77000E-001	-9.35939E-004	10	..........a	-327.74
	1484	3.7125	-9.84582E-001	-1.28378E-004	0.00000E+000	-9.84000E-001	-8.89272E-004	10	..........a	-327.74
	1491	3.73	-9.91659E-001	-1.27810E-004	0.00000E+000	-9.91000E-001	-8.75939E-004	10	..........a	-327.74
	1498	3.7475	-9.98599E-001	-1.26941E-004	0.00000E+000	-9.98000E-001	-8.49272E-004	10	..........a	-327.74
	1505	3.765	-9.95636E-001	-1.21360E-004	0.00000E+000	-9.95000E-001	-9.29272E-004	10	..........a	-327.74
	1512	3.7825	-9.88649E-001	-1.17617E-004	0.00000E+000	-9.88000E-001	-9.29272E-004	10	..........a	-327.74
	1519	3.8	-9.81656E-001	-1.15010E-004	0.00000E+000	-9.81000E-001	-8.89272E-004	10	..........a	-327.74
	1526	3.8175	-9.74646E-001	-1.12303E-004	0.00000E+000	-9.74000E-001	-1.02261E-003	10	..........a	-327.74
	1533	3.835	-9.67679E-001	-1.11000E-004	0.00000E+000	-9.67000E-001	-8.22606E-004	10	..........a	-327.74
	1540	3.8525	-9.60636E-001	-1.09730E-004	0.00000E+000	-9.60000E-001	-8.75939E-004	10	..........a	-327.74
	1547	3.87	-9.53786E-001	-1.07591E-004	0.00000E+000	-9.53000E-001	-1.00261E-003	10	..........a	-327.74
	1554	3.8875	-9.46742E-001	-1.06421E-004	0.00000E+000	-9.46000E-001	-9.22606E-004	10	..........a	-327.74
	1561	3.905	-9.39652E-001	-1.04984E-004	0.00000E+000	-9.39000E-001	-9.02606E-004	10	..........a	-327.74
	1568	3.9225	-9.32662E-001	-1.03948E-004	0.00000E+000	-9.32000E-001	-9.09272E-004	10	..........a	-327.74
	1575	3.94	-9.25636E-001	-1.02812E-004	0.00000E+000	-9.25000E-001	-9.09272E-004	10	..........a	-327.74
	1582	3.9575	-9.18699E-001	-1.01742E-004	0.00000E+000	-9.18000E-001	-9.75939E-004	10	..........a	-327.74
	1589	3.975	-9.11689E-001	-1.00974E-004	0.00000E+000	-9.11000E-001	-9.29272E-004	10	..........a	-327.74
	1596	3.9925	-9.04676E-001	-9.96368E-005	0.00000E+000	-9.04000E-001	-9.42605E-004	10	..........a	-327.74
	1603	4.01	-8.97742E-001	-9.85674E-005	0.00000E+000	-8.97000E-001	-9.02606E-004	10	..........a	-327.74
	1610	4.0275	-8.90672E-001	-9.82666E-005	0.00000E+000	-8.90000E-001	-8.82606E-004	10	..........a	-327.74
	1617	4.045	-8.83709E-001	-9.67627E-005	0.00000E+000	-8.83000E-001	-8.62605E-004	10	..........a	-327.74
	1624	4.0625	-8.76689E-001	-9.57935E-005	0.00000E+000	-8.76000E-001	-9.35939E-004	10	..........a	-327.74
	1631	4.08	-8.69669E-001	-9.51920E-005	0.00000E+000	-8.69000E-001	-9.02606E-004	10	..........a	-327.74
	1638	4.0975	-8.62692E-001	-9.45904E-005	0.00000E+000	-8.62000E-001	-9.15939E-004	10	..........a	-327.74
	1645	4.115	-8.55676E-001	-9.38886E-005	0.00000E+000	-8.55000E-001	-8.49272E-004	10	..........a	-327.74
	1652	4.1325	-8.48656E-001	-9.30865E-005	0.00000E+000	-8.48000E-001	-9.95939E-004	10	..........a	-327.74
	1659	4.15	-8.41756E-001	-9.21842E-005	0.00000E+000	-8.41000E-001	-9.09272E-004	10	..........a	-327.74
	1666	4.1675	-8.34722E-001	-9.14490E-005	0.00000E+000	-8.34000E-001	-9.75939E-004	10	..........a	-327.74
	1673	4.185	-8.27676E-001	-9.04798E-005	0.00000E+000	-8.27000E-001	-9.29272E-004	10	..........a	-327.74
	1680	4.2025	-8.20706E-001	-8.97111E-005	0.00000E+000	-8.20000E-001	-9.15939E-004	10	..........a	-327.74
	1687	4.22	-8.13772E-001	-8.94104E-005	0.00000E+000	-8.13000E-001	-9.29272E-004	10	..........a	-327.74
	1694	4.2375	-8.06789E-001	-8.81404E-005	0.00000E+000	-8.06000E-001	-9.22606E-004	10	..........a	-327.74
	1701	4.255	-7.99829E-001	-8.72381E-005	0.00000E+000	-7.99000E-001	-9.35939E-004	10	..........a	-327.74
	1708	4.2725	-7.92802E-001	-8.64694E-005	0.00000E+000	-7.92000E-001	-9.42605E-004	10	..........a	-327.74
	1715	4.29	-7.85792E-001	-8.63357E-005	0.00000E+000	-7.85000E-001	-8.95939E-004	10	..........a	-327.74
	1722	4.3075	-7.78822E-001	-8.52329E-005	0.00000E+000	-7.78000E-001	-9.49272E-004	10	..........a	-327.74
	1729	4.325	-7.71736E-001	-8.47984E-005	0.00000E+000	-7.71000E-001	-9.42605E-004	10	..........a	-327.74
	1736	4.3425	-7.64812E-001	-8.33948E-005	0.00000E+000	-7.64000E-001	-1.00261E-003	10	..........a	-327.74
	1743	4.36	-7.57832E-001	-8.30940E-005	0.00000E+000	-7.57000E-001	-1.01594E-003	10	..........a	-327.74
	1750	4.3775	-7.50786E-001	-8.23254E-005	0.00000E+000	-7.50000E-001	-9.69272E-004	10	..........a	-327.74
	1757	4.395	-7.43746E-001	-8.17238E-005	0.00000E+000	-7.43000E-001	-8.82606E-004	10	..........a	-327.74
	1764	4.4125	-7.36802E-001	-8.06544E-005	0.00000E+000	-7.36000E-001	-8.62605E-004	10	..........a	-327.74
	1771	4.43	-7.29766E-001	-8.05541E-005	0.00000E+000	-7.29000E-001	-8.29272E-004	10	..........a	-327.74
	1778	4.4475	-7.22742E-001	-7.97855E-005	0.00000E+000	-7.22000E-001	-8.62605E-004	10	..........a	-327.74
	1785	4.465	-7.15729E-001	-7.88497E-005	0.00000E+000	-7.15000E-001	-9.22606E-004	10	..........a	-327.74
	1792	4.4825	-7.08799E-001	-7.85489E-005	0.00000E+000	-7.08000E-001	-9.22606E-004	10	..........a	-327.74
	1799	4.5	-7.01836E-001	-7.68445E-005	0.00000E+000	-7.01000E-001	-9.29272E-004	10	..........a	-327.74
	1806	4.5175	-6.94786E-001	-7.62430E-005	0.00000E+000	-6.94000E-001	-9.62605E-004	10	..........a	-327.74
	1813	4.535	-6.87839E-001	-7.45051E-005	0.00000E+000	-6.87000E-001	-9.62605E-004	10	..........a	-327.74
	1820	4.5525	-6.80792E-001	-7.41041E-005	0.00000E+000	-6.80000E-001	-8.29272E-004	10	..........a	-327.74
	1827	4.57	-6.73836E-001	-7.24999E-005	0.00000E+000	-6.73000E-001	-9.75939E-004	10	..........a	-327.74
	1834	4.5875	-6.66836E-001	-7.10295E-005	0.00000E+000	-6.66000E-001	-9.09272E-004	10	..........a	-327.74
	1841	4.605	-6.59816E-001	-6.96592E-005	0.00000E+000	-6.59000E-001	-9.09272E-004	10	..........a	-327.74
	1848	4.6225	-6.52792E-001	-6.78546E-005	0.00000E+000	-6.52000E-001	-9.35939E-004	10	..........a	-327.74
	1855	4.64	-6.45879E-001	-6.57491E-005	0.00000E+000	-6.45000E-001	-9.35939E-004	10	..........a	-327.74
	1862	4.6575	-6.38779E-001	-6.38442E-005	0.00000E+000	-6.38000E-001	-9.22606E-004	10	..........a	-327.74
	1869	4.675	-6.31856E-001	-6.16385E-005	0.00000E+000	-6.31000E-001	-9.29272E-004	10	..........a	-327.74
	1876	4.6925	-6.24872E-001	-5.84970E-005	0.00000E+000	-6.24000E-001	-9.89272E-004	10	..........a	-327.74
	1883	4.71	-6.17826E-001	-5.50882E-005	0.00000E+000	-6.17000E-001	-8.62605E-004	10	..........a	-327.74
	1890	4.7275	-6.10852E-001	-5.07771E-005	0.00000E+000	-6.10000E-001	-9.42605E-004	10	..........a	-327.74
	1897	4.745	-6.03816E-001	-4.64659E-005	0.00000E+000	-6.03000E-001	-8.95939E-004	10	..........a	-327.74
	1904	4.7625	-5.96849E-001	-4.07177E-005	0.00000E+000	-5.96000E-001	-8.75939E-004	10	..........a	-327.74
	1911	4.78	-5.89869E-001	-3.39335E-005	0.00000E+000	-5.89000E-001	-9.49272E-004	10	..........a	-327.74
	1918	4.7975	-5.82826E-001	-2.57456E-005	0.00000E+000	-5.82000E-001	-9.22606E-004	10	..........a	-327.74
	1925	4.815	-5.75839E-001	-1.64549E-005	0.00000E+000	-5.75000E-001	-9.09272E-004	10	..........a	-327.74
	1932	4.8325	-5.68779E-001	-6.93029E-006	0.00000E+000	-5.68000E-001	-8.95939E-004	10	..........a	-327.74
	1939	4.85	-5.61872E-001	4.06483E-006	0.00000E+000	-5.61000E-001	-8.69272E-004	10	..........a	-327.74
	1946	4.8675	-5.54832E-001	1.58286E-005	0.00000E+000	-5.54000E-001	-8.09272E-004	10	..........a	-327.74
	1953	4.885	-5.47862E-001	2.88623E-005	0.00000E+000	-5.47000E-001	-9.42605E-004	10	..........a	-327.74
	1960	4.9025	-5.40836E-001	4.09603E-005	0.00000E+000	-5.40000E-001	-9.02606E-004	10	..........a	-327.74
	1967	4.92	-5.33946E-001	5.42614E-005	0.00000E+000	-5.33000E-001	-8.95939E-004	10	..........a	-327.74
	1974	4.9375	-5.26872E-001	6.67938E-005	0.00000E+000	-5.26000E-001	-9.55939E-004	10	..........a	-327.74
	1981	4.955	-5.19956E-001	7.94933E-005	0.00000E+000	-5.19000E-001	-1.00927E-003	10	..........a	-327.74
	1988	4.9725	-5.12846E-001	9.04550E-005	0.00000E+000	-5.12000E-001	-9.89272E-004	10	..........a	-327.74
	1995	4.99	-5.05949E-001	1.02252E-004	0.00000E+000	-5.05000E-001	-9.69272E-004	10	..........a	-327.74
	2002	5.0075	-4.98886E-001	1.13147E-004	0.00000E+000	-4.98000E-001	-9.75939E-004	10	..........a	-327.74
	2009	5.025	-4.91812E-001	1.22304E-004	0.00000E+000	-4.91000E-001	-8.29272E-004	10	..........a	-327.74
	2016	5.0425	-4.84959E-001	1.31695E-004	0.00000E+000	-4.84000E-001	-8.62605E-004	10	..........a	-327.74
	2023	5.06	-4.77916E-001	1.40251E-004	0.00000E+000	-4.77000E-001	-1.02261E-003	10	..........a	-327.74
	2030	5.0775	-4.70866E-001	1.46868E-004	0.00000E+000	-4.70000E-001	-9.15939E-004	10	..........a	-327.74
	2037	5.095	-4.63892E-001	1.52215E-004	0.00000E+000	-4.63000E-001	-9.82606E-004	10	..........a	-327.74
	2044	5.1125	-4.56992E-001	1.56158E-004	0.00000E+000	-4.56000E-001	-9.69272E-004	10	..........a	-327.74
	2051	5.13	-4.49956E-001	1.58698E-004	0.00000E+000	-4.49000E-001	-9.82606E-004	10	..........a	-327.74
	2058	5.1475	-4.42946E-001	1.60169E-004	0.00000E+000	-4.42000E-001	-9.15939E-004	10	..........a	-327.74
	2065	5.165	-4.35892E-001	1.59534E-004	0.00000E+000	-4.35000E-001	-8.82606E-004	10	..........a	-327.74
	2072	5.1825	-4.28942E-001	1.58264E-004	0.00000E+000	-4.28000E-001	-9.82606E-004	10	..........a	-327.74
	2079	5.2	-4.21919E-001	1.55690E-004	0.00000E+000	-4.21000E-001	-9.02606E-004	10	..........a	-327.74
	2086	5.2175	-4.14872E-001	1.53251E-004	0.00000E+000	-4.14000E-001	-7.75939E-004	10	..........a	-327.74
	2093	5.235	-4.07922E-001	1.50410E-004	0.00000E+000	-4.07000E-001	-9.29272E-004	10	..........a	-327.74
	2100	5.2525	-4.00906E-001	1.47001E-004	0.00000E+000	-4.00000E-001	-9.02606E-004	10	..........a	-327.74
	2107	5.27	-3.93939E-001	1.43425E-004	0.00000E+000	-3.93000E-001	-8.95939E-004	10	..........a	-327.74
	2114	5.2875	-3.86959E-001	1.40251E-004	0.00000E+000	-3.86000E-001	-9.69272E-004	10	..........a	-327.74
	2121	5.305	-3.79912E-001	1.36942E-004	0.00000E+000	-3.79000E-001	-9.55939E-004	10	..........a	-327.74
	2128	5.3225	-3.72979E-001	1.33633E-004	0.00000E+000	-3.72000E-001	-9.35939E-004	10	..........a	-327.74
	2135	5.34	-3.65962E-001	1.31060E-004	0.00000E+000	-3.65000E-001	-9.55939E-004	10	..........a	-327.74
	2142	5.3575	-3.58899E-001	1.27985E-004	0.00000E+000	-3.58000E-001	-1.00927E-003	10	..........a	-327.74
	2149	5.375	-3.51962E-001	1.25479E-004	0.00000E+000	-3.51000E-001	-9.82606E-004	10	..........a	-327.74
	2156	5.3925	-3.44932E-001	1.22505E-004	0.00000E+000	-3.44000E-001	-9.82606E-004	10	..........a	-327.74
	2163	5.41	-3.37932E-001	1.20900E-004	0.00000E+000	-3.37000E-001	-8.42605E-004	10	..........a	-327.74
	2170	5.4275	-3.31002E-001	1.18594E-004	0.00000E+000	-3.30000E-001	-9.22606E-004	10	..........a	-327.74
	2177	5.445	-3.23912E-001	1.16589E-004	0.00000E+000	-3.23000E-001	-8.35939E-004	10	..........a	-327.74
	2184	5.4625	-3.16909E-001	1.14517E-004	0.00000E+000	-3.16000E-001	-8.49272E-004	10	..........a	-327.74
	2191	5.48	-3.09889E-001	1.13314E-004	0.00000E+000	-3.09000E-001	-8.49272E-004	10	..........a	-327.74
	2198	5.4975	-3.02916E-001	1.11576E-004	0.00000E+000	-3.02000E-001	-8.89272E-004	10	..........a	-327.74
	2205	5.515	-2.95949E-001	1.10106E-004	0.00000E+000	-2.95000E-001	-9.15939E-004	10	..........a	-327.74
	2212	5.5325	-2.88982E-001	1.08034E-004	0.00000E+000	-2.88000E-001	-9.22606E-004	10	..........a	-327.74
	2219	5.55	-2.81899E-001	1.07031E-004	0.00000E+000	-2.81000E-001	-8.82606E-004	10	..........a	-327.74
	2226	5.5675	-2.74976E-001	1.05527E-004	0.00000E+000	-2.74000E-001	-9.02606E-004	10	..........a	-327.74
	2233	5.585	-2.67889E-001	1.04458E-004	0.00000E+000	-2.67000E-001	-8.69272E-004	10	..........a	-327.74
	2240	5.6025	-2.61036E-001	1.02687E-004	0.00000E+000	-2.60000E-001	-8.69272E-004	10	..........a	-327.74
	2247	5.62	-2.54039E-001	1.01651E-004	0.00000E+000	-2.53000E-001	-9.15939E-004	10	..........a	-327.74
	2254	5.6375	-2.46962E-001	9.98126E-005	0.00000E+000	-2.46000E-001	-8.75939E-004	10	..........a	-327.74
	2261	5.655	-2.39969E-001	9.84423E-005	0.00000E+000	-2.39000E-001	-9.55939E-004	10	..........a	-327.74
	2268	5.6725	-2.32936E-001	9.71055E-005	0.00000E+000	-2.32000E-001	-9.15939E-004	10	..........a	-327.74
	2275	5.69	-2.25976E-001	9.49667E-005	0.00000E+000	-2.25000E-001	-9.62605E-004	10	..........a	-327.74
	2282	5.7075	-2.19039E-001	9.44654E-005	0.00000E+000	-2.18000E-001	-1.00261E-003	10	..........a	-327.74
	2289	5.725	-2.12042E-001	9.29281E-005	0.00000E+000	-2.11000E-001	-9.29272E-004	10	..........a	-327.74
	2296	5.7425	-2.05032E-001	9.12905E-005	0.00000E+000	-2.04000E-001	-1.03594E-003	10	..........a	-327.74
	2303	5.76	-1.97992E-001	8.94190E-005	0.00000E+000	-1.97000E-001	-8.15939E-004	10	..........a	-327.74
	2310	5.7775	-1.91032E-001	8.85501E-005	0.00000E+000	-1.90000E-001	-8.82606E-004	10	..........a	-327.74
	2317	5.795	-1.84012E-001	8.69125E-005	0.00000E+000	-1.83000E-001	-9.02606E-004	10	..........a	-327.74
	2324	5.8125	-1.77006E-001	8.56760E-005	0.00000E+000	-1.76000E-001	-7.82606E-004	10	..........a	-327.74
	2331	5.83	-1.70002E-001	8.40050E-005	0.00000E+000	-1.69000E-001	-7.49272E-004	10	..........a	-327.74
	2338	5.8475	-1.63029E-001	8.29355E-005	0.00000E+000	-1.62000E-001	-9.09272E-004	10	..........a	-327.74
	2345	5.865	-1.55986E-001	8.13314E-005	0.00000E+000	-1.55000E-001	-9.09272E-004	10	..........a	-327.74
	2352	5.8825	-1.49016E-001	7.99278E-005	0.00000E+000	-1.48000E-001	-8.35939E-004	10	..........a	-327.74
	2359	5.9	-1.41986E-001	7.91591E-005	0.00000E+000	-1.41000E-001	-8.75939E-004	10	..........a	-327.74
	2366	5.9175	-1.34936E-001	7.80897E-005	0.00000E+000	-1.34000E-001	-8.89272E-004	10	..........a	-327.74
	2373	5.935	-1.28019E-001	7.63853E-005	0.00000E+000	-1.27000E-001	-9.09272E-004	10	..........a	-327.74
	2380	5.9525	-1.21029E-001	7.53827E-005	0.00000E+000	-1.20000E-001	-9.22606E-004	10	..........a	-327.74
	2387	5.97	-1.13996E-001	7.43467E-005	0.00000E+000	-1.13000E-001	-8.89272E-004	10	..........a	-327.74
	2394	5.9875	-1.07082E-001	7.31101E-005	0.00000E+000	-1.06000E-001	-8.62605E-004	10	..........a	-327.74
	2401	6.005	-1.00052E-001	7.25086E-005	0.00000E+000	-9.90000E-002	-9.15939E-004	10	..........a	-327.74
	2408	6.0225	-9.30556E-002	7.17065E-005	0.00000E+000	-9.20000E-002	-9.02606E-004	10	..........a	-327.74
	2415	6.04	-8.60989E-002	7.05702E-005	0.00000E+000	-8.50000E-002	-9.22606E-004	10	..........a	-327.74
	2422	6.0575	-7.90489E-002	6.95342E-005	0.00000E+000	-7.80000E-002	-9.42605E-004	10	..........a	-327.74
	2429	6.075	-7.20756E-002	6.86653E-005	0.00000E+000	-7.10000E-002	-8.95939E-004	10	..........a	-327.74
	2436	6.0925	-6.50756E-002	6.78966E-005	0.00000E+000	-6.40000E-002	-9.69272E-004	10	..........a	-327.74
	2443	6.11	-5.79889E-002	6.67269E-005	0.00000E+000	-5.70000E-002	-8.29272E-004	10	..........a	-327.74
	2450	6.1275	-5.10923E-002	6.63593E-005	0.00000E+000	-5.00000E-002	-8.55939E-004	10	..........a	-327.74
	2457	6.145	-4.40156E-002	6.51228E-005	0.00000E+000	-4.30000E-002	-8.35939E-004	10	..........a	-327.74
	2464	6.1625	-3.70289E-002	6.50894E-005	0.00000E+000	-3.60000E-002	-9.22606E-004	10	..........a	-327.74
	2471	6.18	-3.00056E-002	6.43541E-005	0.00000E+000	-2.90000E-002	-9.15939E-004	10	..........a	-327.74
	2478	6.1975	-2.30056E-002	6.35521E-005	0.00000E+000	-2.20000E-002	-9.15939E-004	10	..........a	-327.74
	2485	6.215	-1.60523E-002	6.29171E-005	0.00000E+000	-1.50000E-002	-9.29272E-004	10	..........a	-327.74
	2492	6.2325	-9.07227E-003	6.25161E-005	0.00000E+000	-8.00000E-003	-8.22606E-004	10	..........a	-327.74
	2499	6.25	-2.03227E-003	6.24826E-005	0.00000E+000	-1.00000E-003	-8.89272E-004	10	..........a	-327.74
	2506	6.2675	4.95106E-003	6.18477E-005	0.00000E+000	5.99998E-003	-8.49272E-004	10	..........a	-327.74
	2513	6.285	1.19777E-002	6.13798E-005	0.00000E+000	1.30000E-002	-8.55939E-004	10	..........a	-327.74
	2520	6.3025	1.89044E-002	6.05443E-005	0.00000E+000	2.00000E-002	-9.22606E-004	10	..........a	-327.74
	2527	6.32	2.59011E-002	6.05109E-005	0.00000E+000	2.70000E-002	-8.89272E-004	10	..........a	-327.74
	2534	6.3375	3.29277E-002	6.01767E-005	0.00000E+000	3.40000E-002	-9.02606E-004	10	..........a	-327.74
	2541	6.355	3.98744E-002	5.95751E-005	0.00000E+000	4.10000E-002	-8.75939E-004	10	..........a	-327.74
	2548	6.3725	4.69177E-002	5.97088E-005	0.00000E+000	4.80000E-002	-8.55939E-004	10	..........a	-327.74
	2555	6.39	5.39477E-002	5.93746E-005	0.00000E+000	5.50000E-002	-9.09272E-004	10	..........a	-327.74
	2562	6.4075	6.08644E-002	5.91072E-005	0.00000E+000	6.20000E-002	-9.62605E-004	10	..........a	-327.74
	2569	6.425	6.79144E-002	5.85725E-005	0.00000E+000	6.90000E-002	-9.02606E-004	10	..........a	-327.74
	2576	6.4425	7.49677E-002	5.82383E-005	0.00000E+000	7.60000E-002	-8.02606E-004	10	..........a	-327.74
	2583	6.46	8.19144E-002	5.80712E-005	0.00000E+000	8.30000E-002	-8.89272E-004	10	..........a	-327.74
	2590	6.4775	8.89277E-002	5.78707E-005	0.00000E+000	9.00000E-002	-9.35939E-004	10	..........a	-327.74
	2597	6.495	9.59577E-002	5.80044E-005	0.00000E+000	9.70000E-002	-8.89272E-004	10	..........a	-327.74
	2604	6.5125	1.02971E-001	5.77036E-005	0.00000E+000	1.04000E-001	-7.69272E-004	10	..........a	-327.74
	2611	6.53	1.09931E-001	5.80712E-005	0.00000E+000	1.11000E-001	-9.29272E-004	10	..........a	-327.74
	2618	6.5475	1.16858E-001	5.77704E-005	0.00000E+000	1.18000E-001	-8.49272E-004	10	..........a	-327.74
	2625	6.565	1.23924E-001	5.78373E-005	0.00000E+000	1.25000E-001	-7.62605E-004	10	..........a	-327.74
	2632	6.5825	1.30908E-001	5.85725E-005	0.00000E+000	1.32000E-001	-9.09272E-004	10	..........a	-327.74
	2639	6.6	1.37844E-001	5.91407E-005	0.00000E+000	1.39000E-001	-1.04261E-003	10	..........a	-327.74
	2646	6.6175	1.44944E-001	5.95083E-005	0.00000E+000	1.46000E-001	-7.82606E-004	10	..........a	-327.74
	2653	6.635	1.51838E-001	5.98425E-005	0.00000E+000	1.53000E-001	-9.09272E-004	10	..........a	-327.74
	2660	6.6525	1.58878E-001	6.05109E-005	0.00000E+000	1.60000E-001	-8.62605E-004	10	..........a	-327.74
	2667	6.67	1.65854E-001	6.11124E-005	0.00000E+000	1.67000E-001	-8.22606E-004	10	..........a	-327.74
	2674	6.6875	1.72894E-001	6.21150E-005	0.00000E+000	1.74000E-001	-8.55939E-004	10	..........a	-327.74
	2681	6.705	1.79874E-001	6.24826E-005	0.00000E+000	1.81000E-001	-8.62605E-004	10	..........a	-327.74
	2688	6.7225	1.86841E-001	6.31845E-005	0.00000E+000	1.88000E-001	-9.09272E-004	10	..........a	-327.74
	2695	6.74	1.93861E-001	6.29839E-005	0.00000E+000	1.95000E-001	-7.95939E-004	10	..........a	-327.74
	2702	6.7575	2.00891E-001	6.33850E-005	0.00000E+000	2.02000E-001	-9.35939E-004	10	..........a	-327.74
	2709	6.775	2.07838E-001	6.31845E-005	0.00000E+000	2.09000E-001	-8.22606E-004	10	..........a	-327.74
	2716	6.7925	2.14851E-001	6.31176E-005	0.00000E+000	2.16000E-001	-9.09272E-004	10	..........a	-327.74
	2723	6.81	2.21938E-001	6.30842E-005	0.00000E+000	2.23000E-001	-9.09272E-004	10	..........a	-327.74
	2730	6.8275	2.28824E-001	6.25829E-005	0.00000E+000	2.30000E-001	-9.75939E-004	10	..........a	-327.74
	2737	6.845	2.35858E-001	6.16137E-005	0.00000E+000	2.37000E-001	-8.22606E-004	10	..........a	-327.74
	2744	6.8625	2.42831E-001	6.12127E-005	0.00000E+000	2.44000E-001	-8.15939E-004	10	..........a	-327.74
	2751	6.88	2.49838E-001	6.04774E-005	0.00000E+000	2.51000E-001	-8.09272E-004	10	..........a	-327.74
	2758	6.8975	2.56814E-001	6.02769E-005	0.00000E+000	2.58000E-001	-8.62605E-004	10	..........a	-327.74
	2765	6.915	2.63848E-001	5.90070E-005	0.00000E+000	2.65000E-001	-7.82606E-004	10	..........a	-327.74
	2772	6.9325	2.70904E-001	5.85057E-005	0.00000E+000	2.72000E-001	-8.89272E-004	10	..........a	-327.74
	2779	6.95	2.77878E-001	5.78039E-005	0.00000E+000	2.79000E-001	-7.62605E-004	10	..........a	-327.74
	2786	6.9675	2.84871E-001	5.73360E-005	0.00000E+000	2.86000E-001	-7.75939E-004	10	..........a	-327.74
	2793	6.985	2.91851E-001	5.67678E-005	0.00000E+000	2.93000E-001	-8.69272E-004	10	..........a	-327.74
	2800	7.0025	2.98864E-001	5.62331E-005	0.00000E+000	3.00000E-001	-8.95939E-004	10	..........a	-327.74
	2807	7.02	3.05754E-001	5.60994E-005	0.00000E+000	3.07000E-001	-8.62605E-004	10	..........a	-327.74
	2814	7.0375	3.12838E-001	5.54311E-005	0.00000E+000	3.14000E-001	-9.35939E-004	10	..........a	-327.74
	2821	7.055	3.19778E-001	5.44953E-005	0.00000E+000	3.21000E-001	-8.75939E-004	10	..........a	-327.74
	2828	7.0725	3.26788E-001	5.44953E-005	0.00000E+000	3.28000E-001	-9.49272E-004	10	..........a	-327.74
	2835	7.09	3.33784E-001	5.40274E-005	0.00000E+000	3.35000E-001	-9.15939E-004	10	..........a	-327.74
	2842	7.1075	3.40771E-001	5.33256E-005	0.00000E+000	3.42000E-001	-9.02606E-004	10	..........a	-327.74
	2849	7.125	3.47704E-001	5.30248E-005	0.00000E+000	3.49000E-001	-8.15939E-004	10	..........a	-327.74
	2856	7.1425	3.54841E-001	5.19888E-005	0.00000E+000	3.56000E-001	-8.62605E-004	10	..........a	-327.74
	2863	7.16	3.61791E-001	5.13538E-005	0.00000E+000	3.63000E-001	-8.49272E-004	10	..........a	-327.74
	2870	7.1775	3.68818E-001	5.13873E-005	0.00000E+000	3.70000E-001	-8.82606E-004	10	..........a	-327.74
	2877	7.195	3.75891E-001	5.03178E-005	0.00000E+000	3.77000E-001	-8.15939E-004	10	..........a	-327.74
	2884	7.2125	3.82828E-001	5.03512E-005	0.00000E+000	3.84000E-001	-8.02606E-004	10	..........a	-327.74
	2891	7.23	3.89844E-001	4.92150E-005	0.00000E+000	3.91000E-001	-7.82606E-004	10	..........a	-327.74
	2898	7.2475	3.96778E-001	4.95826E-005	0.00000E+000	3.98000E-001	-9.09272E-004	10	..........a	-327.74
	2905	7.265	4.03828E-001	4.89476E-005	0.00000E+000	4.05000E-001	-8.29272E-004	10	..........a	-327.74
	2912	7.2825	4.10838E-001	4.85800E-005	0.00000E+000	4.12000E-001	-9.22606E-004	10	..........a	-327.74
	2919	7.3	4.17761E-001	4.83795E-005	0.00000E+000	4.19000E-001	-8.62605E-004	10	..........a	-327.74
	2926	7.3175	4.24864E-001	4.81121E-005	0.00000E+000	4.26000E-001	-9.22606E-004	10	..........a	-327.74
	2933	7.335	4.31781E-001	4.78113E-005	0.00000E+000	4.33000E-001	-9.22606E-004	10	..........a	-327.74
	2940	7.3525	4.38724E-001	4.72098E-005	0.00000E+000	4.40000E-001	-9.62605E-004	10	..........a	-327.74
	2947	7.37	4.45801E-001	4.70093E-005	0.00000E+000	4.47000E-001	-8.69272E-004	10	..........a	-327.74
	2954	7.3875	4.52674E-001	4.64745E-005	0.00000E+000	4.54000E-001	-1.00261E-003	10	..........a	-327.74
	2961	7.405	4.59724E-001	4.65080E-005	0.00000E+000	4.61000E-001	-9.75939E-004	10	..........a	-327.74
	2968	7.4225	4.66801E-001	4.58396E-005	0.00000E+000	4.68000E-001	-8.42605E-004	10	..........a	-327.74
	2975	7.44	4.73738E-001	4.55388E-005	0.00000E+000	4.75000E-001	-8.82606E-004	10	..........a	-327.74
	2982	7.4575	4.80631E-001	4.54051E-005	0.00000E+000	4.82000E-001	-8.35939E-004	10	..........a	-327.74
	2989	7.475	4.87721E-001	4.48036E-005	0.00000E+000	4.89000E-001	-9.22606E-004	10	..........a	-327.74
	2996	7.4925	4.94711E-001	4.45028E-005	0.00000E+000	4.96000E-001	-9.15939E-004	10	..........a	-327.74
	3000	7.5025	4.98751E-001	4.41017E-005	0.00000E+000	5.00000E-001	-9.29272E-004	10	..........a	-327.74
CURVE2	TABLE
	Pt	T	Vf	Im	Vu	Sig	Ach	IERange	Over	Temp
	#	s	V vs. Ref.	A	V	V	V	#	bits	deg C
	3001	7.505	4.98718E-001	4.32997E-005	0.00000E+000	5.00000E-001	-9.29272E-004	10	..........a	-327.74