File: data/02-SI/Figures_S9_S11_RDE/15btmapaq-rde/1mkcl-15btmapaq-nitrogen-100mvpers.DTA
EXPLAIN
TAG	CV
TITLE	LABEL	Cyclic Voltammetry	Test &Identifier
DATE	LABEL	1/31/2023	Date
TIME	LABEL	18:17:09	Time
NOTES	NOTES	1	&Notes...

PSTAT	PSTAT	REF3000-21108	Potentiostat
VINIT	POTEN	5.00000E-001	F	Initial &E (V)
VLIMIT1	POTEN	-1.00000E+000	F	Scan Limit &1 (V)
VLIMIT2	POTEN	5.00000E-001	F	Scan Limit &2 (V)
VFINAL	POTEN	5.00000E-001	F	Final &E (V)
SCANRATE	QUANT	9.99998E+001	&Scan Rate (mV/s)
STEPSIZE	QUANT	1.00000E+000	St&ep Size (mV)
CYCLES	IQUANT	1	C&ycles (#)
IMODE	SELECTOR	1	I/E Range &Mode
IRANGE	QUANT	1.00000E+001	&Max Current (mA)
AREA	QUANT	1.00000E+000	Electrode &Area (cm^2)
ELECTRODETYPE	SELECTOR	0	Electrode Type
STRIPPING	TOGGLE	F	Used for Stripping
POLARITY	TOGGLE	F	Signal Polarity
CONDIT	TWOPARAM	F	1.50000E+001	0.00000E+000	Conditionin&g	Time(s)	E(V)
DELAY	TWOPARAM	F	5.00000E+000	0.00000E+000	Init. De&lay	Time(s)	Stab.(mV/s)
EQDELAY	QUANT	0.00000E+000	Equil. &Time (s)
IRCOMP	SELECTOR	0	IRCom&p
PFCOR	QUANT	5.00000E+001	PF Corr. (ohm)
SAMPLINGMODE	SELECTOR	1	Sampling &Mode
EOC	QUANT	0	Open Circuit (V)
PSTATMODEL	IQUANT	5	Pstat Model
PSTATSECTION	LABEL	REF3000-21108	Pstat Section
PSTATSERIALNO	LABEL	21108	Pstat Serial Number
CTRLMODE	IQUANT	1	Control Mode
ELECTROMETER	IQUANT	0	RE=0 or CS=1
IESTAB	IQUANT	2	I/E Stability
CASPEED	IQUANT	4	Control Amp Speed
CONVENTION	IQUANT	1	Current Convention
ICHRANGE	IQUANT	2	Ich Range
ICHRANGEMODE	TOGGLE	F	Ich Auto Range
ICHOFFSETENABLE	TOGGLE	F	Ich Offset Enable
ICHOFFSET	QUANT	0	Ich Offset (V)
ICHFILTER	IQUANT	2	Ich Filter
VCHRANGE	IQUANT	2	Vch Range
VCHRANGEMODE	TOGGLE	F	Vch Auto Range
VCHOFFSETENABLE	TOGGLE	F	Vch Offset Enable
VCHOFFSET	QUANT	0	Vch Offset (V)
VCHFILTER	IQUANT	2	Vch Filter
ACHRANGE	IQUANT	2	Ach Range
ACHOFFSETENABLE	TOGGLE	F	Ach Offset Enable
ACHOFFSET	QUANT	0	Ach Offset (V)
ACHFILTER	IQUANT	0	Ach Filter
IERANGELOWERLIMIT	IQUANT	2	I/E Range Lower Limit
IERANGEMODE	TOGGLE	F	I/E AutoRange
IERANGE	IQUANT	10	I/E Range
POSFEEDENABLE	TOGGLE	F	Positive Feedback IR Comp
POSFEEDRESISTANCE	QUANT	0	Positive Feedback Resistance (ohm)
ACHSELECT	IQUANT	0	Ach Select
SENSECABLEID	IQUANT	14	Sense Cable ID
PWRCABLEID	IQUANT	7	Power Cable ID
DCCALDATE	LABEL	11/9/2022	DC Calibration Date
ACCALDATE	LABEL	11/9/2022	AC Calibration Date
THERMOSELECT	IQUANT	1	Thermo Select
FRAMEWORKVERSION	LABEL	7.8.2	Framework Version
INSTRUMENTVERSION	LABEL	4.40	Instrument Version
COMPLIANCEVOLTAGE	IQUANT	0	Compliance Voltage
CURVE1	TABLE
	Pt	T	Vf	Im	Vu	Sig	Ach	IERange	Over	Temp
	#	s	V vs. Ref.	A	V	V	V	#	bits	deg C
	0	0.01	4.98780E-001	5.65339E-005	0.00000E+000	5.00000E-001	-8.04272E-004	10	..........a	-327.74
	7	0.08	4.91785E-001	3.29562E-005	0.00000E+000	4.93000E-001	-8.45939E-004	10	..........a	-327.74
	14	0.15	4.84787E-001	2.49355E-005	0.00000E+000	4.86000E-001	-8.47606E-004	10	..........a	-327.74
	21	0.22	4.77796E-001	2.06578E-005	0.00000E+000	4.79000E-001	-8.39272E-004	10	..........a	-327.74
	28	0.29	4.70784E-001	1.82014E-005	0.00000E+000	4.72000E-001	-8.90939E-004	10	..........a	-327.74
	35	0.36	4.63798E-001	1.60960E-005	0.00000E+000	4.65000E-001	-8.52606E-004	10	..........a	-327.74
	42	0.43	4.56814E-001	1.48511E-005	0.00000E+000	4.58000E-001	-9.12605E-004	10	..........a	-327.74
	49	0.5	4.49779E-001	1.32803E-005	0.00000E+000	4.51000E-001	-8.45939E-004	10	..........a	-327.74
	56	0.57	4.42823E-001	1.24281E-005	0.00000E+000	4.44000E-001	-9.10939E-004	10	..........a	-327.74
	63	0.64	4.35784E-001	1.14757E-005	0.00000E+000	4.37000E-001	-8.65939E-004	10	..........a	-327.74
	70	0.71	4.28717E-001	1.11749E-005	0.00000E+000	4.30000E-001	-8.69272E-004	10	..........a	-327.74
	77	0.78	4.21831E-001	1.04146E-005	0.00000E+000	4.23000E-001	-9.02606E-004	10	..........a	-327.74
	84	0.85	4.14812E-001	9.79632E-006	0.00000E+000	4.16000E-001	-8.17605E-004	10	..........a	-327.74
	91	0.92	4.07799E-001	9.46212E-006	0.00000E+000	4.09000E-001	-8.54272E-004	10	..........a	-327.74
	98	0.99	4.00805E-001	9.36186E-006	0.00000E+000	4.02000E-001	-9.29272E-004	10	..........a	-327.74
	105	1.06	3.93799E-001	8.93576E-006	0.00000E+000	3.95000E-001	-8.37606E-004	10	..........a	-327.74
	112	1.13	3.86843E-001	8.11698E-006	0.00000E+000	3.88000E-001	-8.12605E-004	10	..........a	-327.74
	119	1.2	3.79822E-001	8.12533E-006	0.00000E+000	3.81000E-001	-8.29272E-004	10	..........a	-327.74
	126	1.27	3.72824E-001	7.49871E-006	0.00000E+000	3.74000E-001	-8.20939E-004	10	..........a	-327.74
	133	1.34	3.65839E-001	7.26477E-006	0.00000E+000	3.67000E-001	-8.82606E-004	10	..........a	-327.74
	140	1.41	3.58800E-001	7.08932E-006	0.00000E+000	3.60000E-001	-7.80939E-004	10	..........a	-327.74
	147	1.48	3.51814E-001	6.85538E-006	0.00000E+000	3.53000E-001	-8.54272E-004	10	..........a	-327.74
	154	1.55	3.44857E-001	6.98070E-006	0.00000E+000	3.46000E-001	-8.64272E-004	10	..........a	-327.74
	161	1.62	3.37802E-001	6.72170E-006	0.00000E+000	3.39000E-001	-7.82606E-004	10	..........a	-327.74
	168	1.69	3.30822E-001	6.78854E-006	0.00000E+000	3.32000E-001	-9.10939E-004	10	..........a	-327.74
	175	1.76	3.23838E-001	6.39586E-006	0.00000E+000	3.25000E-001	-8.39272E-004	10	..........a	-327.74
	182	1.83	3.16849E-001	5.99482E-006	0.00000E+000	3.18000E-001	-7.80939E-004	10	..........a	-327.74
	189	1.9	3.09864E-001	6.11179E-006	0.00000E+000	3.11000E-001	-8.97606E-004	10	..........a	-327.74
	196	1.97	3.02824E-001	6.07001E-006	0.00000E+000	3.04000E-001	-9.12605E-004	10	..........a	-327.74
	203	2.04	2.95831E-001	5.60214E-006	0.00000E+000	2.97000E-001	-9.25939E-004	10	..........a	-327.74
	210	2.11	2.88880E-001	5.33478E-006	0.00000E+000	2.90000E-001	-8.14272E-004	10	..........a	-327.74
	217	2.18	2.81821E-001	5.40997E-006	0.00000E+000	2.83000E-001	-9.12605E-004	10	..........a	-327.74
	224	2.25	2.74848E-001	5.43504E-006	0.00000E+000	2.76000E-001	-8.60939E-004	10	..........a	-327.74
	231	2.32	2.67870E-001	5.00893E-006	0.00000E+000	2.69000E-001	-8.85939E-004	10	..........a	-327.74
	238	2.39	2.60844E-001	5.07577E-006	0.00000E+000	2.62000E-001	-8.30939E-004	10	..........a	-327.74
	245	2.46	2.53867E-001	5.27629E-006	0.00000E+000	2.55000E-001	-8.59272E-004	10	..........a	-327.74
	252	2.53	2.46815E-001	4.90868E-006	0.00000E+000	2.48000E-001	-8.55939E-004	10	..........a	-327.74
	259	2.6	2.39882E-001	4.55777E-006	0.00000E+000	2.41000E-001	-8.30939E-004	10	..........a	-327.74
	266	2.67	2.32870E-001	4.70816E-006	0.00000E+000	2.34000E-001	-8.40939E-004	10	..........a	-327.74
	273	2.74	2.25875E-001	4.38231E-006	0.00000E+000	2.27000E-001	-8.92605E-004	10	..........a	-327.74
	280	2.81	2.18879E-001	4.01470E-006	0.00000E+000	2.20000E-001	-8.04272E-004	10	..........a	-327.74
	287	2.88	2.11898E-001	4.15673E-006	0.00000E+000	2.13000E-001	-8.29272E-004	10	..........a	-327.74
	294	2.95	2.04894E-001	4.33218E-006	0.00000E+000	2.06000E-001	-8.79272E-004	10	..........a	-327.74
	301	3.02	1.97964E-001	4.00634E-006	0.00000E+000	1.99000E-001	-8.19272E-004	10	..........a	-327.74
	308	3.09	1.90912E-001	4.10660E-006	0.00000E+000	1.92000E-001	-8.42605E-004	10	..........a	-327.74
	315	3.16	1.83887E-001	3.85595E-006	0.00000E+000	1.85000E-001	-8.19272E-004	10	..........a	-327.74
	322	3.23	1.76947E-001	3.42149E-006	0.00000E+000	1.78000E-001	-8.15939E-004	10	..........a	-327.74
	329	3.3	1.69929E-001	3.27110E-006	0.00000E+000	1.71000E-001	-8.54272E-004	10	..........a	-327.74
	336	3.37	1.62959E-001	2.74474E-006	0.00000E+000	1.64000E-001	-8.12605E-004	10	..........a	-327.74
	343	3.44	1.55846E-001	3.43820E-006	0.00000E+000	1.57000E-001	-9.32606E-004	10	..........a	-327.74
	350	3.51	1.48986E-001	2.46067E-006	0.00000E+000	1.50000E-001	-7.39272E-004	10	..........a	-327.74
	357	3.58	1.41990E-001	2.67790E-006	0.00000E+000	1.43000E-001	-8.00939E-004	10	..........a	-327.74
	364	3.65	1.34960E-001	2.57764E-006	0.00000E+000	1.36000E-001	-8.22606E-004	10	..........a	-327.74
	371	3.72	1.27932E-001	2.53587E-006	0.00000E+000	1.29000E-001	-8.74272E-004	10	..........a	-327.74
	378	3.79	1.20993E-001	2.39384E-006	0.00000E+000	1.22000E-001	-8.10939E-004	10	..........a	-327.74
	385	3.86	1.13934E-001	2.49409E-006	0.00000E+000	1.15000E-001	-8.97606E-004	10	..........a	-327.74
	392	3.93	1.06934E-001	2.43561E-006	0.00000E+000	1.08000E-001	-9.22606E-004	10	..........a	-327.74
	399	4	1.00013E-001	1.89254E-006	0.00000E+000	1.01000E-001	-7.99272E-004	10	..........a	-327.74
	406	4.07	9.29402E-002	2.07635E-006	0.00000E+000	9.40000E-002	-7.77606E-004	10	..........a	-327.74
	413	4.14	8.59836E-002	2.00951E-006	0.00000E+000	8.70000E-002	-7.70939E-004	10	..........a	-327.74
	420	4.21	7.89844E-002	1.90089E-006	0.00000E+000	8.00000E-002	-8.50939E-004	10	..........a	-327.74
	427	4.28	7.19536E-002	1.72544E-006	0.00000E+000	7.30000E-002	-7.95939E-004	10	..........a	-327.74
	434	4.35	6.50211E-002	1.72544E-006	0.00000E+000	6.60000E-002	-8.55939E-004	10	..........a	-327.74
	441	4.42	5.79744E-002	1.85076E-006	0.00000E+000	5.90000E-002	-8.95939E-004	10	..........a	-327.74
	448	4.49	5.09777E-002	1.68366E-006	0.00000E+000	5.20000E-002	-8.79272E-004	10	..........a	-327.74
	455	4.56	4.39911E-002	1.53328E-006	0.00000E+000	4.50000E-002	-8.50939E-004	10	..........a	-327.74
	462	4.63	3.69244E-002	1.93431E-006	0.00000E+000	3.80000E-002	-9.65939E-004	10	..........a	-327.74
	469	4.7	3.00202E-002	1.31605E-006	0.00000E+000	3.10000E-002	-8.30939E-004	10	..........a	-327.74
	476	4.77	2.30194E-002	1.39960E-006	0.00000E+000	2.40000E-002	-9.39272E-004	10	..........a	-327.74
	483	4.84	1.59644E-002	1.49986E-006	0.00000E+000	1.70000E-002	-8.74272E-004	10	..........a	-327.74
	490	4.91	8.99689E-003	1.13224E-006	0.00000E+000	9.99999E-003	-8.69272E-004	10	..........a	-327.74
	497	4.98	2.01523E-003	9.90203E-007	0.00000E+000	2.99999E-003	-7.59272E-004	10	..........a	-327.74
	504	5.05	-4.98144E-003	7.31200E-007	0.00000E+000	-4.00001E-003	-8.12605E-004	10	..........a	-327.74
	511	5.12	-1.19556E-002	9.65139E-007	0.00000E+000	-1.10000E-002	-7.90939E-004	10	..........a	-327.74
	518	5.19	-1.89939E-002	7.56265E-007	0.00000E+000	-1.80000E-002	-8.35939E-004	10	..........a	-327.74
	525	5.26	-2.59623E-002	7.89685E-007	0.00000E+000	-2.50000E-002	-8.22606E-004	10	..........a	-327.74
	532	5.33	-3.29606E-002	5.64101E-007	0.00000E+000	-3.20000E-002	-7.84272E-004	10	..........a	-327.74
	539	5.4	-4.00331E-002	1.09882E-006	0.00000E+000	-3.90000E-002	-8.60939E-004	10	..........a	-327.74
	546	5.47	-4.69789E-002	6.56006E-007	0.00000E+000	-4.60000E-002	-8.27606E-004	10	..........a	-327.74
	553	5.54	-5.39948E-002	8.64879E-007	0.00000E+000	-5.30000E-002	-8.69272E-004	10	..........a	-327.74
	560	5.61	-6.09806E-002	8.64879E-007	0.00000E+000	-6.00000E-002	-8.47606E-004	10	..........a	-327.74
	567	5.68	-6.79923E-002	1.17401E-006	0.00000E+000	-6.70000E-002	-9.30939E-004	10	..........a	-327.74
	574	5.75	-7.50231E-002	8.39814E-007	0.00000E+000	-7.40000E-002	-8.82606E-004	10	..........a	-327.74
	581	5.82	-8.19439E-002	7.89685E-007	0.00000E+000	-8.10000E-002	-9.07606E-004	10	..........a	-327.74
	588	5.89	-8.89381E-002	6.30941E-007	0.00000E+000	-8.80000E-002	-7.97606E-004	10	..........a	-327.74
	595	5.96	-9.59523E-002	3.38517E-007	0.00000E+000	-9.50000E-002	-7.49272E-004	10	..........a	-327.74
	602	6.03	-1.02954E-001	1.29644E-007	0.00000E+000	-1.02000E-001	-8.14272E-004	10	..........a	-327.74
	609	6.1	-1.09975E-001	8.14750E-007	0.00000E+000	-1.09000E-001	-8.39272E-004	10	..........a	-327.74
	616	6.17	-1.16971E-001	3.13453E-007	0.00000E+000	-1.16000E-001	-8.34272E-004	10	..........a	-327.74
	623	6.24	-1.23936E-001	2.46613E-007	0.00000E+000	-1.23000E-001	-8.00939E-004	10	..........a	-327.74
	630	6.31	-1.30979E-001	3.46872E-007	0.00000E+000	-1.30000E-001	-8.57606E-004	10	..........a	-327.74
	637	6.38	-1.37957E-001	3.05098E-007	0.00000E+000	-1.37000E-001	-8.32606E-004	10	..........a	-327.74
	644	6.45	-1.44929E-001	-2.37974E-007	0.00000E+000	-1.44000E-001	-8.14272E-004	10	..........a	-327.74
	651	6.52	-1.51980E-001	1.46353E-007	0.00000E+000	-1.51000E-001	-8.37606E-004	10	..........a	-327.74
	658	6.59	-1.58913E-001	-1.29360E-007	0.00000E+000	-1.58000E-001	-8.17605E-004	10	..........a	-327.74
	665	6.66	-1.65956E-001	-3.96718E-007	0.00000E+000	-1.65000E-001	-8.00939E-004	10	..........a	-327.74
	672	6.73	-1.72974E-001	-3.29879E-007	0.00000E+000	-1.72000E-001	-9.20939E-004	10	..........a	-327.74
	679	6.8	-1.79872E-001	-7.64336E-007	0.00000E+000	-1.79000E-001	-8.25939E-004	10	..........a	-327.74
	686	6.87	-1.86961E-001	-6.39012E-007	0.00000E+000	-1.86000E-001	-8.80939E-004	10	..........a	-327.74
	693	6.94	-1.93954E-001	-3.13169E-007	0.00000E+000	-1.93000E-001	-8.80939E-004	10	..........a	-327.74
	700	7.01	-2.00958E-001	-4.05073E-007	0.00000E+000	-2.00000E-001	-8.82606E-004	10	..........a	-327.74
	707	7.08	-2.07881E-001	-6.97496E-007	0.00000E+000	-2.07000E-001	-7.62605E-004	10	..........a	-327.74
	714	7.15	-2.14877E-001	-8.14466E-007	0.00000E+000	-2.14000E-001	-8.57606E-004	10	..........a	-327.74
	721	7.22	-2.21942E-001	-6.39012E-007	0.00000E+000	-2.21000E-001	-9.04272E-004	10	..........a	-327.74
	728	7.29	-2.28919E-001	-9.06370E-007	0.00000E+000	-2.28000E-001	-7.84272E-004	10	..........a	-327.74
	735	7.36	-2.35896E-001	-2.54684E-007	0.00000E+000	-2.35000E-001	-9.45939E-004	10	..........a	-327.74
	742	7.43	-2.42916E-001	-8.89660E-007	0.00000E+000	-2.42000E-001	-8.40939E-004	10	..........a	-327.74
	749	7.5	-2.49941E-001	-7.64336E-007	0.00000E+000	-2.49000E-001	-8.10939E-004	10	..........a	-327.74
	756	7.57	-2.56911E-001	-8.39531E-007	0.00000E+000	-2.56000E-001	-8.02606E-004	10	..........a	-327.74
	763	7.64	-2.63921E-001	-1.09018E-006	0.00000E+000	-2.63000E-001	-8.74272E-004	10	..........a	-327.74
	770	7.71	-2.70909E-001	-1.39931E-006	0.00000E+000	-2.70000E-001	-8.59272E-004	10	..........a	-327.74
	777	7.78	-2.77926E-001	-1.60819E-006	0.00000E+000	-2.77000E-001	-7.37606E-004	10	..........a	-327.74
	784	7.85	-2.84926E-001	-1.72516E-006	0.00000E+000	-2.84000E-001	-7.84272E-004	10	..........a	-327.74
	791	7.92	-2.91894E-001	-1.64161E-006	0.00000E+000	-2.91000E-001	-8.39272E-004	10	..........a	-327.74
	798	7.99	-2.98909E-001	-2.06771E-006	0.00000E+000	-2.98000E-001	-7.70939E-004	10	..........a	-327.74
	805	8.06	-3.05922E-001	-1.77528E-006	0.00000E+000	-3.05000E-001	-7.72606E-004	10	..........a	-327.74
	812	8.13	-3.12941E-001	-1.95074E-006	0.00000E+000	-3.12000E-001	-9.27606E-004	10	..........a	-327.74
	819	8.2	-3.19892E-001	-2.31836E-006	0.00000E+000	-3.19000E-001	-7.64272E-004	10	..........a	-327.74
	826	8.27	-3.26903E-001	-2.20974E-006	0.00000E+000	-3.26000E-001	-8.97606E-004	10	..........a	-327.74
	833	8.34	-3.33904E-001	-2.81130E-006	0.00000E+000	-3.33000E-001	-8.89272E-004	10	..........a	-327.74
	840	8.41	-3.40971E-001	-2.98675E-006	0.00000E+000	-3.40000E-001	-8.87605E-004	10	..........a	-327.74
	847	8.48	-3.47884E-001	-3.42956E-006	0.00000E+000	-3.47000E-001	-8.15939E-004	10	..........a	-327.74
	854	8.55	-3.54904E-001	-4.19822E-006	0.00000E+000	-3.54000E-001	-8.47606E-004	10	..........a	-327.74
	861	8.62	-3.61856E-001	-4.68281E-006	0.00000E+000	-3.61000E-001	-8.35939E-004	10	..........a	-327.74
	868	8.69	-3.68892E-001	-5.36791E-006	0.00000E+000	-3.68000E-001	-8.55939E-004	10	..........a	-327.74
	875	8.76	-3.75958E-001	-6.27860E-006	0.00000E+000	-3.75000E-001	-8.99272E-004	10	..........a	-327.74
	882	8.83	-3.82908E-001	-7.30626E-006	0.00000E+000	-3.82000E-001	-9.14272E-004	10	..........a	-327.74
	889	8.9	-3.89904E-001	-8.86864E-006	0.00000E+000	-3.89000E-001	-8.49272E-004	10	..........a	-327.74
	896	8.97	-3.96905E-001	-1.08738E-005	0.00000E+000	-3.96000E-001	-8.87605E-004	10	..........a	-327.74
	903	9.04	-4.03861E-001	-1.30962E-005	0.00000E+000	-4.03000E-001	-8.24272E-004	10	..........a	-327.74
	910	9.11	-4.10869E-001	-1.58367E-005	0.00000E+000	-4.10000E-001	-7.74272E-004	10	..........a	-327.74
	917	9.18	-4.17896E-001	-1.85102E-005	0.00000E+000	-4.17000E-001	-8.34272E-004	10	..........a	-327.74
	924	9.25	-4.24896E-001	-2.21530E-005	0.00000E+000	-4.24000E-001	-8.35939E-004	10	..........a	-327.74
	931	9.32	-4.31877E-001	-2.58543E-005	0.00000E+000	-4.31000E-001	-8.67606E-004	10	..........a	-327.74
	938	9.39	-4.38827E-001	-2.94051E-005	0.00000E+000	-4.38000E-001	-8.34272E-004	10	..........a	-327.74
	945	9.46	-4.45910E-001	-3.32066E-005	0.00000E+000	-4.45000E-001	-9.05939E-004	10	..........a	-327.74
	952	9.53	-4.52892E-001	-3.74843E-005	0.00000E+000	-4.52000E-001	-8.25939E-004	10	..........a	-327.74
	959	9.6	-4.59858E-001	-4.15532E-005	0.00000E+000	-4.59000E-001	-8.32606E-004	10	..........a	-327.74
	966	9.67	-4.66857E-001	-4.59145E-005	0.00000E+000	-4.66000E-001	-8.82606E-004	10	..........a	-327.74
	973	9.74	-4.73838E-001	-5.07604E-005	0.00000E+000	-4.73000E-001	-8.05939E-004	10	..........a	-327.74
	980	9.81	-4.80850E-001	-5.56731E-005	0.00000E+000	-4.80000E-001	-7.89272E-004	10	..........a	-327.74
	987	9.88	-4.87850E-001	-6.08782E-005	0.00000E+000	-4.87000E-001	-9.32606E-004	10	..........a	-327.74
	994	9.95	-4.94836E-001	-6.70859E-005	0.00000E+000	-4.94000E-001	-7.89272E-004	10	..........a	-327.74
	1001	10.02	-5.01857E-001	-7.40874E-005	0.00000E+000	-5.01000E-001	-8.34272E-004	10	..........a	-327.74
	1008	10.09	-5.08874E-001	-8.19243E-005	0.00000E+000	-5.08000E-001	-8.02606E-004	10	..........a	-327.74
	1015	10.16	-5.15814E-001	-9.08474E-005	0.00000E+000	-5.15000E-001	-8.27606E-004	10	..........a	-327.74
	1022	10.23	-5.22853E-001	-1.00848E-004	0.00000E+000	-5.22000E-001	-8.14272E-004	10	..........a	-327.74
	1029	10.3	-5.29831E-001	-1.11526E-004	0.00000E+000	-5.29000E-001	-8.30939E-004	10	..........a	-327.74
	1036	10.37	-5.36848E-001	-1.22128E-004	0.00000E+000	-5.36000E-001	-8.57606E-004	10	..........a	-327.74
	1043	10.44	-5.43856E-001	-1.32873E-004	0.00000E+000	-5.43000E-001	-8.62605E-004	10	..........a	-327.74
	1050	10.51	-5.50825E-001	-1.42548E-004	0.00000E+000	-5.50000E-001	-9.05939E-004	10	..........a	-327.74
	1057	10.58	-5.57817E-001	-1.51028E-004	0.00000E+000	-5.57000E-001	-8.05939E-004	10	..........a	-327.74
	1064	10.65	-5.64873E-001	-1.57370E-004	0.00000E+000	-5.64000E-001	-8.70939E-004	10	..........a	-327.74
	1071	10.72	-5.71755E-001	-1.61873E-004	0.00000E+000	-5.71000E-001	-8.07606E-004	10	..........a	-327.74
	1078	10.79	-5.78856E-001	-1.63962E-004	0.00000E+000	-5.78000E-001	-9.02606E-004	10	..........a	-327.74
	1085	10.86	-5.85846E-001	-1.64062E-004	0.00000E+000	-5.85000E-001	-8.52606E-004	10	..........a	-327.74
	1092	10.93	-5.92807E-001	-1.62291E-004	0.00000E+000	-5.92000E-001	-8.32606E-004	10	..........a	-327.74
	1099	11	-5.99842E-001	-1.59141E-004	0.00000E+000	-5.99000E-001	-7.94272E-004	10	..........a	-327.74
	1106	11.07	-6.06841E-001	-1.54328E-004	0.00000E+000	-6.06000E-001	-9.20939E-004	10	..........a	-327.74
	1113	11.14	-6.13849E-001	-1.49883E-004	0.00000E+000	-6.13000E-001	-9.04272E-004	10	..........a	-327.74
	1120	11.21	-6.20776E-001	-1.45088E-004	0.00000E+000	-6.20000E-001	-7.92605E-004	10	..........a	-327.74
	1127	11.28	-6.27767E-001	-1.40476E-004	0.00000E+000	-6.27000E-001	-8.00939E-004	10	..........a	-327.74
	1134	11.35	-6.34794E-001	-1.35588E-004	0.00000E+000	-6.34000E-001	-9.04272E-004	10	..........a	-327.74
	1141	11.42	-6.41790E-001	-1.31386E-004	0.00000E+000	-6.41000E-001	-8.39272E-004	10	..........a	-327.74
	1148	11.49	-6.48746E-001	-1.27442E-004	0.00000E+000	-6.48000E-001	-7.94272E-004	10	..........a	-327.74
	1155	11.56	-6.55758E-001	-1.23841E-004	0.00000E+000	-6.55000E-001	-8.69272E-004	10	..........a	-327.74
	1162	11.63	-6.62771E-001	-1.20090E-004	0.00000E+000	-6.62000E-001	-8.52606E-004	10	..........a	-327.74
	1169	11.7	-6.69767E-001	-1.16948E-004	0.00000E+000	-6.69000E-001	-8.09272E-004	10	..........a	-327.74
	1176	11.77	-6.76774E-001	-1.13991E-004	0.00000E+000	-6.76000E-001	-7.67605E-004	10	..........a	-327.74
	1183	11.84	-6.83798E-001	-1.10715E-004	0.00000E+000	-6.83000E-001	-9.17605E-004	10	..........a	-327.74
	1190	11.91	-6.90795E-001	-1.08351E-004	0.00000E+000	-6.90000E-001	-8.64272E-004	10	..........a	-327.74
	1197	11.98	-6.97816E-001	-1.05903E-004	0.00000E+000	-6.97000E-001	-9.22606E-004	10	..........a	-327.74
	1204	12.05	-7.04783E-001	-1.03773E-004	0.00000E+000	-7.04000E-001	-8.54272E-004	10	..........a	-327.74
	1211	12.12	-7.11776E-001	-1.01934E-004	0.00000E+000	-7.11000E-001	-8.40939E-004	10	..........a	-327.74
	1218	12.19	-7.18721E-001	-1.00021E-004	0.00000E+000	-7.18000E-001	-8.07606E-004	10	..........a	-327.74
	1225	12.26	-7.25773E-001	-9.85089E-005	0.00000E+000	-7.25000E-001	-7.39272E-004	10	..........a	-327.74
	1232	12.33	-7.32681E-001	-9.71805E-005	0.00000E+000	-7.32000E-001	-6.85939E-004	10	..........a	-327.74
	1239	12.4	-7.39708E-001	-9.54343E-005	0.00000E+000	-7.39000E-001	-7.84272E-004	10	..........a	-327.74
	1246	12.47	-7.46743E-001	-9.35293E-005	0.00000E+000	-7.46000E-001	-8.62605E-004	10	..........a	-327.74
	1253	12.54	-7.53808E-001	-9.19168E-005	0.00000E+000	-7.53000E-001	-9.17605E-004	10	..........a	-327.74
	1260	12.61	-7.60744E-001	-9.08307E-005	0.00000E+000	-7.60000E-001	-8.57606E-004	10	..........a	-327.74
	1267	12.68	-7.67751E-001	-8.93936E-005	0.00000E+000	-7.67000E-001	-7.94272E-004	10	..........a	-327.74
	1274	12.75	-7.74714E-001	-8.78814E-005	0.00000E+000	-7.74000E-001	-8.17605E-004	10	..........a	-327.74
	1281	12.82	-7.81711E-001	-8.72715E-005	0.00000E+000	-7.81000E-001	-8.49272E-004	10	..........a	-327.74
	1288	12.89	-7.88736E-001	-8.60182E-005	0.00000E+000	-7.88000E-001	-8.64272E-004	10	..........a	-327.74
	1295	12.96	-7.95668E-001	-8.48653E-005	0.00000E+000	-7.95000E-001	-7.69272E-004	10	..........a	-327.74
	1302	13.03	-8.02710E-001	-8.37039E-005	0.00000E+000	-8.02000E-001	-8.00939E-004	10	..........a	-327.74
	1309	13.1	-8.09728E-001	-8.28684E-005	0.00000E+000	-8.09000E-001	-8.04272E-004	10	..........a	-327.74
	1316	13.17	-8.16703E-001	-8.15316E-005	0.00000E+000	-8.16000E-001	-8.77606E-004	10	..........a	-327.74
	1323	13.24	-8.23671E-001	-8.05040E-005	0.00000E+000	-8.23000E-001	-8.52606E-004	10	..........a	-327.74
	1330	13.31	-8.30640E-001	-7.96601E-005	0.00000E+000	-8.30000E-001	-8.30939E-004	10	..........a	-327.74
	1337	13.38	-8.37606E-001	-7.92591E-005	0.00000E+000	-8.37000E-001	-7.19272E-004	10	..........a	-327.74
	1344	13.45	-8.44691E-001	-7.79557E-005	0.00000E+000	-8.44000E-001	-8.09272E-004	10	..........a	-327.74
	1351	13.52	-8.51601E-001	-7.71453E-005	0.00000E+000	-8.51000E-001	-7.94272E-004	10	..........a	-327.74
	1358	13.59	-8.58651E-001	-7.63850E-005	0.00000E+000	-8.58000E-001	-8.14272E-004	10	..........a	-327.74
	1365	13.66	-8.65639E-001	-7.59923E-005	0.00000E+000	-8.65000E-001	-7.90939E-004	10	..........a	-327.74
	1372	13.73	-8.72639E-001	-7.46388E-005	0.00000E+000	-8.72000E-001	-8.49272E-004	10	..........a	-327.74
	1379	13.8	-8.79733E-001	-7.36028E-005	0.00000E+000	-8.79000E-001	-9.04272E-004	10	..........a	-327.74
	1386	13.87	-8.86656E-001	-7.31600E-005	0.00000E+000	-8.86000E-001	-8.35939E-004	10	..........a	-327.74
	1393	13.94	-8.93624E-001	-7.25835E-005	0.00000E+000	-8.93000E-001	-8.79272E-004	10	..........a	-327.74
	1400	14.01	-9.00646E-001	-7.20738E-005	0.00000E+000	-9.00000E-001	-7.72606E-004	10	..........a	-327.74
	1407	14.08	-9.07628E-001	-7.13135E-005	0.00000E+000	-9.07000E-001	-7.62605E-004	10	..........a	-327.74
	1414	14.15	-9.14650E-001	-7.07203E-005	0.00000E+000	-9.14000E-001	-8.35939E-004	10	..........a	-327.74
	1421	14.22	-9.21637E-001	-7.03276E-005	0.00000E+000	-9.21000E-001	-8.34272E-004	10	..........a	-327.74
	1428	14.29	-9.28655E-001	-6.98514E-005	0.00000E+000	-9.28000E-001	-8.27606E-004	10	..........a	-327.74
	1435	14.36	-9.35611E-001	-6.94838E-005	0.00000E+000	-9.35000E-001	-7.60939E-004	10	..........a	-327.74
	1442	14.43	-9.42622E-001	-6.89491E-005	0.00000E+000	-9.42000E-001	-8.27606E-004	10	..........a	-327.74
	1449	14.5	-9.49601E-001	-6.86065E-005	0.00000E+000	-9.49000E-001	-8.04272E-004	10	..........a	-327.74
	1456	14.57	-9.56665E-001	-6.78880E-005	0.00000E+000	-9.56000E-001	-8.35939E-004	10	..........a	-327.74
	1463	14.64	-9.63626E-001	-6.73616E-005	0.00000E+000	-9.63000E-001	-8.72606E-004	10	..........a	-327.74
	1470	14.71	-9.70655E-001	-6.70107E-005	0.00000E+000	-9.70000E-001	-8.24272E-004	10	..........a	-327.74
	1477	14.78	-9.77633E-001	-6.67183E-005	0.00000E+000	-9.77000E-001	-7.67605E-004	10	..........a	-327.74
	1484	14.85	-9.84581E-001	-6.60750E-005	0.00000E+000	-9.84000E-001	-8.27606E-004	10	..........a	-327.74
	1491	14.92	-9.91655E-001	-6.56238E-005	0.00000E+000	-9.91000E-001	-9.10939E-004	10	..........a	-327.74
	1498	14.99	-9.98591E-001	-6.55653E-005	0.00000E+000	-9.98000E-001	-8.04272E-004	10	..........a	-327.74
	1505	15.06	-9.95565E-001	-6.39862E-005	0.00000E+000	-9.95000E-001	-7.17605E-004	10	..........a	-327.74
	1512	15.13	-9.88625E-001	-6.24824E-005	0.00000E+000	-9.88000E-001	-8.67606E-004	10	..........a	-327.74
	1519	15.2	-9.81633E-001	-6.16886E-005	0.00000E+000	-9.81000E-001	-7.95939E-004	10	..........a	-327.74
	1526	15.27	-9.74637E-001	-6.03435E-005	0.00000E+000	-9.74000E-001	-9.17605E-004	10	..........a	-327.74
	1533	15.34	-9.67631E-001	-5.97002E-005	0.00000E+000	-9.67000E-001	-8.35939E-004	10	..........a	-327.74
	1540	15.41	-9.60617E-001	-5.88647E-005	0.00000E+000	-9.60000E-001	-8.09272E-004	10	..........a	-327.74
	1547	15.48	-9.53702E-001	-5.83216E-005	0.00000E+000	-9.53000E-001	-8.92605E-004	10	..........a	-327.74
	1554	15.55	-9.46693E-001	-5.76783E-005	0.00000E+000	-9.46000E-001	-8.67606E-004	10	..........a	-327.74
	1561	15.62	-9.39661E-001	-5.70934E-005	0.00000E+000	-9.39000E-001	-8.05939E-004	10	..........a	-327.74
	1568	15.69	-9.32691E-001	-5.63331E-005	0.00000E+000	-9.32000E-001	-8.25939E-004	10	..........a	-327.74
	1575	15.76	-9.25569E-001	-5.63248E-005	0.00000E+000	-9.25000E-001	-7.04272E-004	10	..........a	-327.74
	1582	15.83	-9.18624E-001	-5.59154E-005	0.00000E+000	-9.18000E-001	-8.49272E-004	10	..........a	-327.74
	1589	15.9	-9.11648E-001	-5.51885E-005	0.00000E+000	-9.11000E-001	-8.55939E-004	10	..........a	-327.74
	1596	15.97	-9.04671E-001	-5.48042E-005	0.00000E+000	-9.04000E-001	-8.05939E-004	10	..........a	-327.74
	1603	16.04	-8.97654E-001	-5.44449E-005	0.00000E+000	-8.97000E-001	-8.62605E-004	10	..........a	-327.74
	1610	16.11	-8.90661E-001	-5.37848E-005	0.00000E+000	-8.90000E-001	-8.70939E-004	10	..........a	-327.74
	1617	16.18	-8.83646E-001	-5.38016E-005	0.00000E+000	-8.83000E-001	-8.05939E-004	10	..........a	-327.74
	1624	16.25	-8.76682E-001	-5.32167E-005	0.00000E+000	-8.76000E-001	-8.52606E-004	10	..........a	-327.74
	1631	16.32	-8.69725E-001	-5.27071E-005	0.00000E+000	-8.69000E-001	-8.75939E-004	10	..........a	-327.74
	1638	16.39	-8.62672E-001	-5.26235E-005	0.00000E+000	-8.62000E-001	-8.80939E-004	10	..........a	-327.74
	1645	16.46	-8.55701E-001	-5.22643E-005	0.00000E+000	-8.55000E-001	-8.12605E-004	10	..........a	-327.74
	1652	16.53	-8.48638E-001	-5.18632E-005	0.00000E+000	-8.48000E-001	-8.79272E-004	10	..........a	-327.74
	1659	16.6	-8.41674E-001	-5.15290E-005	0.00000E+000	-8.41000E-001	-7.72606E-004	10	..........a	-327.74
	1666	16.67	-8.34690E-001	-5.12784E-005	0.00000E+000	-8.34000E-001	-8.60939E-004	10	..........a	-327.74
	1673	16.74	-8.27656E-001	-5.10277E-005	0.00000E+000	-8.27000E-001	-8.22606E-004	10	..........a	-327.74
	1680	16.81	-8.20650E-001	-5.07520E-005	0.00000E+000	-8.20000E-001	-7.47606E-004	10	..........a	-327.74
	1687	16.88	-8.13746E-001	-5.03593E-005	0.00000E+000	-8.13000E-001	-9.20939E-004	10	..........a	-327.74
	1694	16.95	-8.06715E-001	-5.00669E-005	0.00000E+000	-8.06000E-001	-7.39272E-004	10	..........a	-327.74
	1701	17.02	-7.99745E-001	-4.93400E-005	0.00000E+000	-7.99000E-001	-7.99272E-004	10	..........a	-327.74
	1708	17.09	-7.92698E-001	-4.92230E-005	0.00000E+000	-7.92000E-001	-7.85939E-004	10	..........a	-327.74
	1715	17.16	-7.85736E-001	-4.86131E-005	0.00000E+000	-7.85000E-001	-8.60939E-004	10	..........a	-327.74
	1722	17.23	-7.78761E-001	-4.82873E-005	0.00000E+000	-7.78000E-001	-8.85939E-004	10	..........a	-327.74
	1729	17.3	-7.71691E-001	-4.80617E-005	0.00000E+000	-7.71000E-001	-8.67606E-004	10	..........a	-327.74
	1736	17.37	-7.64761E-001	-4.77275E-005	0.00000E+000	-7.64000E-001	-8.89272E-004	10	..........a	-327.74
	1743	17.44	-7.57701E-001	-4.77944E-005	0.00000E+000	-7.57000E-001	-7.54272E-004	10	..........a	-327.74
	1750	17.51	-7.50696E-001	-4.74017E-005	0.00000E+000	-7.50000E-001	-7.84272E-004	10	..........a	-327.74
	1757	17.58	-7.43715E-001	-4.71176E-005	0.00000E+000	-7.43000E-001	-7.44272E-004	10	..........a	-327.74
	1764	17.65	-7.36784E-001	-4.62153E-005	0.00000E+000	-7.36000E-001	-8.49272E-004	10	..........a	-327.74
	1771	17.72	-7.29750E-001	-4.61401E-005	0.00000E+000	-7.29000E-001	-8.62605E-004	10	..........a	-327.74
	1778	17.79	-7.22709E-001	-4.57641E-005	0.00000E+000	-7.22000E-001	-7.85939E-004	10	..........a	-327.74
	1785	17.86	-7.15743E-001	-4.51625E-005	0.00000E+000	-7.15000E-001	-8.17605E-004	10	..........a	-327.74
	1792	17.93	-7.08770E-001	-4.51876E-005	0.00000E+000	-7.08000E-001	-7.82606E-004	10	..........a	-327.74
	1799	18	-7.01810E-001	-4.45610E-005	0.00000E+000	-7.01000E-001	-9.77606E-004	10	..........a	-327.74
	1806	18.07	-6.94726E-001	-4.41850E-005	0.00000E+000	-6.94000E-001	-8.87605E-004	10	..........a	-327.74
	1813	18.14	-6.87792E-001	-4.38592E-005	0.00000E+000	-6.87000E-001	-8.34272E-004	10	..........a	-327.74
	1820	18.21	-6.80739E-001	-4.32660E-005	0.00000E+000	-6.80000E-001	-9.20939E-004	10	..........a	-327.74
	1827	18.28	-6.73815E-001	-4.27145E-005	0.00000E+000	-6.73000E-001	-8.87605E-004	10	..........a	-327.74
	1834	18.35	-6.66793E-001	-4.22550E-005	0.00000E+000	-6.66000E-001	-8.60939E-004	10	..........a	-327.74
	1841	18.42	-6.59765E-001	-4.17537E-005	0.00000E+000	-6.59000E-001	-8.05939E-004	10	..........a	-327.74
	1848	18.49	-6.52769E-001	-4.10435E-005	0.00000E+000	-6.52000E-001	-7.89272E-004	10	..........a	-327.74
	1855	18.56	-6.45772E-001	-3.99992E-005	0.00000E+000	-6.45000E-001	-8.37606E-004	10	..........a	-327.74
	1862	18.63	-6.38766E-001	-3.94310E-005	0.00000E+000	-6.38000E-001	-8.45939E-004	10	..........a	-327.74
	1869	18.7	-6.31806E-001	-3.81444E-005	0.00000E+000	-6.31000E-001	-8.52606E-004	10	..........a	-327.74
	1876	18.77	-6.24843E-001	-3.71669E-005	0.00000E+000	-6.24000E-001	-8.44272E-004	10	..........a	-327.74
	1883	18.84	-6.17816E-001	-3.54123E-005	0.00000E+000	-6.17000E-001	-8.37606E-004	10	..........a	-327.74
	1890	18.91	-6.10843E-001	-3.33403E-005	0.00000E+000	-6.10000E-001	-7.87605E-004	10	..........a	-327.74
	1897	18.98	-6.03839E-001	-3.08923E-005	0.00000E+000	-6.03000E-001	-9.25939E-004	10	..........a	-327.74
	1904	19.05	-5.96941E-001	-2.78344E-005	0.00000E+000	-5.96000E-001	-9.15939E-004	10	..........a	-327.74
	1911	19.12	-5.89807E-001	-2.46344E-005	0.00000E+000	-5.89000E-001	-8.30939E-004	10	..........a	-327.74
	1918	19.19	-5.82861E-001	-1.97134E-005	0.00000E+000	-5.82000E-001	-8.90939E-004	10	..........a	-327.74
	1925	19.26	-5.75801E-001	-1.46001E-005	0.00000E+000	-5.75000E-001	-7.72606E-004	10	..........a	-327.74
	1932	19.33	-5.68774E-001	-7.69059E-006	0.00000E+000	-5.68000E-001	-8.40939E-004	10	..........a	-327.74
	1939	19.4	-5.61808E-001	-3.74554E-008	0.00000E+000	-5.61000E-001	-8.57606E-004	10	..........a	-327.74
	1946	19.47	-5.54860E-001	8.35091E-006	0.00000E+000	-5.54000E-001	-9.07606E-004	10	..........a	-327.74
	1953	19.54	-5.47814E-001	1.73408E-005	0.00000E+000	-5.47000E-001	-8.62605E-004	10	..........a	-327.74
	1960	19.61	-5.40858E-001	2.63725E-005	0.00000E+000	-5.40000E-001	-8.62605E-004	10	..........a	-327.74
	1967	19.68	-5.33872E-001	3.54627E-005	0.00000E+000	-5.33000E-001	-9.37606E-004	10	..........a	-327.74
	1974	19.75	-5.26806E-001	4.35169E-005	0.00000E+000	-5.26000E-001	-8.04272E-004	10	..........a	-327.74
	1981	19.82	-5.19849E-001	5.17632E-005	0.00000E+000	-5.19000E-001	-8.94272E-004	10	..........a	-327.74
	1988	19.89	-5.12873E-001	5.88315E-005	0.00000E+000	-5.12000E-001	-8.60939E-004	10	..........a	-327.74
	1995	19.96	-5.05841E-001	6.55405E-005	0.00000E+000	-5.05000E-001	-8.37606E-004	10	..........a	-327.74
	2002	20.03	-4.98860E-001	7.12888E-005	0.00000E+000	-4.98000E-001	-8.22606E-004	10	..........a	-327.74
	2009	20.1	-4.91866E-001	7.65607E-005	0.00000E+000	-4.91000E-001	-9.37606E-004	10	..........a	-327.74
	2016	20.17	-4.84876E-001	8.06797E-005	0.00000E+000	-4.84000E-001	-8.42605E-004	10	..........a	-327.74
	2023	20.24	-4.77876E-001	8.39799E-005	0.00000E+000	-4.77000E-001	-8.39272E-004	10	..........a	-327.74
	2030	20.31	-4.70873E-001	8.69793E-005	0.00000E+000	-4.70000E-001	-8.40939E-004	10	..........a	-327.74
	2037	20.38	-4.63906E-001	8.86587E-005	0.00000E+000	-4.63000E-001	-8.69272E-004	10	..........a	-327.74
	2044	20.45	-4.56859E-001	8.92602E-005	0.00000E+000	-4.56000E-001	-7.85939E-004	10	..........a	-327.74
	2051	20.52	-4.49887E-001	8.95025E-005	0.00000E+000	-4.49000E-001	-8.85939E-004	10	..........a	-327.74
	2058	20.59	-4.42886E-001	8.83663E-005	0.00000E+000	-4.42000E-001	-8.09272E-004	10	..........a	-327.74
	2065	20.66	-4.35872E-001	8.71130E-005	0.00000E+000	-4.35000E-001	-8.22606E-004	10	..........a	-327.74
	2072	20.73	-4.28897E-001	8.55841E-005	0.00000E+000	-4.28000E-001	-8.47606E-004	10	..........a	-327.74
	2079	20.8	-4.21898E-001	8.32948E-005	0.00000E+000	-4.21000E-001	-8.45939E-004	10	..........a	-327.74
	2086	20.87	-4.14847E-001	8.12896E-005	0.00000E+000	-4.14000E-001	-8.15939E-004	10	..........a	-327.74
	2093	20.94	-4.07904E-001	7.84155E-005	0.00000E+000	-4.07000E-001	-8.89272E-004	10	..........a	-327.74
	2100	21.01	-4.00911E-001	7.56918E-005	0.00000E+000	-4.00000E-001	-8.15939E-004	10	..........a	-327.74
	2107	21.08	-3.93873E-001	7.36950E-005	0.00000E+000	-3.93000E-001	-9.00939E-004	10	..........a	-327.74
	2114	21.15	-3.86897E-001	7.11634E-005	0.00000E+000	-3.86000E-001	-7.87605E-004	10	..........a	-327.74
	2121	21.22	-3.79905E-001	6.88324E-005	0.00000E+000	-3.79000E-001	-8.59272E-004	10	..........a	-327.74
	2128	21.29	-3.72902E-001	6.68690E-005	0.00000E+000	-3.72000E-001	-8.05939E-004	10	..........a	-327.74
	2135	21.36	-3.65886E-001	6.51228E-005	0.00000E+000	-3.65000E-001	-9.02606E-004	10	..........a	-327.74
	2142	21.43	-3.58875E-001	6.36774E-005	0.00000E+000	-3.58000E-001	-8.20939E-004	10	..........a	-327.74
	2149	21.5	-3.51916E-001	6.17056E-005	0.00000E+000	-3.51000E-001	-8.75939E-004	10	..........a	-327.74
	2156	21.57	-3.44933E-001	6.01683E-005	0.00000E+000	-3.44000E-001	-8.32606E-004	10	..........a	-327.74
	2163	21.64	-3.37893E-001	5.86143E-005	0.00000E+000	-3.37000E-001	-8.64272E-004	10	..........a	-327.74
	2170	21.71	-3.30926E-001	5.75950E-005	0.00000E+000	-3.30000E-001	-8.42605E-004	10	..........a	-327.74
	2177	21.78	-3.23878E-001	5.58989E-005	0.00000E+000	-3.23000E-001	-8.17605E-004	10	..........a	-327.74
	2184	21.85	-3.16899E-001	5.49548E-005	0.00000E+000	-3.16000E-001	-7.74272E-004	10	..........a	-327.74
	2191	21.92	-3.09958E-001	5.41945E-005	0.00000E+000	-3.09000E-001	-8.95939E-004	10	..........a	-327.74
	2198	21.99	-3.02916E-001	5.31919E-005	0.00000E+000	-3.02000E-001	-8.45939E-004	10	..........a	-327.74
	2205	22.06	-2.95931E-001	5.19637E-005	0.00000E+000	-2.95000E-001	-8.64272E-004	10	..........a	-327.74
	2212	22.13	-2.88890E-001	5.09361E-005	0.00000E+000	-2.88000E-001	-8.40939E-004	10	..........a	-327.74
	2219	22.2	-2.81896E-001	5.01424E-005	0.00000E+000	-2.81000E-001	-9.25939E-004	10	..........a	-327.74
	2226	22.27	-2.74972E-001	4.94406E-005	0.00000E+000	-2.74000E-001	-9.07606E-004	10	..........a	-327.74
	2233	22.34	-2.67835E-001	4.81121E-005	0.00000E+000	-2.67000E-001	-8.55939E-004	10	..........a	-327.74
	2240	22.41	-2.60926E-001	4.72766E-005	0.00000E+000	-2.60000E-001	-8.45939E-004	10	..........a	-327.74
	2247	22.48	-2.53973E-001	4.64745E-005	0.00000E+000	-2.53000E-001	-8.32606E-004	10	..........a	-327.74
	2254	22.55	-2.46905E-001	4.54135E-005	0.00000E+000	-2.46000E-001	-8.10939E-004	10	..........a	-327.74
	2261	22.62	-2.39996E-001	4.49539E-005	0.00000E+000	-2.39000E-001	-8.54272E-004	10	..........a	-327.74
	2268	22.69	-2.32955E-001	4.39430E-005	0.00000E+000	-2.32000E-001	-8.30939E-004	10	..........a	-327.74
	2275	22.76	-2.25929E-001	4.32830E-005	0.00000E+000	-2.25000E-001	-8.97606E-004	10	..........a	-327.74
	2282	22.83	-2.18922E-001	4.23472E-005	0.00000E+000	-2.18000E-001	-8.90939E-004	10	..........a	-327.74
	2289	22.9	-2.11940E-001	4.15786E-005	0.00000E+000	-2.11000E-001	-8.22606E-004	10	..........a	-327.74
	2296	22.97	-2.04926E-001	4.12444E-005	0.00000E+000	-2.04000E-001	-9.25939E-004	10	..........a	-327.74
	2303	23.04	-1.97959E-001	3.99076E-005	0.00000E+000	-1.97000E-001	-7.82606E-004	10	..........a	-327.74
	2310	23.11	-1.90922E-001	3.91640E-005	0.00000E+000	-1.90000E-001	-7.52606E-004	10	..........a	-327.74
	2317	23.18	-1.83944E-001	3.86376E-005	0.00000E+000	-1.83000E-001	-8.50939E-004	10	..........a	-327.74
	2324	23.25	-1.76998E-001	3.80611E-005	0.00000E+000	-1.76000E-001	-8.25939E-004	10	..........a	-327.74
	2331	23.32	-1.69982E-001	3.71755E-005	0.00000E+000	-1.69000E-001	-9.07606E-004	10	..........a	-327.74
	2338	23.39	-1.63000E-001	3.63066E-005	0.00000E+000	-1.62000E-001	-9.27606E-004	10	..........a	-327.74
	2345	23.46	-1.55986E-001	3.62063E-005	0.00000E+000	-1.55000E-001	-9.20939E-004	10	..........a	-327.74
	2352	23.53	-1.48991E-001	3.53541E-005	0.00000E+000	-1.48000E-001	-8.65939E-004	10	..........a	-327.74
	2359	23.6	-1.41978E-001	3.47108E-005	0.00000E+000	-1.41000E-001	-8.22606E-004	10	..........a	-327.74
	2366	23.67	-1.34923E-001	3.40758E-005	0.00000E+000	-1.34000E-001	-8.80939E-004	10	..........a	-327.74
	2373	23.74	-1.27967E-001	3.34241E-005	0.00000E+000	-1.27000E-001	-8.35939E-004	10	..........a	-327.74
	2380	23.81	-1.20961E-001	3.31401E-005	0.00000E+000	-1.20000E-001	-8.20939E-004	10	..........a	-327.74
	2387	23.88	-1.13930E-001	3.24466E-005	0.00000E+000	-1.13000E-001	-8.47606E-004	10	..........a	-327.74
	2394	23.95	-1.06986E-001	3.22544E-005	0.00000E+000	-1.06000E-001	-8.89272E-004	10	..........a	-327.74
	2401	24.02	-9.99864E-002	3.15025E-005	0.00000E+000	-9.90000E-002	-8.44272E-004	10	..........a	-327.74
	2408	24.09	-9.30073E-002	3.11516E-005	0.00000E+000	-9.20000E-002	-9.02606E-004	10	..........a	-327.74
	2415	24.16	-8.60473E-002	3.05250E-005	0.00000E+000	-8.50000E-002	-8.62605E-004	10	..........a	-327.74
	2422	24.23	-7.89573E-002	3.02409E-005	0.00000E+000	-7.80000E-002	-9.69272E-004	10	..........a	-327.74
	2429	24.3	-7.20214E-002	2.99317E-005	0.00000E+000	-7.10000E-002	-8.80939E-004	10	..........a	-327.74
	2436	24.37	-6.49956E-002	2.93135E-005	0.00000E+000	-6.40000E-002	-8.84272E-004	10	..........a	-327.74
	2443	24.44	-5.79748E-002	2.87621E-005	0.00000E+000	-5.70000E-002	-9.14272E-004	10	..........a	-327.74
	2450	24.51	-5.10048E-002	2.80602E-005	0.00000E+000	-5.00000E-002	-8.82606E-004	10	..........a	-327.74
	2457	24.58	-4.40739E-002	2.82106E-005	0.00000E+000	-4.30000E-002	-9.32606E-004	10	..........a	-327.74
	2464	24.65	-3.70089E-002	2.76843E-005	0.00000E+000	-3.60000E-002	-8.42605E-004	10	..........a	-327.74
	2471	24.72	-3.00239E-002	2.71663E-005	0.00000E+000	-2.90000E-002	-8.39272E-004	10	..........a	-327.74
	2478	24.79	-2.30339E-002	2.70326E-005	0.00000E+000	-2.20000E-002	-8.80939E-004	10	..........a	-327.74
	2485	24.86	-1.60639E-002	2.66650E-005	0.00000E+000	-1.50000E-002	-8.55939E-004	10	..........a	-327.74
	2492	24.93	-8.99894E-003	2.60049E-005	0.00000E+000	-8.00000E-003	-8.27606E-004	10	..........a	-327.74
	2499	25	-1.99727E-003	2.59130E-005	0.00000E+000	-1.00000E-003	-8.79272E-004	10	..........a	-327.74
	2506	25.07	4.96773E-003	2.57877E-005	0.00000E+000	5.99998E-003	-8.52606E-004	10	..........a	-327.74
	2513	25.14	1.19886E-002	2.54618E-005	0.00000E+000	1.30000E-002	-9.00939E-004	10	..........a	-327.74
	2520	25.21	1.90002E-002	2.52697E-005	0.00000E+000	2.00000E-002	-8.54272E-004	10	..........a	-327.74
	2527	25.28	2.59752E-002	2.49773E-005	0.00000E+000	2.70000E-002	-7.80939E-004	10	..........a	-327.74
	2534	25.35	3.29719E-002	2.47183E-005	0.00000E+000	3.40000E-002	-7.99272E-004	10	..........a	-327.74
	2541	25.42	3.99594E-002	2.42420E-005	0.00000E+000	4.10000E-002	-8.14272E-004	10	..........a	-327.74
	2548	25.49	4.69827E-002	2.42420E-005	0.00000E+000	4.80000E-002	-7.99272E-004	10	..........a	-327.74
	2555	25.56	5.39677E-002	2.39078E-005	0.00000E+000	5.50000E-002	-7.74272E-004	10	..........a	-327.74
	2562	25.63	6.09394E-002	2.39663E-005	0.00000E+000	6.20000E-002	-8.29272E-004	10	..........a	-327.74
	2569	25.7	6.80002E-002	2.38493E-005	0.00000E+000	6.90000E-002	-8.75939E-004	10	..........a	-327.74
	2576	25.77	7.49677E-002	2.40582E-005	0.00000E+000	7.60000E-002	-8.89272E-004	10	..........a	-327.74
	2583	25.84	8.19186E-002	2.39329E-005	0.00000E+000	8.30000E-002	-8.45939E-004	10	..........a	-327.74
	2590	25.91	8.89652E-002	2.39413E-005	0.00000E+000	9.00000E-002	-8.47606E-004	10	..........a	-327.74
	2597	25.98	9.59602E-002	2.39914E-005	0.00000E+000	9.70000E-002	-8.55939E-004	10	..........a	-327.74
	2604	26.05	1.02927E-001	2.41835E-005	0.00000E+000	1.04000E-001	-8.99272E-004	10	..........a	-327.74
	2611	26.12	1.09919E-001	2.44509E-005	0.00000E+000	1.11000E-001	-8.47606E-004	10	..........a	-327.74
	2618	26.19	1.16874E-001	2.45094E-005	0.00000E+000	1.18000E-001	-8.27606E-004	10	..........a	-327.74
	2625	26.26	1.23942E-001	2.47183E-005	0.00000E+000	1.25000E-001	-8.67606E-004	10	..........a	-327.74
	2632	26.33	1.30931E-001	2.49438E-005	0.00000E+000	1.32000E-001	-8.75939E-004	10	..........a	-327.74
	2639	26.4	1.37891E-001	2.54368E-005	0.00000E+000	1.39000E-001	-9.15939E-004	10	..........a	-327.74
	2646	26.47	1.44909E-001	2.55621E-005	0.00000E+000	1.46000E-001	-8.52606E-004	10	..........a	-327.74
	2653	26.54	1.51941E-001	2.55872E-005	0.00000E+000	1.53000E-001	-8.82606E-004	10	..........a	-327.74
	2660	26.61	1.58929E-001	2.56624E-005	0.00000E+000	1.60000E-001	-9.04272E-004	10	..........a	-327.74
	2667	26.68	1.65949E-001	2.56540E-005	0.00000E+000	1.67000E-001	-8.69272E-004	10	..........a	-327.74
	2674	26.75	1.72829E-001	2.62556E-005	0.00000E+000	1.74000E-001	-9.49272E-004	10	..........a	-327.74
	2681	26.82	1.79891E-001	2.59966E-005	0.00000E+000	1.81000E-001	-8.34272E-004	10	..........a	-327.74
	2688	26.89	1.86914E-001	2.61135E-005	0.00000E+000	1.88000E-001	-8.10939E-004	10	..........a	-327.74
	2695	26.96	1.93902E-001	2.57793E-005	0.00000E+000	1.95000E-001	-8.85939E-004	10	..........a	-327.74
	2702	27.03	2.00933E-001	2.57125E-005	0.00000E+000	2.02000E-001	-8.39272E-004	10	..........a	-327.74
	2709	27.1	2.07849E-001	2.59130E-005	0.00000E+000	2.09000E-001	-8.72606E-004	10	..........a	-327.74
	2716	27.17	2.14876E-001	2.55705E-005	0.00000E+000	2.16000E-001	-8.57606E-004	10	..........a	-327.74
	2723	27.24	2.21920E-001	2.50274E-005	0.00000E+000	2.23000E-001	-8.07606E-004	10	..........a	-327.74
	2730	27.31	2.28881E-001	2.46264E-005	0.00000E+000	2.30000E-001	-7.80939E-004	10	..........a	-327.74
	2737	27.38	2.35878E-001	2.46013E-005	0.00000E+000	2.37000E-001	-8.72606E-004	10	..........a	-327.74
	2744	27.45	2.42874E-001	2.45929E-005	0.00000E+000	2.44000E-001	-9.32606E-004	10	..........a	-327.74
	2751	27.52	2.49816E-001	2.43423E-005	0.00000E+000	2.51000E-001	-9.45939E-004	10	..........a	-327.74
	2758	27.59	2.56881E-001	2.38410E-005	0.00000E+000	2.58000E-001	-9.37606E-004	10	..........a	-327.74
	2765	27.66	2.63833E-001	2.38911E-005	0.00000E+000	2.65000E-001	-9.15939E-004	10	..........a	-327.74
	2772	27.73	2.70809E-001	2.27131E-005	0.00000E+000	2.72000E-001	-8.12605E-004	10	..........a	-327.74
	2779	27.8	2.77844E-001	2.33230E-005	0.00000E+000	2.79000E-001	-9.87605E-004	10	..........a	-327.74
	2786	27.87	2.84819E-001	2.27465E-005	0.00000E+000	2.86000E-001	-9.02606E-004	10	..........a	-327.74
	2793	27.94	2.91866E-001	2.24207E-005	0.00000E+000	2.93000E-001	-8.79272E-004	10	..........a	-327.74
	2800	28.01	2.98819E-001	2.19778E-005	0.00000E+000	3.00000E-001	-8.40939E-004	10	..........a	-327.74
	2807	28.08	3.05846E-001	2.16854E-005	0.00000E+000	3.07000E-001	-8.65939E-004	10	..........a	-327.74
	2814	28.15	3.12860E-001	2.14515E-005	0.00000E+000	3.14000E-001	-8.34272E-004	10	..........a	-327.74
	2821	28.22	3.19842E-001	2.12175E-005	0.00000E+000	3.21000E-001	-8.99272E-004	10	..........a	-327.74
	2828	28.29	3.26812E-001	2.10170E-005	0.00000E+000	3.28000E-001	-8.57606E-004	10	..........a	-327.74
	2835	28.36	3.33905E-001	2.06828E-005	0.00000E+000	3.35000E-001	-7.87605E-004	10	..........a	-327.74
	2842	28.43	3.40826E-001	2.09752E-005	0.00000E+000	3.42000E-001	-8.47606E-004	10	..........a	-327.74
	2849	28.5	3.47845E-001	2.05074E-005	0.00000E+000	3.49000E-001	-8.24272E-004	10	..........a	-327.74
	2856	28.57	3.54820E-001	2.07580E-005	0.00000E+000	3.56000E-001	-9.02606E-004	10	..........a	-327.74
	2863	28.64	3.61819E-001	2.01230E-005	0.00000E+000	3.63000E-001	-8.34272E-004	10	..........a	-327.74
	2870	28.71	3.68809E-001	2.02734E-005	0.00000E+000	3.70000E-001	-9.00939E-004	10	..........a	-327.74
	2877	28.78	3.75791E-001	2.01147E-005	0.00000E+000	3.77000E-001	-8.40939E-004	10	..........a	-327.74
	2884	28.85	3.82821E-001	1.97136E-005	0.00000E+000	3.84000E-001	-8.14272E-004	10	..........a	-327.74
	2891	28.92	3.89824E-001	1.97136E-005	0.00000E+000	3.91000E-001	-8.74272E-004	10	..........a	-327.74
	2898	28.99	3.96815E-001	1.91372E-005	0.00000E+000	3.98000E-001	-8.60939E-004	10	..........a	-327.74
	2905	29.06	4.03814E-001	1.92875E-005	0.00000E+000	4.05000E-001	-8.60939E-004	10	..........a	-327.74
	2912	29.13	4.10832E-001	1.90369E-005	0.00000E+000	4.12000E-001	-8.35939E-004	10	..........a	-327.74
	2919	29.2	4.17790E-001	1.88030E-005	0.00000E+000	4.19000E-001	-9.32606E-004	10	..........a	-327.74
	2926	29.27	4.24774E-001	1.86442E-005	0.00000E+000	4.26000E-001	-8.82606E-004	10	..........a	-327.74
	2933	29.34	4.31805E-001	1.85356E-005	0.00000E+000	4.33000E-001	-8.99272E-004	10	..........a	-327.74
	2940	29.41	4.38787E-001	1.82432E-005	0.00000E+000	4.40000E-001	-8.55939E-004	10	..........a	-327.74
	2947	29.48	4.45821E-001	1.79591E-005	0.00000E+000	4.47000E-001	-9.09272E-004	10	..........a	-327.74
	2954	29.55	4.52782E-001	1.80009E-005	0.00000E+000	4.54000E-001	-8.64272E-004	10	..........a	-327.74
	2961	29.62	4.59821E-001	1.77753E-005	0.00000E+000	4.61000E-001	-8.64272E-004	10	..........a	-327.74
	2968	29.69	4.66789E-001	1.76583E-005	0.00000E+000	4.68000E-001	-8.95939E-004	10	..........a	-327.74
	2975	29.76	4.73794E-001	1.73993E-005	0.00000E+000	4.75000E-001	-9.12605E-004	10	..........a	-327.74
	2982	29.83	4.80825E-001	1.71236E-005	0.00000E+000	4.82000E-001	-8.39272E-004	10	..........a	-327.74
	2989	29.9	4.87770E-001	1.73408E-005	0.00000E+000	4.89000E-001	-8.65939E-004	10	..........a	-327.74
	2996	29.97	4.94793E-001	1.70401E-005	0.00000E+000	4.96000E-001	-8.29272E-004	10	..........a	-327.74
	3000	30.01	4.98824E-001	1.65638E-005	0.00000E+000	5.00000E-001	-8.05939E-004	10	..........a	-327.74
CURVE2	TABLE
	Pt	T	Vf	Im	Vu	Sig	Ach	IERange	Over	Temp
	#	s	V vs. Ref.	A	V	V	V	#	bits	deg C
	3001	30.02	4.98800E-001	1.66390E-005	0.00000E+000	5.00000E-001	-9.37606E-004	10	..........a	-327.74