File: data/02-SI/Figures_S9_S11_RDE/15btmapaq-rde/1mkcl-15btmapaq-nitrogen-800mvpers.DTA
EXPLAIN
TAG	CV
TITLE	LABEL	Cyclic Voltammetry	Test &Identifier
DATE	LABEL	1/31/2023	Date
TIME	LABEL	18:19:51	Time
NOTES	NOTES	1	&Notes...

PSTAT	PSTAT	REF3000-21108	Potentiostat
VINIT	POTEN	5.00000E-001	F	Initial &E (V)
VLIMIT1	POTEN	-1.00000E+000	F	Scan Limit &1 (V)
VLIMIT2	POTEN	5.00000E-001	F	Scan Limit &2 (V)
VFINAL	POTEN	5.00000E-001	F	Final &E (V)
SCANRATE	QUANT	7.99998E+002	&Scan Rate (mV/s)
STEPSIZE	QUANT	1.00000E+000	St&ep Size (mV)
CYCLES	IQUANT	1	C&ycles (#)
IMODE	SELECTOR	1	I/E Range &Mode
IRANGE	QUANT	1.00000E+001	&Max Current (mA)
AREA	QUANT	1.00000E+000	Electrode &Area (cm^2)
ELECTRODETYPE	SELECTOR	0	Electrode Type
STRIPPING	TOGGLE	F	Used for Stripping
POLARITY	TOGGLE	F	Signal Polarity
CONDIT	TWOPARAM	F	1.50000E+001	0.00000E+000	Conditionin&g	Time(s)	E(V)
DELAY	TWOPARAM	F	5.00000E+000	0.00000E+000	Init. De&lay	Time(s)	Stab.(mV/s)
EQDELAY	QUANT	0.00000E+000	Equil. &Time (s)
IRCOMP	SELECTOR	0	IRCom&p
PFCOR	QUANT	5.00000E+001	PF Corr. (ohm)
SAMPLINGMODE	SELECTOR	1	Sampling &Mode
EOC	QUANT	0	Open Circuit (V)
PSTATMODEL	IQUANT	5	Pstat Model
PSTATSECTION	LABEL	REF3000-21108	Pstat Section
PSTATSERIALNO	LABEL	21108	Pstat Serial Number
CTRLMODE	IQUANT	1	Control Mode
ELECTROMETER	IQUANT	0	RE=0 or CS=1
IESTAB	IQUANT	2	I/E Stability
CASPEED	IQUANT	4	Control Amp Speed
CONVENTION	IQUANT	1	Current Convention
ICHRANGE	IQUANT	2	Ich Range
ICHRANGEMODE	TOGGLE	F	Ich Auto Range
ICHOFFSETENABLE	TOGGLE	F	Ich Offset Enable
ICHOFFSET	QUANT	0	Ich Offset (V)
ICHFILTER	IQUANT	1	Ich Filter
VCHRANGE	IQUANT	2	Vch Range
VCHRANGEMODE	TOGGLE	F	Vch Auto Range
VCHOFFSETENABLE	TOGGLE	F	Vch Offset Enable
VCHOFFSET	QUANT	0	Vch Offset (V)
VCHFILTER	IQUANT	1	Vch Filter
ACHRANGE	IQUANT	2	Ach Range
ACHOFFSETENABLE	TOGGLE	F	Ach Offset Enable
ACHOFFSET	QUANT	0	Ach Offset (V)
ACHFILTER	IQUANT	0	Ach Filter
IERANGELOWERLIMIT	IQUANT	2	I/E Range Lower Limit
IERANGEMODE	TOGGLE	F	I/E AutoRange
IERANGE	IQUANT	10	I/E Range
POSFEEDENABLE	TOGGLE	F	Positive Feedback IR Comp
POSFEEDRESISTANCE	QUANT	0	Positive Feedback Resistance (ohm)
ACHSELECT	IQUANT	0	Ach Select
SENSECABLEID	IQUANT	14	Sense Cable ID
PWRCABLEID	IQUANT	7	Power Cable ID
DCCALDATE	LABEL	11/9/2022	DC Calibration Date
ACCALDATE	LABEL	11/9/2022	AC Calibration Date
THERMOSELECT	IQUANT	1	Thermo Select
FRAMEWORKVERSION	LABEL	7.8.2	Framework Version
INSTRUMENTVERSION	LABEL	4.40	Instrument Version
COMPLIANCEVOLTAGE	IQUANT	0	Compliance Voltage
CURVE1	TABLE
	Pt	T	Vf	Im	Vu	Sig	Ach	IERange	Over	Temp
	#	s	V vs. Ref.	A	V	V	V	#	bits	deg C
	0	0.00125	4.98738E-001	5.35202E-005	0.00000E+000	5.00000E-001	-9.04272E-004	10	..........a	-327.74
	7	0.01	4.91824E-001	4.73709E-005	0.00000E+000	4.93000E-001	-9.54272E-004	10	..........a	-327.74
	14	0.01875	4.84791E-001	4.21574E-005	0.00000E+000	4.86000E-001	-9.16772E-004	10	..........a	-327.74
	21	0.0275	4.77851E-001	3.86149E-005	0.00000E+000	4.79000E-001	-9.79272E-004	10	..........a	-327.74
	28	0.03625	4.70811E-001	3.68103E-005	0.00000E+000	4.72000E-001	-9.04272E-004	10	..........a	-327.74
	35	0.045	4.63778E-001	3.36688E-005	0.00000E+000	4.65000E-001	-9.16772E-004	10	..........a	-327.74
	42	0.05375	4.56811E-001	3.24657E-005	0.00000E+000	4.58000E-001	-9.41772E-004	10	..........a	-327.74
	49	0.0625	4.49791E-001	2.86558E-005	0.00000E+000	4.51000E-001	-9.54272E-004	10	..........a	-327.74
	56	0.07125	4.42778E-001	2.73859E-005	0.00000E+000	4.44000E-001	-9.04272E-004	10	..........a	-327.74
	63	0.08	4.35844E-001	2.72522E-005	0.00000E+000	4.37000E-001	-9.16772E-004	10	..........a	-327.74
	70	0.08875	4.28798E-001	2.41107E-005	0.00000E+000	4.30000E-001	-1.01677E-003	10	..........a	-327.74
	77	0.0975	4.21764E-001	2.47791E-005	0.00000E+000	4.23000E-001	-1.01677E-003	10	..........a	-327.74
	84	0.10625	4.14864E-001	2.19050E-005	0.00000E+000	4.16000E-001	-9.91772E-004	10	..........a	-327.74
	91	0.115	4.07838E-001	2.04346E-005	0.00000E+000	4.09000E-001	-1.01677E-003	10	..........a	-327.74
	98	0.12375	4.00844E-001	2.10361E-005	0.00000E+000	4.02000E-001	-9.54272E-004	10	..........a	-327.74
	105	0.1325	3.93731E-001	2.00335E-005	0.00000E+000	3.95000E-001	-9.04272E-004	10	..........a	-327.74
	112	0.14125	3.86844E-001	1.92983E-005	0.00000E+000	3.88000E-001	-9.04272E-004	10	..........a	-327.74
	119	0.15	3.79938E-001	1.86299E-005	0.00000E+000	3.81000E-001	-9.04272E-004	10	..........a	-327.74
	126	0.15875	3.72811E-001	1.79615E-005	0.00000E+000	3.74000E-001	-9.54272E-004	10	..........a	-327.74
	133	0.1675	3.65751E-001	1.70926E-005	0.00000E+000	3.67000E-001	-9.79272E-004	10	..........a	-327.74
	140	0.17625	3.58978E-001	1.54884E-005	0.00000E+000	3.60000E-001	-9.79272E-004	10	..........a	-327.74
	147	0.185	3.51891E-001	1.50874E-005	0.00000E+000	3.53000E-001	-9.41772E-004	10	..........a	-327.74
	154	0.19375	3.44784E-001	1.42185E-005	0.00000E+000	3.46000E-001	-9.41772E-004	10	..........a	-327.74
	161	0.2025	3.37704E-001	1.37506E-005	0.00000E+000	3.39000E-001	-9.16772E-004	10	..........a	-327.74
	168	0.21125	3.30911E-001	1.36838E-005	0.00000E+000	3.32000E-001	-9.91772E-004	10	..........a	-327.74
	175	0.22	3.23971E-001	1.35501E-005	0.00000E+000	3.25000E-001	-9.79272E-004	10	..........a	-327.74
	182	0.22875	3.16758E-001	1.25475E-005	0.00000E+000	3.18000E-001	-9.91772E-004	10	..........a	-327.74
	189	0.2375	3.09824E-001	1.16117E-005	0.00000E+000	3.11000E-001	-9.91772E-004	10	..........a	-327.74
	196	0.24625	3.02918E-001	1.20128E-005	0.00000E+000	3.04000E-001	-9.41772E-004	10	..........a	-327.74
	203	0.255	2.95964E-001	1.15449E-005	0.00000E+000	2.97000E-001	-9.66772E-004	10	..........a	-327.74
	210	0.26375	2.88778E-001	1.11439E-005	0.00000E+000	2.90000E-001	-9.79272E-004	10	..........a	-327.74
	217	0.2725	2.81804E-001	1.10102E-005	0.00000E+000	2.83000E-001	-9.29272E-004	10	..........a	-327.74
	224	0.28125	2.74884E-001	9.67339E-006	0.00000E+000	2.76000E-001	-8.91772E-004	10	..........a	-327.74
	231	0.29	2.67818E-001	9.74023E-006	0.00000E+000	2.69000E-001	-9.66772E-004	10	..........a	-327.74
	238	0.29875	2.60824E-001	1.03418E-005	0.00000E+000	2.62000E-001	-9.29272E-004	10	..........a	-327.74
	245	0.3075	2.53938E-001	8.06924E-006	0.00000E+000	2.55000E-001	-9.41772E-004	10	..........a	-327.74
	252	0.31625	2.46851E-001	8.67080E-006	0.00000E+000	2.48000E-001	-9.54272E-004	10	..........a	-327.74
	259	0.325	2.39784E-001	8.06924E-006	0.00000E+000	2.41000E-001	-8.29272E-004	10	..........a	-327.74
	266	0.33375	2.32858E-001	7.93557E-006	0.00000E+000	2.34000E-001	-1.02927E-003	10	..........a	-327.74
	273	0.3425	2.25931E-001	6.99981E-006	0.00000E+000	2.27000E-001	-9.91772E-004	10	..........a	-327.74
	280	0.35125	2.19024E-001	6.13090E-006	0.00000E+000	2.20000E-001	-9.66772E-004	10	..........a	-327.74
	287	0.36	2.11864E-001	6.59877E-006	0.00000E+000	2.13000E-001	-9.54272E-004	10	..........a	-327.74
	294	0.36875	2.04811E-001	5.52934E-006	0.00000E+000	2.06000E-001	-9.16772E-004	10	..........a	-327.74
	301	0.3775	1.98031E-001	5.12830E-006	0.00000E+000	1.99000E-001	-9.66772E-004	10	..........a	-327.74
	308	0.38625	1.90891E-001	4.05887E-006	0.00000E+000	1.92000E-001	-8.91772E-004	10	..........a	-327.74
	315	0.395	1.83918E-001	3.12311E-006	0.00000E+000	1.85000E-001	-9.91772E-004	10	..........a	-327.74
	322	0.40375	1.76911E-001	4.32623E-006	0.00000E+000	1.78000E-001	-9.66772E-004	10	..........a	-327.74
	329	0.4125	1.69884E-001	3.25679E-006	0.00000E+000	1.71000E-001	-9.66772E-004	10	..........a	-327.74
	336	0.42125	1.62891E-001	3.52415E-006	0.00000E+000	1.64000E-001	-9.91772E-004	10	..........a	-327.74
	343	0.43	1.55904E-001	1.78632E-006	0.00000E+000	1.57000E-001	-9.79272E-004	10	..........a	-327.74
	350	0.43875	1.48851E-001	3.12311E-006	0.00000E+000	1.50000E-001	-9.41772E-004	10	..........a	-327.74
	357	0.4475	1.42104E-001	5.16369E-007	0.00000E+000	1.43000E-001	-9.41772E-004	10	..........a	-327.74
	364	0.45625	1.34944E-001	2.05368E-006	0.00000E+000	1.36000E-001	-1.00427E-003	10	..........a	-327.74
	371	0.465	1.27971E-001	1.58580E-006	0.00000E+000	1.29000E-001	-9.29272E-004	10	..........a	-327.74
	378	0.47375	1.21031E-001	1.05109E-006	0.00000E+000	1.22000E-001	-9.54272E-004	10	..........a	-327.74
	385	0.4825	1.13851E-001	1.82171E-007	0.00000E+000	1.15000E-001	-9.41772E-004	10	..........a	-327.74
	392	0.49125	1.06958E-001	3.15850E-007	0.00000E+000	1.08000E-001	-9.04272E-004	10	..........a	-327.74
	399	0.5	9.99577E-002	4.84920E-008	0.00000E+000	1.01000E-001	-9.41772E-004	10	..........a	-327.74
	406	0.50875	9.28910E-002	6.50048E-007	0.00000E+000	9.40000E-002	-8.91772E-004	10	..........a	-327.74
	413	0.5175	8.58910E-002	-2.02354E-006	0.00000E+000	8.70000E-002	-9.66772E-004	10	..........a	-327.74
	420	0.52625	7.89777E-002	-1.82302E-006	0.00000E+000	8.00000E-002	-1.00427E-003	10	..........a	-327.74
	427	0.535	7.19777E-002	-2.55825E-006	0.00000E+000	7.30000E-002	-9.41772E-004	10	..........a	-327.74
	434	0.54375	6.50377E-002	-1.55566E-006	0.00000E+000	6.60000E-002	-9.16772E-004	10	..........a	-327.74
	441	0.5525	5.80777E-002	-8.20423E-007	0.00000E+000	5.90000E-002	-9.29272E-004	10	..........a	-327.74
	448	0.56125	5.10643E-002	-2.62509E-006	0.00000E+000	5.20000E-002	-9.41772E-004	10	..........a	-327.74
	455	0.57	4.40110E-002	-1.28830E-006	0.00000E+000	4.50000E-002	-9.54272E-004	10	..........a	-327.74
	462	0.57875	3.68643E-002	-1.82302E-006	0.00000E+000	3.80000E-002	-9.54272E-004	10	..........a	-327.74
	469	0.5875	3.00243E-002	-8.51872E-008	0.00000E+000	3.10000E-002	-9.66772E-004	10	..........a	-327.74
	476	0.59625	2.30310E-002	-3.62769E-006	0.00000E+000	2.40000E-002	-9.29272E-004	10	..........a	-327.74
	483	0.605	1.60043E-002	-3.62769E-006	0.00000E+000	1.70000E-002	-9.41772E-004	10	..........a	-327.74
	490	0.61375	8.91767E-003	-2.62509E-006	0.00000E+000	9.99999E-003	-9.16772E-004	10	..........a	-327.74
	497	0.6225	2.03100E-003	-3.96188E-006	0.00000E+000	2.99999E-003	-9.66772E-004	10	..........a	-327.74
	504	0.63125	-4.94900E-003	-2.09038E-006	0.00000E+000	-4.00001E-003	-8.54272E-004	10	..........a	-327.74
	511	0.64	-1.19957E-002	-4.49660E-006	0.00000E+000	-1.10000E-002	-9.29272E-004	10	..........a	-327.74
	518	0.64875	-1.90957E-002	-2.75877E-006	0.00000E+000	-1.80000E-002	-9.66772E-004	10	..........a	-327.74
	525	0.6575	-2.59890E-002	-2.35773E-006	0.00000E+000	-2.50000E-002	-1.04177E-003	10	..........a	-327.74
	532	0.66625	-3.30223E-002	-4.36292E-006	0.00000E+000	-3.20000E-002	-8.79272E-004	10	..........a	-327.74
	539	0.675	-4.00490E-002	-2.69193E-006	0.00000E+000	-3.90000E-002	-8.91772E-004	10	..........a	-327.74
	546	0.68375	-4.71290E-002	-4.36292E-006	0.00000E+000	-4.60000E-002	-8.66772E-004	10	..........a	-327.74
	553	0.6925	-5.39690E-002	-3.96188E-006	0.00000E+000	-5.30000E-002	-9.29272E-004	10	..........a	-327.74
	560	0.70125	-6.08890E-002	-3.89504E-006	0.00000E+000	-6.00000E-002	-9.16772E-004	10	..........a	-327.74
	567	0.71	-6.80890E-002	-4.63028E-006	0.00000E+000	-6.70000E-002	-9.04272E-004	10	..........a	-327.74
	574	0.71875	-7.51157E-002	-3.89504E-006	0.00000E+000	-7.40000E-002	-9.16772E-004	10	..........a	-327.74
	581	0.7275	-8.19623E-002	-4.63028E-006	0.00000E+000	-8.10000E-002	-9.04272E-004	10	..........a	-327.74
	588	0.73625	-8.88690E-002	-4.49660E-006	0.00000E+000	-8.80000E-002	-8.79272E-004	10	..........a	-327.74
	595	0.745	-9.60090E-002	-4.89764E-006	0.00000E+000	-9.50000E-002	-8.54272E-004	10	..........a	-327.74
	602	0.75375	-1.02989E-001	-4.69712E-006	0.00000E+000	-1.02000E-001	-9.04272E-004	10	..........a	-327.74
	609	0.7625	-1.10042E-001	-5.36552E-006	0.00000E+000	-1.09000E-001	-9.29272E-004	10	..........a	-327.74
	616	0.77125	-1.17029E-001	-5.96707E-006	0.00000E+000	-1.16000E-001	-9.41772E-004	10	..........a	-327.74
	623	0.78	-1.24029E-001	-6.03391E-006	0.00000E+000	-1.23000E-001	-9.41772E-004	10	..........a	-327.74
	630	0.78875	-1.31122E-001	-6.03391E-006	0.00000E+000	-1.30000E-001	-9.29272E-004	10	..........a	-327.74
	637	0.7975	-1.37882E-001	-6.76915E-006	0.00000E+000	-1.37000E-001	-9.41772E-004	10	..........a	-327.74
	644	0.80625	-1.45022E-001	-5.03132E-006	0.00000E+000	-1.44000E-001	-9.41772E-004	10	..........a	-327.74
	651	0.815	-1.51996E-001	-6.96967E-006	0.00000E+000	-1.51000E-001	-9.41772E-004	10	..........a	-327.74
	658	0.82375	-1.58776E-001	-7.10335E-006	0.00000E+000	-1.58000E-001	-8.91772E-004	10	..........a	-327.74
	665	0.8325	-1.65769E-001	-6.56863E-006	0.00000E+000	-1.65000E-001	-9.04272E-004	10	..........a	-327.74
	672	0.84125	-1.72976E-001	-7.63806E-006	0.00000E+000	-1.72000E-001	-9.54272E-004	10	..........a	-327.74
	679	0.85	-1.80022E-001	-6.63547E-006	0.00000E+000	-1.79000E-001	-9.54272E-004	10	..........a	-327.74
	686	0.85875	-1.87049E-001	-8.30646E-006	0.00000E+000	-1.86000E-001	-9.16772E-004	10	..........a	-327.74
	693	0.8675	-1.93982E-001	-8.50698E-006	0.00000E+000	-1.93000E-001	-9.16772E-004	10	..........a	-327.74
	700	0.87625	-2.00942E-001	-8.30646E-006	0.00000E+000	-2.00000E-001	-9.29272E-004	10	..........a	-327.74
	707	0.885	-2.08002E-001	-1.06458E-005	0.00000E+000	-2.07000E-001	-9.16772E-004	10	..........a	-327.74
	714	0.89375	-2.14869E-001	-9.17537E-006	0.00000E+000	-2.14000E-001	-9.16772E-004	10	..........a	-327.74
	721	0.9025	-2.21956E-001	-9.57641E-006	0.00000E+000	-2.21000E-001	-8.66772E-004	10	..........a	-327.74
	728	0.91125	-2.28949E-001	-9.84377E-006	0.00000E+000	-2.28000E-001	-9.54272E-004	10	..........a	-327.74
	735	0.92	-2.35949E-001	-1.09800E-005	0.00000E+000	-2.35000E-001	-8.41772E-004	10	..........a	-327.74
	742	0.92875	-2.42729E-001	-1.07127E-005	0.00000E+000	-2.42000E-001	-9.16772E-004	10	..........a	-327.74
	749	0.9375	-2.50002E-001	-1.15148E-005	0.00000E+000	-2.49000E-001	-9.04272E-004	10	..........a	-327.74
	756	0.94625	-2.56909E-001	-1.25174E-005	0.00000E+000	-2.56000E-001	-8.79272E-004	10	..........a	-327.74
	763	0.955	-2.64036E-001	-1.28516E-005	0.00000E+000	-2.63000E-001	-9.16772E-004	10	..........a	-327.74
	770	0.96375	-2.71016E-001	-1.33863E-005	0.00000E+000	-2.70000E-001	-9.41772E-004	10	..........a	-327.74
	777	0.9725	-2.77876E-001	-1.45225E-005	0.00000E+000	-2.77000E-001	-8.91772E-004	10	..........a	-327.74
	784	0.98125	-2.84862E-001	-1.37205E-005	0.00000E+000	-2.84000E-001	-8.66772E-004	10	..........a	-327.74
	791	0.99	-2.91829E-001	-1.47899E-005	0.00000E+000	-2.91000E-001	-9.29272E-004	10	..........a	-327.74
	798	0.99875	-2.98949E-001	-1.45225E-005	0.00000E+000	-2.98000E-001	-9.54272E-004	10	..........a	-327.74
	805	1.0075	-3.05889E-001	-1.61935E-005	0.00000E+000	-3.05000E-001	-8.91772E-004	10	..........a	-327.74
	812	1.01625	-3.12882E-001	-1.69956E-005	0.00000E+000	-3.12000E-001	-1.01677E-003	10	..........a	-327.74
	819	1.025	-3.19969E-001	-1.67951E-005	0.00000E+000	-3.19000E-001	-9.41772E-004	10	..........a	-327.74
	826	1.03375	-3.26969E-001	-1.65277E-005	0.00000E+000	-3.26000E-001	-8.79272E-004	10	..........a	-327.74
	833	1.0425	-3.33829E-001	-1.77977E-005	0.00000E+000	-3.33000E-001	-9.29272E-004	10	..........a	-327.74
	840	1.05125	-3.40876E-001	-1.90008E-005	0.00000E+000	-3.40000E-001	-8.29272E-004	10	..........a	-327.74
	847	1.06	-3.47962E-001	-1.82656E-005	0.00000E+000	-3.47000E-001	-9.04272E-004	10	..........a	-327.74
	854	1.06875	-3.54962E-001	-1.97360E-005	0.00000E+000	-3.54000E-001	-9.04272E-004	10	..........a	-327.74
	861	1.0775	-3.61816E-001	-2.04713E-005	0.00000E+000	-3.61000E-001	-9.41772E-004	10	..........a	-327.74
	868	1.08625	-3.68836E-001	-2.11397E-005	0.00000E+000	-3.68000E-001	-8.91772E-004	10	..........a	-327.74
	875	1.095	-3.75976E-001	-2.27438E-005	0.00000E+000	-3.75000E-001	-8.91772E-004	10	..........a	-327.74
	882	1.10375	-3.82856E-001	-2.52837E-005	0.00000E+000	-3.82000E-001	-9.29272E-004	10	..........a	-327.74
	889	1.1125	-3.89762E-001	-2.72221E-005	0.00000E+000	-3.89000E-001	-9.29272E-004	10	..........a	-327.74
	896	1.12125	-3.96936E-001	-3.08314E-005	0.00000E+000	-3.96000E-001	-8.79272E-004	10	..........a	-327.74
	903	1.13	-4.03956E-001	-3.56439E-005	0.00000E+000	-4.03000E-001	-9.79272E-004	10	..........a	-327.74
	910	1.13875	-4.10882E-001	-4.09910E-005	0.00000E+000	-4.10000E-001	-8.91772E-004	10	..........a	-327.74
	917	1.1475	-4.17842E-001	-4.74745E-005	0.00000E+000	-4.17000E-001	-9.66772E-004	10	..........a	-327.74
	924	1.15625	-4.24996E-001	-5.52947E-005	0.00000E+000	-4.24000E-001	-9.04272E-004	10	..........a	-327.74
	931	1.165	-4.31996E-001	-6.53875E-005	0.00000E+000	-4.31000E-001	-9.29272E-004	10	..........a	-327.74
	938	1.17375	-4.38796E-001	-7.47450E-005	0.00000E+000	-4.38000E-001	-9.54272E-004	10	..........a	-327.74
	945	1.1825	-4.45756E-001	-8.46373E-005	0.00000E+000	-4.45000E-001	-9.41772E-004	10	..........a	-327.74
	952	1.19125	-4.52916E-001	-9.51979E-005	0.00000E+000	-4.52000E-001	-9.29272E-004	10	..........a	-327.74
	959	1.2	-4.59929E-001	-1.06694E-004	0.00000E+000	-4.59000E-001	-9.79272E-004	10	..........a	-327.74
	966	1.20875	-4.66922E-001	-1.14849E-004	0.00000E+000	-4.66000E-001	-9.41772E-004	10	..........a	-327.74
	973	1.2175	-4.73889E-001	-1.25810E-004	0.00000E+000	-4.73000E-001	-9.41772E-004	10	..........a	-327.74
	980	1.22625	-4.80876E-001	-1.35502E-004	0.00000E+000	-4.80000E-001	-9.04272E-004	10	..........a	-327.74
	987	1.235	-4.87936E-001	-1.45862E-004	0.00000E+000	-4.87000E-001	-9.04272E-004	10	..........a	-327.74
	994	1.24375	-4.94762E-001	-1.56824E-004	0.00000E+000	-4.94000E-001	-9.16772E-004	10	..........a	-327.74
	1001	1.2525	-5.01902E-001	-1.68788E-004	0.00000E+000	-5.01000E-001	-8.79272E-004	10	..........a	-327.74
	1008	1.26125	-5.08909E-001	-1.85164E-004	0.00000E+000	-5.08000E-001	-9.29272E-004	10	..........a	-327.74
	1015	1.27	-5.15856E-001	-2.02342E-004	0.00000E+000	-5.15000E-001	-8.66772E-004	10	..........a	-327.74
	1022	1.27875	-5.22729E-001	-2.21391E-004	0.00000E+000	-5.22000E-001	-8.91772E-004	10	..........a	-327.74
	1029	1.2875	-5.29909E-001	-2.46523E-004	0.00000E+000	-5.29000E-001	-9.54272E-004	10	..........a	-327.74
	1036	1.29625	-5.36842E-001	-2.72991E-004	0.00000E+000	-5.36000E-001	-8.54272E-004	10	..........a	-327.74
	1043	1.305	-5.43949E-001	-3.01398E-004	0.00000E+000	-5.43000E-001	-9.29272E-004	10	..........a	-327.74
	1050	1.31375	-5.50889E-001	-3.29337E-004	0.00000E+000	-5.50000E-001	-9.16772E-004	10	..........a	-327.74
	1057	1.3225	-5.57842E-001	-3.57878E-004	0.00000E+000	-5.57000E-001	-9.41772E-004	10	..........a	-327.74
	1064	1.33125	-5.64802E-001	-3.82876E-004	0.00000E+000	-5.64000E-001	-9.16772E-004	10	..........a	-327.74
	1071	1.34	-5.71869E-001	-4.03663E-004	0.00000E+000	-5.71000E-001	-8.54272E-004	10	..........a	-327.74
	1078	1.34875	-5.78842E-001	-4.20640E-004	0.00000E+000	-5.78000E-001	-9.04272E-004	10	..........a	-327.74
	1085	1.3575	-5.85802E-001	-4.34476E-004	0.00000E+000	-5.85000E-001	-8.91772E-004	10	..........a	-327.74
	1092	1.36625	-5.92782E-001	-4.39957E-004	0.00000E+000	-5.92000E-001	-9.16772E-004	10	..........a	-327.74
	1099	1.375	-5.99962E-001	-4.42029E-004	0.00000E+000	-5.99000E-001	-9.16772E-004	10	..........a	-327.74
	1106	1.38375	-6.06816E-001	-4.41160E-004	0.00000E+000	-6.06000E-001	-8.54272E-004	10	..........a	-327.74
	1113	1.3925	-6.13796E-001	-4.36013E-004	0.00000E+000	-6.13000E-001	-8.91772E-004	10	..........a	-327.74
	1120	1.40125	-6.20829E-001	-4.28126E-004	0.00000E+000	-6.20000E-001	-9.04272E-004	10	..........a	-327.74
	1127	1.41	-6.27849E-001	-4.18835E-004	0.00000E+000	-6.27000E-001	-9.04272E-004	10	..........a	-327.74
	1134	1.41875	-6.34756E-001	-4.07807E-004	0.00000E+000	-6.34000E-001	-9.16772E-004	10	..........a	-327.74
	1141	1.4275	-6.41722E-001	-3.97179E-004	0.00000E+000	-6.41000E-001	-9.16772E-004	10	..........a	-327.74
	1148	1.43625	-6.48809E-001	-3.86084E-004	0.00000E+000	-6.48000E-001	-9.41772E-004	10	..........a	-327.74
	1155	1.445	-6.55876E-001	-3.75657E-004	0.00000E+000	-6.55000E-001	-8.41772E-004	10	..........a	-327.74
	1162	1.45375	-6.62776E-001	-3.66299E-004	0.00000E+000	-6.62000E-001	-8.79272E-004	10	..........a	-327.74
	1169	1.4625	-6.69702E-001	-3.55872E-004	0.00000E+000	-6.69000E-001	-9.29272E-004	10	..........a	-327.74
	1176	1.47125	-6.76789E-001	-3.47250E-004	0.00000E+000	-6.76000E-001	-9.79272E-004	10	..........a	-327.74
	1183	1.48	-6.83822E-001	-3.38628E-004	0.00000E+000	-6.83000E-001	-8.79272E-004	10	..........a	-327.74
	1190	1.48875	-6.90729E-001	-3.31342E-004	0.00000E+000	-6.90000E-001	-9.16772E-004	10	..........a	-327.74
	1197	1.4975	-6.97676E-001	-3.22252E-004	0.00000E+000	-6.97000E-001	-8.91772E-004	10	..........a	-327.74
	1204	1.50625	-7.04869E-001	-3.15167E-004	0.00000E+000	-7.04000E-001	-9.29272E-004	10	..........a	-327.74
	1211	1.515	-7.11849E-001	-3.08951E-004	0.00000E+000	-7.11000E-001	-9.79272E-004	10	..........a	-327.74
	1218	1.52375	-7.18676E-001	-3.03203E-004	0.00000E+000	-7.18000E-001	-9.16772E-004	10	..........a	-327.74
	1225	1.5325	-7.25676E-001	-2.98390E-004	0.00000E+000	-7.25000E-001	-9.04272E-004	10	..........a	-327.74
	1232	1.54125	-7.32822E-001	-2.91907E-004	0.00000E+000	-7.32000E-001	-9.41772E-004	10	..........a	-327.74
	1239	1.55	-7.39776E-001	-2.86560E-004	0.00000E+000	-7.39000E-001	-9.41772E-004	10	..........a	-327.74
	1246	1.55875	-7.46622E-001	-2.83819E-004	0.00000E+000	-7.46000E-001	-8.54272E-004	10	..........a	-327.74
	1253	1.5675	-7.53622E-001	-2.77202E-004	0.00000E+000	-7.53000E-001	-8.16772E-004	10	..........a	-327.74
	1260	1.57625	-7.60836E-001	-2.72724E-004	0.00000E+000	-7.60000E-001	-9.16772E-004	10	..........a	-327.74
	1267	1.585	-7.67856E-001	-2.68981E-004	0.00000E+000	-7.67000E-001	-8.66772E-004	10	..........a	-327.74
	1274	1.59375	-7.74689E-001	-2.65438E-004	0.00000E+000	-7.74000E-001	-8.66772E-004	10	..........a	-327.74
	1281	1.6025	-7.81796E-001	-2.61562E-004	0.00000E+000	-7.81000E-001	-8.79272E-004	10	..........a	-327.74
	1288	1.61125	-7.88796E-001	-2.56482E-004	0.00000E+000	-7.88000E-001	-9.79272E-004	10	..........a	-327.74
	1295	1.62	-7.95642E-001	-2.53207E-004	0.00000E+000	-7.95000E-001	-9.04272E-004	10	..........a	-327.74
	1302	1.62875	-8.02602E-001	-2.51335E-004	0.00000E+000	-8.02000E-001	-8.91772E-004	10	..........a	-327.74
	1309	1.6375	-8.09842E-001	-2.45854E-004	0.00000E+000	-8.09000E-001	-9.54272E-004	10	..........a	-327.74
	1316	1.64625	-8.16782E-001	-2.43782E-004	0.00000E+000	-8.16000E-001	-9.16772E-004	10	..........a	-327.74
	1323	1.655	-8.23656E-001	-2.41443E-004	0.00000E+000	-8.23000E-001	-8.91772E-004	10	..........a	-327.74
	1330	1.66375	-8.30449E-001	-2.38235E-004	0.00000E+000	-8.30000E-001	-8.91772E-004	10	..........a	-327.74
	1337	1.6725	-8.37709E-001	-2.36697E-004	0.00000E+000	-8.37000E-001	-8.79272E-004	10	..........a	-327.74
	1344	1.68125	-8.44762E-001	-2.31684E-004	0.00000E+000	-8.44000E-001	-9.16772E-004	10	..........a	-327.74
	1351	1.69	-8.51709E-001	-2.29880E-004	0.00000E+000	-8.51000E-001	-8.91772E-004	10	..........a	-327.74
	1358	1.69875	-8.58722E-001	-2.27474E-004	0.00000E+000	-8.58000E-001	-8.16772E-004	10	..........a	-327.74
	1365	1.7075	-8.65702E-001	-2.25535E-004	0.00000E+000	-8.65000E-001	-8.79272E-004	10	..........a	-327.74
	1372	1.71625	-8.72716E-001	-2.22862E-004	0.00000E+000	-8.72000E-001	-9.41772E-004	10	..........a	-327.74
	1379	1.725	-8.79642E-001	-2.23329E-004	0.00000E+000	-8.79000E-001	-9.29272E-004	10	..........a	-327.74
	1386	1.73375	-8.86716E-001	-2.19319E-004	0.00000E+000	-8.86000E-001	-9.16772E-004	10	..........a	-327.74
	1393	1.7425	-8.93642E-001	-2.17314E-004	0.00000E+000	-8.93000E-001	-8.41772E-004	10	..........a	-327.74
	1400	1.75125	-9.00742E-001	-2.16378E-004	0.00000E+000	-9.00000E-001	-9.54272E-004	10	..........a	-327.74
	1407	1.76	-9.07522E-001	-2.13103E-004	0.00000E+000	-9.07000E-001	-9.29272E-004	10	..........a	-327.74
	1414	1.76875	-9.14709E-001	-2.11231E-004	0.00000E+000	-9.14000E-001	-9.16772E-004	10	..........a	-327.74
	1421	1.7775	-9.21609E-001	-2.10697E-004	0.00000E+000	-9.21000E-001	-9.04272E-004	10	..........a	-327.74
	1428	1.78625	-9.28602E-001	-2.07488E-004	0.00000E+000	-9.28000E-001	-9.04272E-004	10	..........a	-327.74
	1435	1.795	-9.35709E-001	-2.06820E-004	0.00000E+000	-9.35000E-001	-9.91772E-004	10	..........a	-327.74
	1442	1.80375	-9.42656E-001	-2.06152E-004	0.00000E+000	-9.42000E-001	-8.41772E-004	10	..........a	-327.74
	1449	1.8125	-9.49609E-001	-2.03812E-004	0.00000E+000	-9.49000E-001	-9.29272E-004	10	..........a	-327.74
	1456	1.82125	-9.56722E-001	-2.04080E-004	0.00000E+000	-9.56000E-001	-8.29272E-004	10	..........a	-327.74
	1463	1.83	-9.63662E-001	-2.00938E-004	0.00000E+000	-9.63000E-001	-9.04272E-004	10	..........a	-327.74
	1470	1.83875	-9.70602E-001	-2.00203E-004	0.00000E+000	-9.70000E-001	-9.29272E-004	10	..........a	-327.74
	1477	1.8475	-9.77622E-001	-1.97997E-004	0.00000E+000	-9.77000E-001	-9.29272E-004	10	..........a	-327.74
	1484	1.85625	-9.84502E-001	-1.96995E-004	0.00000E+000	-9.84000E-001	-8.79272E-004	10	..........a	-327.74
	1491	1.865	-9.91636E-001	-1.96393E-004	0.00000E+000	-9.91000E-001	-9.29272E-004	10	..........a	-327.74
	1498	1.87375	-9.98569E-001	-1.95591E-004	0.00000E+000	-9.98000E-001	-9.29272E-004	10	..........a	-327.74
	1505	1.8825	-9.95642E-001	-1.85498E-004	0.00000E+000	-9.95000E-001	-9.16772E-004	10	..........a	-327.74
	1512	1.89125	-9.88769E-001	-1.78747E-004	0.00000E+000	-9.88000E-001	-9.04272E-004	10	..........a	-327.74
	1519	1.9	-9.81622E-001	-1.74136E-004	0.00000E+000	-9.81000E-001	-8.41772E-004	10	..........a	-327.74
	1526	1.90875	-9.74589E-001	-1.71195E-004	0.00000E+000	-9.74000E-001	-8.91772E-004	10	..........a	-327.74
	1533	1.9175	-9.67676E-001	-1.68187E-004	0.00000E+000	-9.67000E-001	-8.41772E-004	10	..........a	-327.74
	1540	1.92625	-9.60649E-001	-1.63575E-004	0.00000E+000	-9.60000E-001	-9.16772E-004	10	..........a	-327.74
	1547	1.935	-9.53616E-001	-1.60701E-004	0.00000E+000	-9.53000E-001	-9.16772E-004	10	..........a	-327.74
	1554	1.94375	-9.46582E-001	-1.59832E-004	0.00000E+000	-9.46000E-001	-8.66772E-004	10	..........a	-327.74
	1561	1.9525	-9.39642E-001	-1.57492E-004	0.00000E+000	-9.39000E-001	-8.41772E-004	10	..........a	-327.74
	1568	1.96125	-9.32776E-001	-1.53549E-004	0.00000E+000	-9.32000E-001	-9.16772E-004	10	..........a	-327.74
	1575	1.97	-9.25636E-001	-1.54351E-004	0.00000E+000	-9.25000E-001	-8.79272E-004	10	..........a	-327.74
	1582	1.97875	-9.18642E-001	-1.52145E-004	0.00000E+000	-9.18000E-001	-9.79272E-004	10	..........a	-327.74
	1589	1.9875	-9.11676E-001	-1.49873E-004	0.00000E+000	-9.11000E-001	-9.29272E-004	10	..........a	-327.74
	1596	1.99625	-9.04562E-001	-1.48202E-004	0.00000E+000	-9.04000E-001	-9.29272E-004	10	..........a	-327.74
	1603	2.005	-8.97609E-001	-1.47199E-004	0.00000E+000	-8.97000E-001	-8.91772E-004	10	..........a	-327.74
	1610	2.01375	-8.90649E-001	-1.44726E-004	0.00000E+000	-8.90000E-001	-9.41772E-004	10	..........a	-327.74
	1617	2.0225	-8.83722E-001	-1.42454E-004	0.00000E+000	-8.83000E-001	-8.54272E-004	10	..........a	-327.74
	1624	2.03125	-8.76689E-001	-1.42788E-004	0.00000E+000	-8.76000E-001	-8.66772E-004	10	..........a	-327.74
	1631	2.04	-8.69636E-001	-1.40783E-004	0.00000E+000	-8.69000E-001	-8.91772E-004	10	..........a	-327.74
	1638	2.04875	-8.62709E-001	-1.41117E-004	0.00000E+000	-8.62000E-001	-9.16772E-004	10	..........a	-327.74
	1645	2.0575	-8.55522E-001	-1.40849E-004	0.00000E+000	-8.55000E-001	-9.41772E-004	10	..........a	-327.74
	1652	2.06625	-8.48736E-001	-1.37641E-004	0.00000E+000	-8.48000E-001	-9.41772E-004	10	..........a	-327.74
	1659	2.075	-8.41682E-001	-1.36505E-004	0.00000E+000	-8.41000E-001	-9.04272E-004	10	..........a	-327.74
	1666	2.08375	-8.34742E-001	-1.34968E-004	0.00000E+000	-8.34000E-001	-9.41772E-004	10	..........a	-327.74
	1673	2.0925	-8.27656E-001	-1.34566E-004	0.00000E+000	-8.27000E-001	-9.41772E-004	10	..........a	-327.74
	1680	2.10125	-8.20762E-001	-1.33631E-004	0.00000E+000	-8.20000E-001	-9.29272E-004	10	..........a	-327.74
	1687	2.11	-8.13762E-001	-1.31692E-004	0.00000E+000	-8.13000E-001	-8.29272E-004	10	..........a	-327.74
	1694	2.11875	-8.06802E-001	-1.31425E-004	0.00000E+000	-8.06000E-001	-9.66772E-004	10	..........a	-327.74
	1701	2.1275	-7.99776E-001	-1.29086E-004	0.00000E+000	-7.99000E-001	-9.04272E-004	10	..........a	-327.74
	1708	2.13625	-7.92822E-001	-1.28818E-004	0.00000E+000	-7.92000E-001	-9.66772E-004	10	..........a	-327.74
	1715	2.145	-7.85789E-001	-1.26412E-004	0.00000E+000	-7.85000E-001	-9.41772E-004	10	..........a	-327.74
	1722	2.15375	-7.78596E-001	-1.26479E-004	0.00000E+000	-7.78000E-001	-9.79272E-004	10	..........a	-327.74
	1729	2.1625	-7.71689E-001	-1.24942E-004	0.00000E+000	-7.71000E-001	-8.79272E-004	10	..........a	-327.74
	1736	2.17125	-7.64782E-001	-1.24541E-004	0.00000E+000	-7.64000E-001	-9.04272E-004	10	..........a	-327.74
	1743	2.18	-7.57822E-001	-1.22335E-004	0.00000E+000	-7.57000E-001	-9.54272E-004	10	..........a	-327.74
	1750	2.18875	-7.50822E-001	-1.21666E-004	0.00000E+000	-7.50000E-001	-9.66772E-004	10	..........a	-327.74
	1757	2.1975	-7.43769E-001	-1.20396E-004	0.00000E+000	-7.43000E-001	-8.91772E-004	10	..........a	-327.74
	1764	2.20625	-7.36822E-001	-1.18391E-004	0.00000E+000	-7.36000E-001	-9.16772E-004	10	..........a	-327.74
	1771	2.215	-7.29896E-001	-1.17723E-004	0.00000E+000	-7.29000E-001	-9.16772E-004	10	..........a	-327.74
	1778	2.22375	-7.22656E-001	-1.16921E-004	0.00000E+000	-7.22000E-001	-9.16772E-004	10	..........a	-327.74
	1785	2.2325	-7.15829E-001	-1.15317E-004	0.00000E+000	-7.15000E-001	-9.66772E-004	10	..........a	-327.74
	1792	2.24125	-7.08789E-001	-1.13913E-004	0.00000E+000	-7.08000E-001	-9.29272E-004	10	..........a	-327.74
	1799	2.25	-7.01696E-001	-1.13445E-004	0.00000E+000	-7.01000E-001	-8.91772E-004	10	..........a	-327.74
	1806	2.25875	-6.94716E-001	-1.10705E-004	0.00000E+000	-6.94000E-001	-9.54272E-004	10	..........a	-327.74
	1813	2.2675	-6.87889E-001	-1.09167E-004	0.00000E+000	-6.87000E-001	-8.54272E-004	10	..........a	-327.74
	1820	2.27625	-6.80842E-001	-1.08365E-004	0.00000E+000	-6.80000E-001	-9.29272E-004	10	..........a	-327.74
	1827	2.285	-6.73796E-001	-1.04221E-004	0.00000E+000	-6.73000E-001	-9.66772E-004	10	..........a	-327.74
	1834	2.29375	-6.66656E-001	-1.02483E-004	0.00000E+000	-6.66000E-001	-8.79272E-004	10	..........a	-327.74
	1841	2.3025	-6.59896E-001	-9.99436E-005	0.00000E+000	-6.59000E-001	-8.79272E-004	10	..........a	-327.74
	1848	2.31125	-6.52849E-001	-9.85399E-005	0.00000E+000	-6.52000E-001	-9.54272E-004	10	..........a	-327.74
	1855	2.32	-6.45702E-001	-9.39948E-005	0.00000E+000	-6.45000E-001	-9.16772E-004	10	..........a	-327.74
	1862	2.32875	-6.38749E-001	-9.24575E-005	0.00000E+000	-6.38000E-001	-9.04272E-004	10	..........a	-327.74
	1869	2.3375	-6.31882E-001	-8.67761E-005	0.00000E+000	-6.31000E-001	-9.16772E-004	10	..........a	-327.74
	1876	2.34625	-6.24762E-001	-8.31668E-005	0.00000E+000	-6.24000E-001	-9.29272E-004	10	..........a	-327.74
	1883	2.355	-6.17782E-001	-7.76191E-005	0.00000E+000	-6.17000E-001	-9.16772E-004	10	..........a	-327.74
	1890	2.36375	-6.10782E-001	-7.10688E-005	0.00000E+000	-6.10000E-001	-9.29272E-004	10	..........a	-327.74
	1897	2.3725	-6.03882E-001	-6.39838E-005	0.00000E+000	-6.03000E-001	-9.66772E-004	10	..........a	-327.74
	1904	2.38125	-5.96822E-001	-5.33564E-005	0.00000E+000	-5.96000E-001	-9.04272E-004	10	..........a	-327.74
	1911	2.39	-5.89796E-001	-4.52688E-005	0.00000E+000	-5.89000E-001	-8.66772E-004	10	..........a	-327.74
	1918	2.39875	-5.82836E-001	-3.49086E-005	0.00000E+000	-5.82000E-001	-9.66772E-004	10	..........a	-327.74
	1925	2.4075	-5.75956E-001	-2.09391E-005	0.00000E+000	-5.75000E-001	-9.41772E-004	10	..........a	-327.74
	1932	2.41625	-5.68809E-001	-9.64325E-006	0.00000E+000	-5.68000E-001	-8.79272E-004	10	..........a	-327.74
	1939	2.425	-5.61782E-001	8.60396E-006	0.00000E+000	-5.61000E-001	-8.66772E-004	10	..........a	-327.74
	1946	2.43375	-5.54856E-001	2.27740E-005	0.00000E+000	-5.54000E-001	-9.79272E-004	10	..........a	-327.74
	1953	2.4425	-5.47782E-001	3.77460E-005	0.00000E+000	-5.47000E-001	-9.91772E-004	10	..........a	-327.74
	1960	2.45125	-5.40809E-001	5.37207E-005	0.00000E+000	-5.40000E-001	-9.41772E-004	10	..........a	-327.74
	1967	2.46	-5.33836E-001	6.67544E-005	0.00000E+000	-5.33000E-001	-9.29272E-004	10	..........a	-327.74
	1974	2.46875	-5.26876E-001	8.37317E-005	0.00000E+000	-5.26000E-001	-9.79272E-004	10	..........a	-327.74
	1981	2.4775	-5.19956E-001	9.89043E-005	0.00000E+000	-5.19000E-001	-9.66772E-004	10	..........a	-327.74
	1988	2.48625	-5.12822E-001	1.13275E-004	0.00000E+000	-5.12000E-001	-9.41772E-004	10	..........a	-327.74
	1995	2.495	-5.05882E-001	1.28180E-004	0.00000E+000	-5.05000E-001	-9.54272E-004	10	..........a	-327.74
	2002	2.50375	-4.98742E-001	1.41949E-004	0.00000E+000	-4.98000E-001	-1.00427E-003	10	..........a	-327.74
	2009	2.5125	-4.91869E-001	1.55050E-004	0.00000E+000	-4.91000E-001	-8.54272E-004	10	..........a	-327.74
	2016	2.52125	-4.84902E-001	1.68484E-004	0.00000E+000	-4.84000E-001	-8.66772E-004	10	..........a	-327.74
	2023	2.53	-4.77902E-001	1.78510E-004	0.00000E+000	-4.77000E-001	-9.79272E-004	10	..........a	-327.74
	2030	2.53875	-4.70869E-001	1.87534E-004	0.00000E+000	-4.70000E-001	-1.07927E-003	10	..........a	-327.74
	2037	2.5475	-4.63942E-001	1.95955E-004	0.00000E+000	-4.63000E-001	-9.91772E-004	10	..........a	-327.74
	2044	2.55625	-4.56836E-001	2.03842E-004	0.00000E+000	-4.56000E-001	-9.54272E-004	10	..........a	-327.74
	2051	2.565	-4.49962E-001	2.06449E-004	0.00000E+000	-4.49000E-001	-9.29272E-004	10	..........a	-327.74
	2058	2.57375	-4.42882E-001	2.10727E-004	0.00000E+000	-4.42000E-001	-9.54272E-004	10	..........a	-327.74
	2065	2.5825	-4.35922E-001	2.11663E-004	0.00000E+000	-4.35000E-001	-9.79272E-004	10	..........a	-327.74
	2072	2.59125	-4.28929E-001	2.09591E-004	0.00000E+000	-4.28000E-001	-1.00427E-003	10	..........a	-327.74
	2079	2.6	-4.21709E-001	2.09123E-004	0.00000E+000	-4.21000E-001	-1.02927E-003	10	..........a	-327.74
	2086	2.60875	-4.14862E-001	2.04711E-004	0.00000E+000	-4.14000E-001	-8.04272E-004	10	..........a	-327.74
	2093	2.6175	-4.07929E-001	2.02773E-004	0.00000E+000	-4.07000E-001	-9.41772E-004	10	..........a	-327.74
	2100	2.62625	-4.00929E-001	1.98763E-004	0.00000E+000	-4.00000E-001	-8.91772E-004	10	..........a	-327.74
	2107	2.635	-3.93789E-001	1.93616E-004	0.00000E+000	-3.93000E-001	-9.04272E-004	10	..........a	-327.74
	2114	2.64375	-3.86782E-001	1.90876E-004	0.00000E+000	-3.86000E-001	-9.54272E-004	10	..........a	-327.74
	2121	2.6525	-3.79969E-001	1.86598E-004	0.00000E+000	-3.79000E-001	-9.29272E-004	10	..........a	-327.74
	2128	2.66125	-3.72982E-001	1.82988E-004	0.00000E+000	-3.72000E-001	-9.41772E-004	10	..........a	-327.74
	2135	2.67	-3.65816E-001	1.78109E-004	0.00000E+000	-3.65000E-001	-1.01677E-003	10	..........a	-327.74
	2142	2.67875	-3.58822E-001	1.75703E-004	0.00000E+000	-3.58000E-001	-9.29272E-004	10	..........a	-327.74
	2149	2.6875	-3.52016E-001	1.71292E-004	0.00000E+000	-3.51000E-001	-9.41772E-004	10	..........a	-327.74
	2156	2.69625	-3.44849E-001	1.68484E-004	0.00000E+000	-3.44000E-001	-1.00427E-003	10	..........a	-327.74
	2163	2.705	-3.37829E-001	1.66680E-004	0.00000E+000	-3.37000E-001	-9.16772E-004	10	..........a	-327.74
	2170	2.71375	-3.30882E-001	1.63939E-004	0.00000E+000	-3.30000E-001	-8.66772E-004	10	..........a	-327.74
	2177	2.7225	-3.23936E-001	1.62937E-004	0.00000E+000	-3.23000E-001	-9.41772E-004	10	..........a	-327.74
	2184	2.73125	-3.16862E-001	1.59060E-004	0.00000E+000	-3.16000E-001	-9.54272E-004	10	..........a	-327.74
	2191	2.74	-3.09816E-001	1.56386E-004	0.00000E+000	-3.09000E-001	-9.66772E-004	10	..........a	-327.74
	2198	2.74875	-3.02956E-001	1.54114E-004	0.00000E+000	-3.02000E-001	-9.79272E-004	10	..........a	-327.74
	2205	2.7575	-2.96016E-001	1.52576E-004	0.00000E+000	-2.95000E-001	-1.01677E-003	10	..........a	-327.74
	2212	2.76625	-2.88949E-001	1.51240E-004	0.00000E+000	-2.88000E-001	-1.01677E-003	10	..........a	-327.74
	2219	2.775	-2.81902E-001	1.48098E-004	0.00000E+000	-2.81000E-001	-1.00427E-003	10	..........a	-327.74
	2226	2.78375	-2.75002E-001	1.47630E-004	0.00000E+000	-2.74000E-001	-8.79272E-004	10	..........a	-327.74
	2233	2.7925	-2.67862E-001	1.46427E-004	0.00000E+000	-2.67000E-001	-9.54272E-004	10	..........a	-327.74
	2240	2.80125	-2.60909E-001	1.43419E-004	0.00000E+000	-2.60000E-001	-1.02927E-003	10	..........a	-327.74
	2247	2.81	-2.53896E-001	1.43353E-004	0.00000E+000	-2.53000E-001	-9.16772E-004	10	..........a	-327.74
	2254	2.81875	-2.46949E-001	1.41548E-004	0.00000E+000	-2.46000E-001	-9.91772E-004	10	..........a	-327.74
	2261	2.8275	-2.39989E-001	1.39075E-004	0.00000E+000	-2.39000E-001	-9.29272E-004	10	..........a	-327.74
	2268	2.83625	-2.32882E-001	1.37270E-004	0.00000E+000	-2.32000E-001	-9.41772E-004	10	..........a	-327.74
	2275	2.845	-2.25942E-001	1.34530E-004	0.00000E+000	-2.25000E-001	-9.54272E-004	10	..........a	-327.74
	2282	2.85375	-2.18989E-001	1.33928E-004	0.00000E+000	-2.18000E-001	-9.16772E-004	10	..........a	-327.74
	2289	2.8625	-2.11996E-001	1.31054E-004	0.00000E+000	-2.11000E-001	-9.54272E-004	10	..........a	-327.74
	2296	2.87125	-2.04916E-001	1.29985E-004	0.00000E+000	-2.04000E-001	-9.29272E-004	10	..........a	-327.74
	2303	2.88	-1.98049E-001	1.27578E-004	0.00000E+000	-1.97000E-001	-9.41772E-004	10	..........a	-327.74
	2310	2.88875	-1.90862E-001	1.26509E-004	0.00000E+000	-1.90000E-001	-9.79272E-004	10	..........a	-327.74
	2317	2.8975	-1.83969E-001	1.23969E-004	0.00000E+000	-1.83000E-001	-9.41772E-004	10	..........a	-327.74
	2324	2.90625	-1.76969E-001	1.22833E-004	0.00000E+000	-1.76000E-001	-9.29272E-004	10	..........a	-327.74
	2331	2.915	-1.70036E-001	1.19959E-004	0.00000E+000	-1.69000E-001	-9.04272E-004	10	..........a	-327.74
	2338	2.92375	-1.63156E-001	1.17820E-004	0.00000E+000	-1.62000E-001	-9.29272E-004	10	..........a	-327.74
	2345	2.9325	-1.56002E-001	1.17018E-004	0.00000E+000	-1.55000E-001	-9.41772E-004	10	..........a	-327.74
	2352	2.94125	-1.49029E-001	1.14745E-004	0.00000E+000	-1.48000E-001	-9.04272E-004	10	..........a	-327.74
	2359	2.95	-1.42042E-001	1.13141E-004	0.00000E+000	-1.41000E-001	-1.01677E-003	10	..........a	-327.74
	2366	2.95875	-1.35002E-001	1.11604E-004	0.00000E+000	-1.34000E-001	-9.54272E-004	10	..........a	-327.74
	2373	2.9675	-1.27989E-001	1.10869E-004	0.00000E+000	-1.27000E-001	-9.29272E-004	10	..........a	-327.74
	2380	2.97625	-1.21009E-001	1.08262E-004	0.00000E+000	-1.20000E-001	-8.66772E-004	10	..........a	-327.74
	2387	2.985	-1.13876E-001	1.06390E-004	0.00000E+000	-1.13000E-001	-9.04272E-004	10	..........a	-327.74
	2394	2.99375	-1.07096E-001	1.05187E-004	0.00000E+000	-1.06000E-001	-8.66772E-004	10	..........a	-327.74
	2401	3.0025	-1.00022E-001	1.03516E-004	0.00000E+000	-9.90000E-002	-1.01677E-003	10	..........a	-327.74
	2408	3.01125	-9.30357E-002	1.02380E-004	0.00000E+000	-9.20000E-002	-1.00427E-003	10	..........a	-327.74
	2415	3.02	-8.60023E-002	1.01110E-004	0.00000E+000	-8.50000E-002	-9.54272E-004	10	..........a	-327.74
	2422	3.02875	-7.89957E-002	9.94390E-005	0.00000E+000	-7.80000E-002	-9.04272E-004	10	..........a	-327.74
	2429	3.0375	-7.20823E-002	9.81690E-005	0.00000E+000	-7.10000E-002	-9.91772E-004	10	..........a	-327.74
	2436	3.04625	-6.50490E-002	9.64980E-005	0.00000E+000	-6.40000E-002	-9.66772E-004	10	..........a	-327.74
	2443	3.055	-5.79690E-002	9.73001E-005	0.00000E+000	-5.70000E-002	-9.16772E-004	10	..........a	-327.74
	2450	3.06375	-5.10890E-002	9.45597E-005	0.00000E+000	-5.00000E-002	-9.41772E-004	10	..........a	-327.74
	2457	3.0725	-4.40423E-002	9.44260E-005	0.00000E+000	-4.30000E-002	-9.16772E-004	10	..........a	-327.74
	2464	3.08125	-3.69090E-002	9.44260E-005	0.00000E+000	-3.60000E-002	-9.41772E-004	10	..........a	-327.74
	2471	3.09	-2.99490E-002	9.24208E-005	0.00000E+000	-2.90000E-002	-8.79272E-004	10	..........a	-327.74
	2478	3.09875	-2.30890E-002	8.98809E-005	0.00000E+000	-2.20000E-002	-9.29272E-004	10	..........a	-327.74
	2485	3.1075	-1.60690E-002	9.00814E-005	0.00000E+000	-1.50000E-002	-9.04272E-004	10	..........a	-327.74
	2492	3.11625	-8.99566E-003	8.93462E-005	0.00000E+000	-8.00000E-003	-9.29272E-004	10	..........a	-327.74
	2499	3.125	-1.99566E-003	8.97472E-005	0.00000E+000	-1.00000E-003	-9.41772E-004	10	..........a	-327.74
	2506	3.13375	4.88434E-003	8.90788E-005	0.00000E+000	5.99998E-003	-1.00427E-003	10	..........a	-327.74
	2513	3.1425	1.19243E-002	8.86110E-005	0.00000E+000	1.30000E-002	-9.66772E-004	10	..........a	-327.74
	2520	3.15125	1.90243E-002	8.88783E-005	0.00000E+000	2.00000E-002	-9.16772E-004	10	..........a	-327.74
	2527	3.16	2.60043E-002	8.69400E-005	0.00000E+000	2.70000E-002	-9.54272E-004	10	..........a	-327.74
	2534	3.16875	3.28843E-002	8.62716E-005	0.00000E+000	3.40000E-002	-9.16772E-004	10	..........a	-327.74
	2541	3.1775	3.99510E-002	8.52690E-005	0.00000E+000	4.10000E-002	-9.91772E-004	10	..........a	-327.74
	2548	3.18625	4.69977E-002	8.56700E-005	0.00000E+000	4.80000E-002	-8.79272E-004	10	..........a	-327.74
	2555	3.195	5.39243E-002	8.46006E-005	0.00000E+000	5.50000E-002	-9.91772E-004	10	..........a	-327.74
	2562	3.20375	6.08577E-002	8.45337E-005	0.00000E+000	6.20000E-002	-9.54272E-004	10	..........a	-327.74
	2569	3.2125	6.79510E-002	8.34643E-005	0.00000E+000	6.90000E-002	-1.00427E-003	10	..........a	-327.74
	2576	3.22125	7.49977E-002	8.29964E-005	0.00000E+000	7.60000E-002	-8.16772E-004	10	..........a	-327.74
	2583	3.23	8.20243E-002	8.31301E-005	0.00000E+000	8.30000E-002	-9.29272E-004	10	..........a	-327.74
	2590	3.23875	8.89243E-002	8.41995E-005	0.00000E+000	9.00000E-002	-9.54272E-004	10	..........a	-327.74
	2597	3.2475	9.59443E-002	8.21275E-005	0.00000E+000	9.70000E-002	-9.91772E-004	10	..........a	-327.74
	2604	3.25625	1.02991E-001	8.25286E-005	0.00000E+000	1.04000E-001	-9.41772E-004	10	..........a	-327.74
	2611	3.265	1.09891E-001	8.29964E-005	0.00000E+000	1.11000E-001	-9.79272E-004	10	..........a	-327.74
	2618	3.27375	1.16811E-001	8.27959E-005	0.00000E+000	1.18000E-001	-9.04272E-004	10	..........a	-327.74
	2625	3.2825	1.23931E-001	8.20607E-005	0.00000E+000	1.25000E-001	-9.29272E-004	10	..........a	-327.74
	2632	3.29125	1.30951E-001	8.27959E-005	0.00000E+000	1.32000E-001	-9.16772E-004	10	..........a	-327.74
	2639	3.3	1.37891E-001	8.15260E-005	0.00000E+000	1.39000E-001	-9.66772E-004	10	..........a	-327.74
	2646	3.30875	1.44898E-001	8.20607E-005	0.00000E+000	1.46000E-001	-9.41772E-004	10	..........a	-327.74
	2653	3.3175	1.51904E-001	8.33975E-005	0.00000E+000	1.53000E-001	-9.66772E-004	10	..........a	-327.74
	2660	3.32625	1.58951E-001	8.37985E-005	0.00000E+000	1.60000E-001	-9.79272E-004	10	..........a	-327.74
	2667	3.335	1.65871E-001	8.25954E-005	0.00000E+000	1.67000E-001	-9.41772E-004	10	..........a	-327.74
	2674	3.34375	1.72864E-001	8.32638E-005	0.00000E+000	1.74000E-001	-9.29272E-004	10	..........a	-327.74
	2681	3.3525	1.79884E-001	8.25954E-005	0.00000E+000	1.81000E-001	-9.41772E-004	10	..........a	-327.74
	2688	3.36125	1.86924E-001	8.34643E-005	0.00000E+000	1.88000E-001	-9.29272E-004	10	..........a	-327.74
	2695	3.37	1.93964E-001	8.41327E-005	0.00000E+000	1.95000E-001	-9.29272E-004	10	..........a	-327.74
	2702	3.37875	2.00811E-001	8.24617E-005	0.00000E+000	2.02000E-001	-9.41772E-004	10	..........a	-327.74
	2709	3.3875	2.07858E-001	8.26622E-005	0.00000E+000	2.09000E-001	-8.41772E-004	10	..........a	-327.74
	2716	3.39625	2.14844E-001	8.36648E-005	0.00000E+000	2.16000E-001	-9.79272E-004	10	..........a	-327.74
	2723	3.405	2.22004E-001	8.31970E-005	0.00000E+000	2.23000E-001	-9.04272E-004	10	..........a	-327.74
	2730	3.41375	2.28838E-001	8.35312E-005	0.00000E+000	2.30000E-001	-9.79272E-004	10	..........a	-327.74
	2737	3.4225	2.35851E-001	8.34643E-005	0.00000E+000	2.37000E-001	-9.54272E-004	10	..........a	-327.74
	2744	3.43125	2.42844E-001	8.32638E-005	0.00000E+000	2.44000E-001	-9.16772E-004	10	..........a	-327.74
	2751	3.44	2.49958E-001	8.14591E-005	0.00000E+000	2.51000E-001	-8.79272E-004	10	..........a	-327.74
	2758	3.44875	2.56811E-001	8.15260E-005	0.00000E+000	2.58000E-001	-1.00427E-003	10	..........a	-327.74
	2765	3.4575	2.63811E-001	8.11918E-005	0.00000E+000	2.65000E-001	-9.91772E-004	10	..........a	-327.74
	2772	3.46625	2.70938E-001	8.01223E-005	0.00000E+000	2.72000E-001	-9.91772E-004	10	..........a	-327.74
	2779	3.475	2.78018E-001	7.89192E-005	0.00000E+000	2.79000E-001	-9.04272E-004	10	..........a	-327.74
	2786	3.48375	2.84811E-001	7.77161E-005	0.00000E+000	2.86000E-001	-8.66772E-004	10	..........a	-327.74
	2793	3.4925	2.91824E-001	7.71814E-005	0.00000E+000	2.93000E-001	-1.00427E-003	10	..........a	-327.74
	2800	3.50125	2.98798E-001	7.63793E-005	0.00000E+000	3.00000E-001	-9.41772E-004	10	..........a	-327.74
	2807	3.51	3.05824E-001	7.69809E-005	0.00000E+000	3.07000E-001	-9.79272E-004	10	..........a	-327.74
	2814	3.51875	3.12778E-001	7.58446E-005	0.00000E+000	3.14000E-001	-9.41772E-004	10	..........a	-327.74
	2821	3.5275	3.19791E-001	7.39062E-005	0.00000E+000	3.21000E-001	-1.00427E-003	10	..........a	-327.74
	2828	3.53625	3.26978E-001	7.43073E-005	0.00000E+000	3.28000E-001	-9.79272E-004	10	..........a	-327.74
	2835	3.545	3.33871E-001	7.27031E-005	0.00000E+000	3.35000E-001	-9.04272E-004	10	..........a	-327.74
	2842	3.55375	3.40784E-001	7.31042E-005	0.00000E+000	3.42000E-001	-8.79272E-004	10	..........a	-327.74
	2849	3.5625	3.47871E-001	7.11658E-005	0.00000E+000	3.49000E-001	-9.91772E-004	10	..........a	-327.74
	2856	3.57125	3.54898E-001	7.06311E-005	0.00000E+000	3.56000E-001	-9.41772E-004	10	..........a	-327.74
	2863	3.58	3.61824E-001	7.01632E-005	0.00000E+000	3.63000E-001	-9.16772E-004	10	..........a	-327.74
	2870	3.58875	3.68771E-001	7.04974E-005	0.00000E+000	3.70000E-001	-9.79272E-004	10	..........a	-327.74
	2877	3.5975	3.75858E-001	6.86259E-005	0.00000E+000	3.77000E-001	-9.29272E-004	10	..........a	-327.74
	2884	3.60625	3.82964E-001	6.78907E-005	0.00000E+000	3.84000E-001	-8.79272E-004	10	..........a	-327.74
	2891	3.615	3.89778E-001	6.82917E-005	0.00000E+000	3.91000E-001	-8.91772E-004	10	..........a	-327.74
	2898	3.62375	3.96784E-001	6.85591E-005	0.00000E+000	3.98000E-001	-9.91772E-004	10	..........a	-327.74
	2905	3.6325	4.03878E-001	6.66207E-005	0.00000E+000	4.05000E-001	-9.29272E-004	10	..........a	-327.74
	2912	3.64125	4.10931E-001	6.67544E-005	0.00000E+000	4.12000E-001	-9.41772E-004	10	..........a	-327.74
	2919	3.65	4.17738E-001	6.56850E-005	0.00000E+000	4.19000E-001	-9.66772E-004	10	..........a	-327.74
	2926	3.65875	4.24831E-001	6.63534E-005	0.00000E+000	4.26000E-001	-9.66772E-004	10	..........a	-327.74
	2933	3.6675	4.31844E-001	6.53508E-005	0.00000E+000	4.33000E-001	-9.41772E-004	10	..........a	-327.74
	2940	3.67625	4.38878E-001	6.53508E-005	0.00000E+000	4.40000E-001	-9.41772E-004	10	..........a	-327.74
	2947	3.685	4.45778E-001	6.40808E-005	0.00000E+000	4.47000E-001	-9.54272E-004	10	..........a	-327.74
	2954	3.69375	4.52764E-001	6.31451E-005	0.00000E+000	4.54000E-001	-9.66772E-004	10	..........a	-327.74
	2961	3.7025	4.59871E-001	6.20756E-005	0.00000E+000	4.61000E-001	-9.79272E-004	10	..........a	-327.74
	2968	3.71125	4.66844E-001	6.22093E-005	0.00000E+000	4.68000E-001	-9.66772E-004	10	..........a	-327.74
	2975	3.72	4.73698E-001	6.16078E-005	0.00000E+000	4.75000E-001	-8.79272E-004	10	..........a	-327.74
	2982	3.72875	4.80804E-001	6.28777E-005	0.00000E+000	4.82000E-001	-8.91772E-004	10	..........a	-327.74
	2989	3.7375	4.87811E-001	6.16746E-005	0.00000E+000	4.89000E-001	-9.41772E-004	10	..........a	-327.74
	2996	3.74625	4.94838E-001	6.18083E-005	0.00000E+000	4.96000E-001	-1.04177E-003	10	..........a	-327.74
	3000	3.75125	4.98718E-001	6.14072E-005	0.00000E+000	5.00000E-001	-9.04272E-004	10	..........a	-327.74
CURVE2	TABLE
	Pt	T	Vf	Im	Vu	Sig	Ach	IERange	Over	Temp
	#	s	V vs. Ref.	A	V	V	V	#	bits	deg C
	3001	3.7525	4.98764E-001	5.94021E-005	0.00000E+000	5.00000E-001	-9.04272E-004	10	..........a	-327.74