File: data/02-SI/Figures_S9_S11_RDE/15btmapaq-rde/1mkcl-5mmolar15btmapaq-nitrogen-rde600mvpers-50mvpers.DTA
EXPLAIN
TAG	LSV
TITLE	LABEL	Linear Sweep Voltammetry	Test &Identifier
DATE	LABEL	1/31/2023	Date
TIME	LABEL	18:25:22	Time
NOTES	NOTES	1	&Notes...

PSTAT	PSTAT	REF3000-21108	Potentiostat
VINIT	POTEN	5.00000E-001	F	&Initial E (V)
VFINAL	POTEN	-1.00000E+000	F	&Final E (V)
SCANRATE	QUANT	4.99999E+001	&Scan Rate (mV/s)
STEPSIZE	QUANT	1.00000E-001	St&ep Size (mV)
IMODE	SELECTOR	0	I/E Range &Mode
IRANGE	QUANT	1.00000E+002	&Max Current (mA)
AREA	QUANT	1.00000E+000	Electrode &Area (cm^2)
ELECTRODETYPE	SELECTOR	0	Electrode Type
STRIPPING	TOGGLE	F	Used for Stripping
POLARITY	TOGGLE	F	Signal Polarity
CONDIT	TWOPARAM	F	1.50000E+001	0.00000E+000	Conditionin&g	Time(s)	E(V)
DELAY	TWOPARAM	F	3.00000E+001	0.00000E+000	Init. De&lay	Time(s)	Stab.(mV/s)
EQDELAY	QUANT	0.00000E+000	Equil. &Time (s)
IRCOMP	SELECTOR	0	IRCom&p
PFCOR	QUANT	5.00000E+001	PF Corr. (ohm)
SAMPLINGMODE	SELECTOR	1	Sampling &Mode
EOC	QUANT	0	Open Circuit (V)
PSTATMODEL	IQUANT	5	Pstat Model
PSTATSECTION	LABEL	REF3000-21108	Pstat Section
PSTATSERIALNO	LABEL	21108	Pstat Serial Number
CTRLMODE	IQUANT	1	Control Mode
ELECTROMETER	IQUANT	0	RE=0 or CS=1
IESTAB	IQUANT	2	I/E Stability
CASPEED	IQUANT	4	Control Amp Speed
CONVENTION	IQUANT	1	Current Convention
ICHRANGE	IQUANT	2	Ich Range
ICHRANGEMODE	TOGGLE	F	Ich Auto Range
ICHOFFSETENABLE	TOGGLE	F	Ich Offset Enable
ICHOFFSET	QUANT	0	Ich Offset (V)
ICHFILTER	IQUANT	2	Ich Filter
VCHRANGE	IQUANT	2	Vch Range
VCHRANGEMODE	TOGGLE	T	Vch Auto Range
VCHOFFSETENABLE	TOGGLE	F	Vch Offset Enable
VCHOFFSET	QUANT	0	Vch Offset (V)
VCHFILTER	IQUANT	2	Vch Filter
ACHRANGE	IQUANT	2	Ach Range
ACHOFFSETENABLE	TOGGLE	F	Ach Offset Enable
ACHOFFSET	QUANT	0	Ach Offset (V)
ACHFILTER	IQUANT	0	Ach Filter
IERANGELOWERLIMIT	IQUANT	2	I/E Range Lower Limit
IERANGEMODE	TOGGLE	T	I/E AutoRange
IERANGE	IQUANT	11	I/E Range
POSFEEDENABLE	TOGGLE	F	Positive Feedback IR Comp
POSFEEDRESISTANCE	QUANT	0	Positive Feedback Resistance (ohm)
ACHSELECT	IQUANT	0	Ach Select
SENSECABLEID	IQUANT	14	Sense Cable ID
PWRCABLEID	IQUANT	7	Power Cable ID
DCCALDATE	LABEL	11/9/2022	DC Calibration Date
ACCALDATE	LABEL	11/9/2022	AC Calibration Date
THERMOSELECT	IQUANT	1	Thermo Select
FRAMEWORKVERSION	LABEL	7.8.2	Framework Version
INSTRUMENTVERSION	LABEL	4.40	Instrument Version
COMPLIANCEVOLTAGE	IQUANT	0	Compliance Voltage
CURVE	TABLE	15001
	Pt	T	Vf	Im	Vu	Sig	Ach	IERange	Over	Cycle	Temp
	#	s	V vs. Ref.	A	V	V	V	#	bits	#	deg C
	0	0.002	4.99750E-001	-5.42385E-005	0.00000E+000	5.00000E-001	-8.87605E-004	11	..........a	0	-327.74
	32	0.066	4.95618E-001	6.02481E-006	0.00000E+000	4.96800E-001	-9.62605E-004	8	..........a	0	-327.74
	64	0.13	4.92389E-001	4.21370E-006	0.00000E+000	4.93600E-001	-9.45939E-004	8	..........a	0	-327.74
	96	0.194	4.89252E-001	3.29961E-006	0.00000E+000	4.90400E-001	-8.70939E-004	8	..........a	0	-327.74
	128	0.258	4.86114E-001	2.56050E-006	0.00000E+000	4.87200E-001	-8.62605E-004	8	..........a	0	-327.74
	160	0.322	4.82939E-001	2.23511E-006	0.00000E+000	4.84000E-001	-9.54272E-004	8	..........a	0	-327.74
	192	0.386	4.79710E-001	1.97263E-006	0.00000E+000	4.80800E-001	-9.37606E-004	8	..........a	0	-327.74
	224	0.45	4.76522E-001	1.80848E-006	0.00000E+000	4.77600E-001	-9.62605E-004	8	..........a	0	-327.74
	256	0.514	4.73202E-001	1.55392E-006	0.00000E+000	4.74400E-001	-9.79272E-004	8	..........a	0	-327.74
	288	0.578	4.70039E-001	1.38685E-006	0.00000E+000	4.71200E-001	-9.62605E-004	8	..........a	0	-327.74
	320	0.642	4.66877E-001	1.34644E-006	0.00000E+000	4.68000E-001	-9.20939E-004	8	..........a	0	-327.74
	352	0.706	4.63722E-001	1.05729E-006	0.00000E+000	4.64800E-001	-9.37606E-004	8	..........a	0	-327.74
	384	0.77	4.60547E-001	9.30219E-007	0.00000E+000	4.61600E-001	-9.70939E-004	8	..........a	0	-327.74
	416	0.834	4.57302E-001	9.40218E-007	0.00000E+000	4.58400E-001	-9.04272E-004	8	..........a	0	-327.74
	448	0.898	4.54160E-001	9.38551E-007	0.00000E+000	4.55200E-001	-1.00427E-003	8	..........a	0	-327.74
	480	0.962	4.50977E-001	8.53975E-007	0.00000E+000	4.52000E-001	-8.70939E-004	8	..........a	0	-327.74
	512	1.026	4.47627E-001	8.16894E-007	0.00000E+000	4.48800E-001	-9.04272E-004	8	..........a	0	-327.74
	544	1.09	4.44418E-001	6.45658E-007	0.00000E+000	4.45600E-001	-9.70939E-004	8	..........a	0	-327.74
	576	1.154	4.41277E-001	6.31909E-007	0.00000E+000	4.42400E-001	-9.95939E-004	8	..........a	0	-327.74
	608	1.218	4.38056E-001	6.36909E-007	0.00000E+000	4.39200E-001	-9.54272E-004	8	..........a	0	-327.74
	640	1.282	4.34956E-001	5.36084E-007	0.00000E+000	4.36000E-001	-8.79272E-004	8	..........a	0	-327.74
	672	1.346	4.31739E-001	4.99003E-007	0.00000E+000	4.32800E-001	-9.70939E-004	8	..........a	0	-327.74
	704	1.41	4.28543E-001	5.98579E-007	0.00000E+000	4.29600E-001	-8.70939E-004	8	..........a	0	-327.74
	736	1.474	4.25360E-001	4.59423E-007	0.00000E+000	4.26400E-001	-9.37606E-004	8	..........a	0	-327.74
	768	1.538	4.22006E-001	5.03586E-007	0.00000E+000	4.23200E-001	-8.79272E-004	8	..........a	0	-327.74
	800	1.602	4.18843E-001	4.87754E-007	0.00000E+000	4.20000E-001	-9.79272E-004	8	..........a	0	-327.74
	832	1.666	4.15614E-001	4.12760E-007	0.00000E+000	4.16800E-001	-9.54272E-004	8	..........a	0	-327.74
	864	1.73	4.12485E-001	5.13585E-007	0.00000E+000	4.13600E-001	-9.62605E-004	8	..........a	0	-327.74
	896	1.794	4.09343E-001	3.93178E-007	0.00000E+000	4.10400E-001	-9.54272E-004	8	..........a	0	-327.74
	928	1.858	4.06189E-001	2.92353E-007	0.00000E+000	4.07200E-001	-9.37606E-004	8	..........a	0	-327.74
	960	1.922	4.02864E-001	3.04852E-007	0.00000E+000	4.04000E-001	-9.70939E-004	8	..........a	0	-327.74
	992	1.986	3.99718E-001	3.85679E-007	0.00000E+000	4.00800E-001	-9.45939E-004	8	..........a	0	-327.74
	1024	2.05	3.96427E-001	3.44849E-007	0.00000E+000	3.97600E-001	-9.12605E-004	8	..........a	0	-327.74
	1056	2.114	3.93256E-001	3.22351E-007	0.00000E+000	3.94400E-001	-9.62605E-004	8	..........a	0	-327.74
	1088	2.178	3.90022E-001	2.51940E-007	0.00000E+000	3.91200E-001	-9.04272E-004	8	..........a	0	-327.74
	1120	2.242	3.86877E-001	3.27767E-007	0.00000E+000	3.88000E-001	-9.29272E-004	8	..........a	0	-327.74
	1152	2.306	3.83735E-001	2.59856E-007	0.00000E+000	3.84800E-001	-9.62605E-004	8	..........a	0	-327.74
	1184	2.37	3.80593E-001	2.18192E-007	0.00000E+000	3.81600E-001	-9.20939E-004	8	..........a	0	-327.74
	1216	2.434	3.77372E-001	1.31116E-007	0.00000E+000	3.78400E-001	-9.12605E-004	8	..........a	0	-327.74
	1248	2.498	3.74164E-001	2.24859E-007	0.00000E+000	3.75200E-001	-9.12605E-004	8	..........a	0	-327.74
	1280	2.562	3.70827E-001	2.09026E-007	0.00000E+000	3.72000E-001	-8.95939E-004	8	..........a	0	-327.74
	1312	2.626	3.67639E-001	1.35699E-007	0.00000E+000	3.68800E-001	-9.45939E-004	8	..........a	0	-327.74
	1344	2.69	3.64497E-001	1.31116E-007	0.00000E+000	3.65600E-001	-8.45939E-004	8	..........a	0	-327.74
	1376	2.754	3.61302E-001	9.23692E-008	0.00000E+000	3.62400E-001	-9.20939E-004	8	..........a	0	-327.74
	1408	2.818	3.58202E-001	1.15701E-007	0.00000E+000	3.59200E-001	-8.79272E-004	8	..........a	0	-327.74
	1440	2.882	3.54981E-001	1.72363E-007	0.00000E+000	3.56000E-001	-9.20939E-004	8	..........a	0	-327.74
	1472	2.946	3.51764E-001	1.28200E-007	0.00000E+000	3.52800E-001	-9.29272E-004	8	..........a	0	-327.74
	1504	3.01	3.48585E-001	1.95694E-007	0.00000E+000	3.49600E-001	-8.95939E-004	8	..........a	0	-327.74
	1536	3.074	3.45247E-001	1.30699E-007	0.00000E+000	3.46400E-001	-9.20939E-004	8	..........a	0	-327.74
	1568	3.138	3.42106E-001	1.12368E-007	0.00000E+000	3.43200E-001	-8.79272E-004	8	..........a	0	-327.74
	1600	3.202	3.38918E-001	4.19565E-008	0.00000E+000	3.40000E-001	-9.87605E-004	8	..........a	0	-327.74
	1632	3.266	3.35689E-001	1.43198E-007	0.00000E+000	3.36800E-001	-9.45939E-004	8	..........a	0	-327.74
	1664	3.33	3.32556E-001	5.65387E-008	0.00000E+000	3.33600E-001	-9.20939E-004	8	..........a	0	-327.74
	1696	3.394	3.29368E-001	9.27858E-008	0.00000E+000	3.30400E-001	-9.29272E-004	8	..........a	0	-327.74
	1728	3.458	3.26168E-001	9.57022E-008	0.00000E+000	3.27200E-001	-9.04272E-004	8	..........a	0	-327.74
	1760	3.522	3.23027E-001	1.55281E-007	0.00000E+000	3.24000E-001	-9.45939E-004	8	..........a	0	-327.74
	1792	3.586	3.19664E-001	7.02876E-008	0.00000E+000	3.20800E-001	-8.37606E-004	8	..........a	0	-327.74
	1824	3.65	3.16447E-001	1.40282E-007	0.00000E+000	3.17600E-001	-9.37606E-004	8	..........a	0	-327.74
	1856	3.714	3.13302E-001	6.69545E-008	0.00000E+000	3.14400E-001	-9.45939E-004	8	..........a	0	-327.74
	1888	3.778	3.10093E-001	2.23748E-008	0.00000E+000	3.11200E-001	-9.37606E-004	8	..........a	0	-327.74
	1920	3.842	3.06989E-001	4.73728E-008	0.00000E+000	3.08000E-001	-9.12605E-004	8	..........a	0	-327.74
	1952	3.906	3.03810E-001	9.77854E-008	0.00000E+000	3.04800E-001	-9.20939E-004	8	..........a	0	-327.74
	1984	3.97	3.00602E-001	-4.42865E-008	0.00000E+000	3.01600E-001	-9.37606E-004	8	..........a	0	-327.74
	2016	4.034	2.97402E-001	-1.01226E-008	0.00000E+000	2.98400E-001	-8.70939E-004	8	..........a	0	-327.74
	2048	4.098	2.94060E-001	2.69578E-008	0.00000E+000	2.95200E-001	-9.20939E-004	8	..........a	0	-327.74
	2080	4.162	2.90910E-001	8.82028E-008	0.00000E+000	2.92000E-001	-9.04272E-004	8	..........a	0	-327.74
	2112	4.226	2.87760E-001	-1.88719E-008	0.00000E+000	2.88800E-001	-8.54272E-004	8	..........a	0	-327.74
	2144	4.29	2.84556E-001	-1.92885E-008	0.00000E+000	2.85600E-001	-8.62605E-004	8	..........a	0	-327.74
	2176	4.354	2.81372E-001	4.07066E-008	0.00000E+000	2.82400E-001	-9.20939E-004	8	..........a	0	-327.74
	2208	4.418	2.78152E-001	-5.80354E-008	0.00000E+000	2.79200E-001	-9.04272E-004	8	..........a	0	-327.74
	2240	4.482	2.75018E-001	-2.92877E-008	0.00000E+000	2.76000E-001	-9.12605E-004	8	..........a	0	-327.74
	2272	4.546	2.71860E-001	-8.59498E-008	0.00000E+000	2.72800E-001	-8.87605E-004	8	..........a	0	-327.74
	2304	4.61	2.68472E-001	-5.13693E-008	0.00000E+000	2.69600E-001	-8.70939E-004	8	..........a	0	-327.74
	2336	4.674	2.65268E-001	1.57087E-008	0.00000E+000	2.66400E-001	-9.70939E-004	8	..........a	0	-327.74
	2368	4.738	2.62139E-001	2.90409E-008	0.00000E+000	2.63200E-001	-9.29272E-004	8	..........a	0	-327.74
	2400	4.802	2.58943E-001	-6.38683E-008	0.00000E+000	2.60000E-001	-9.45939E-004	8	..........a	0	-327.74
	2432	4.866	2.55797E-001	6.95936E-009	0.00000E+000	2.56800E-001	-9.45939E-004	8	..........a	0	-327.74
	2464	4.93	2.52581E-001	7.79263E-009	0.00000E+000	2.53600E-001	-9.20939E-004	8	..........a	0	-327.74
	2496	4.994	2.49427E-001	9.87579E-009	0.00000E+000	2.50400E-001	-9.29272E-004	8	..........a	0	-327.74
	2528	5.058	2.46197E-001	-8.42833E-008	0.00000E+000	2.47200E-001	-8.79272E-004	8	..........a	0	-327.74
	2560	5.122	2.42776E-001	-6.34517E-008	0.00000E+000	2.44000E-001	-9.62605E-004	8	......s...a	0	-327.74
	2592	5.186	2.39578E-001	-7.01178E-008	0.00000E+000	2.40800E-001	-9.20939E-004	8	..........a	0	-327.74
	2624	5.25	2.36381E-001	-1.43862E-007	0.00000E+000	2.37600E-001	-8.70939E-004	8	..........a	0	-327.74
	2656	5.314	2.33193E-001	-4.76196E-008	0.00000E+000	2.34400E-001	-9.45939E-004	8	..........a	0	-327.74
	2688	5.378	2.30001E-001	-4.28974E-009	0.00000E+000	2.31200E-001	-8.62605E-004	8	..........a	0	-327.74
	2720	5.442	2.26778E-001	-1.22058E-008	0.00000E+000	2.28000E-001	-8.95939E-004	8	..........a	0	-327.74
	2752	5.506	2.23592E-001	-7.09511E-008	0.00000E+000	2.24800E-001	-8.87605E-004	8	..........a	0	-327.74
	2784	5.57	2.20381E-001	-9.30326E-008	0.00000E+000	2.21600E-001	-9.95939E-004	8	..........a	0	-327.74
	2816	5.634	2.17199E-001	-1.40945E-007	0.00000E+000	2.18400E-001	-8.95939E-004	8	..........a	0	-327.74
	2848	5.698	2.13973E-001	-1.00532E-007	0.00000E+000	2.15200E-001	-9.29272E-004	8	..........a	0	-327.74
	2880	5.762	2.10791E-001	-1.05948E-007	0.00000E+000	2.12000E-001	-8.87605E-004	8	..........a	0	-327.74
	2912	5.826	2.07601E-001	-1.07198E-007	0.00000E+000	2.08800E-001	-8.95939E-004	8	..........a	0	-327.74
	2944	5.89	2.04403E-001	-7.13677E-008	0.00000E+000	2.05600E-001	-9.70939E-004	8	..........a	0	-327.74
	2976	5.954	2.01204E-001	-1.28446E-007	0.00000E+000	2.02400E-001	-8.62605E-004	8	..........a	0	-327.74
	3008	6.018	1.97998E-001	-1.08865E-007	0.00000E+000	1.99200E-001	-9.70939E-004	8	..........a	0	-327.74
	3040	6.082	1.94796E-001	-7.26176E-008	0.00000E+000	1.96000E-001	-9.04272E-004	8	..........a	0	-327.74
	3072	6.146	1.91611E-001	-1.51778E-007	0.00000E+000	1.92800E-001	-9.20939E-004	8	..........a	0	-327.74
	3104	6.21	1.88403E-001	-1.51778E-007	0.00000E+000	1.89600E-001	-8.87605E-004	8	..........a	0	-327.74
	3136	6.274	1.85207E-001	-1.43029E-007	0.00000E+000	1.86400E-001	-8.79272E-004	8	..........a	0	-327.74
	3168	6.338	1.82013E-001	-8.88663E-008	0.00000E+000	1.83200E-001	-8.95939E-004	8	..........a	0	-327.74
	3200	6.402	1.78821E-001	-1.27613E-007	0.00000E+000	1.80000E-001	-9.45939E-004	8	..........a	0	-327.74
	3232	6.466	1.75609E-001	-1.05115E-007	0.00000E+000	1.76800E-001	-9.54272E-004	8	..........a	0	-327.74
	3264	6.53	1.72418E-001	-1.49695E-007	0.00000E+000	1.73600E-001	-8.79272E-004	8	..........a	0	-327.74
	3296	6.594	1.69222E-001	-1.20530E-007	0.00000E+000	1.70400E-001	-8.70939E-004	8	..........a	0	-327.74
	3328	6.658	1.66010E-001	-1.57194E-007	0.00000E+000	1.67200E-001	-8.95939E-004	8	..........a	0	-327.74
	3360	6.722	1.62817E-001	-1.27197E-007	0.00000E+000	1.64000E-001	-9.37606E-004	8	..........a	0	-327.74
	3392	6.786	1.59604E-001	-1.80526E-007	0.00000E+000	1.60800E-001	-9.37606E-004	8	..........a	0	-327.74
	3424	6.85	1.56421E-001	-1.24280E-007	0.00000E+000	1.57600E-001	-9.29272E-004	8	..........a	0	-327.74
	3456	6.914	1.53229E-001	-1.80109E-007	0.00000E+000	1.54400E-001	-9.20939E-004	8	..........a	0	-327.74
	3488	6.978	1.50036E-001	-2.38021E-007	0.00000E+000	1.51200E-001	-8.79272E-004	8	..........a	0	-327.74
	3520	7.042	1.46823E-001	-2.23439E-007	0.00000E+000	1.48000E-001	-8.70939E-004	8	..........a	0	-327.74
	3552	7.106	1.43620E-001	-1.75526E-007	0.00000E+000	1.44800E-001	-9.54272E-004	8	..........a	0	-327.74
	3584	7.17	1.40439E-001	-1.44278E-007	0.00000E+000	1.41600E-001	-9.20939E-004	8	..........a	0	-327.74
	3616	7.234	1.37239E-001	-7.09511E-008	0.00000E+000	1.38400E-001	-9.70939E-004	8	..........a	0	-327.74
	3648	7.298	1.34023E-001	-1.17614E-007	0.00000E+000	1.35200E-001	-9.12605E-004	8	..........a	0	-327.74
	3680	7.362	1.30823E-001	-1.23863E-007	0.00000E+000	1.32000E-001	-9.37606E-004	8	..........a	0	-327.74
	3712	7.426	1.27638E-001	-1.45945E-007	0.00000E+000	1.28800E-001	-9.79272E-004	8	..........a	0	-327.74
	3744	7.49	1.24455E-001	-2.05524E-007	0.00000E+000	1.25600E-001	-9.04272E-004	8	..........a	0	-327.74
	3776	7.554	1.21230E-001	-2.25939E-007	0.00000E+000	1.22400E-001	-9.45939E-004	8	..........a	0	-327.74
	3808	7.618	1.18042E-001	-2.54270E-007	0.00000E+000	1.19200E-001	-9.87605E-004	8	..........a	0	-327.74
	3840	7.682	1.14844E-001	-9.63657E-008	0.00000E+000	1.16000E-001	-8.95939E-004	8	..........a	0	-327.74
	3872	7.746	1.11641E-001	-1.57611E-007	0.00000E+000	1.12800E-001	-9.29272E-004	8	..........a	0	-327.74
	3904	7.81	1.08438E-001	-2.05524E-007	0.00000E+000	1.09600E-001	-8.54272E-004	8	..........a	0	-327.74
	3936	7.874	1.05259E-001	-9.92821E-008	0.00000E+000	1.06400E-001	-8.95939E-004	8	..........a	0	-327.74
	3968	7.938	1.02049E-001	-1.95941E-007	0.00000E+000	1.03200E-001	-8.29272E-004	8	..........a	0	-327.74
	4000	8.002	9.88585E-002	-1.05115E-007	0.00000E+000	1.00000E-001	-8.87605E-004	8	..........a	0	-327.74
	4032	8.066	9.56576E-002	-1.70526E-007	0.00000E+000	9.68000E-002	-9.04272E-004	8	..........a	0	-327.74
	4064	8.13	9.24568E-002	-1.63027E-007	0.00000E+000	9.36000E-002	-8.70939E-004	8	..........a	0	-327.74
	4096	8.194	8.92697E-002	-1.92191E-007	0.00000E+000	9.04000E-002	-8.20939E-004	8	..........a	0	-327.74
	4128	8.258	8.60681E-002	-2.92183E-007	0.00000E+000	8.72000E-002	-8.87605E-004	8	..........a	0	-327.74
	4160	8.322	8.28468E-002	-1.54278E-007	0.00000E+000	8.40000E-002	-9.37606E-004	8	..........a	0	-327.74
	4192	8.386	7.96718E-002	-1.33863E-007	0.00000E+000	8.08000E-002	-8.70939E-004	8	..........a	0	-327.74
	4224	8.45	7.64635E-002	-2.18439E-007	0.00000E+000	7.76000E-002	-9.04272E-004	8	..........a	0	-327.74
	4256	8.514	7.32731E-002	-1.88025E-007	0.00000E+000	7.44000E-002	-8.79272E-004	8	..........a	0	-327.74
	4288	8.578	7.00697E-002	-1.41779E-007	0.00000E+000	7.12000E-002	-8.70939E-004	8	..........a	0	-327.74
	4320	8.642	6.68535E-002	-2.70102E-007	0.00000E+000	6.80000E-002	-8.95939E-004	8	..........a	0	-327.74
	4352	8.706	6.36822E-002	-1.95941E-007	0.00000E+000	6.48000E-002	-8.95939E-004	8	..........a	0	-327.74
	4384	8.77	6.04843E-002	-1.60111E-007	0.00000E+000	6.16000E-002	-9.20939E-004	8	..........a	0	-327.74
	4416	8.834	5.72701E-002	-2.09690E-007	0.00000E+000	5.84000E-002	-8.70939E-004	8	..........a	0	-327.74
	4448	8.898	5.40831E-002	-2.32188E-007	0.00000E+000	5.52000E-002	-9.29272E-004	8	..........a	0	-327.74
	4480	8.962	5.08826E-002	-2.08440E-007	0.00000E+000	5.20000E-002	-8.79272E-004	8	..........a	0	-327.74
	4512	9.026	4.76922E-002	-3.23014E-007	0.00000E+000	4.88000E-002	-9.12605E-004	8	..........a	0	-327.74
	4544	9.09	4.44722E-002	-2.35105E-007	0.00000E+000	4.56000E-002	-9.12605E-004	8	..........a	0	-327.74
	4576	9.154	4.12726E-002	-2.79268E-007	0.00000E+000	4.24000E-002	-8.95939E-004	8	..........a	0	-327.74
	4608	9.218	3.80851E-002	-9.05328E-008	0.00000E+000	3.92000E-002	-8.95939E-004	8	..........a	0	-327.74
	4640	9.282	3.48889E-002	-2.40521E-007	0.00000E+000	3.60000E-002	-9.62605E-004	8	..........a	0	-327.74
	4672	9.346	3.16751E-002	-2.75101E-007	0.00000E+000	3.28000E-002	-8.62605E-004	8	..........a	0	-327.74
	4704	9.41	2.84885E-002	-2.38854E-007	0.00000E+000	2.96000E-002	-8.54272E-004	8	..........a	0	-327.74
	4736	9.474	2.52943E-002	-2.17606E-007	0.00000E+000	2.64000E-002	-9.04272E-004	8	..........a	0	-327.74
	4768	9.538	2.20687E-002	-2.08023E-007	0.00000E+000	2.32000E-002	-8.79272E-004	8	..........a	0	-327.74
	4800	9.602	1.88736E-002	-9.63657E-008	0.00000E+000	2.00000E-002	-8.54272E-004	8	..........a	0	-327.74
	4832	9.666	1.56750E-002	-1.69277E-007	0.00000E+000	1.68000E-002	-9.20939E-004	8	..........a	0	-327.74
	4864	9.73	1.24712E-002	-2.58436E-007	0.00000E+000	1.36000E-002	-8.70939E-004	8	..........a	0	-327.74
	4896	9.794	9.27447E-003	-2.58436E-007	0.00000E+000	1.04000E-002	-8.95939E-004	8	..........a	0	-327.74
	4928	9.858	6.08526E-003	-2.55936E-007	0.00000E+000	7.20000E-003	-8.70939E-004	8	..........a	0	-327.74
	4960	9.922	2.88064E-003	-2.57186E-007	0.00000E+000	4.00001E-003	-8.87605E-004	8	..........a	0	-327.74
	4992	9.986	-3.05318E-004	-3.18848E-007	0.00000E+000	7.99984E-004	-8.79272E-004	8	..........a	0	-327.74
	5024	10.05	-3.50423E-003	-2.13856E-007	0.00000E+000	-2.40001E-003	-8.79272E-004	8	..........a	0	-327.74
	5056	10.114	-6.70928E-003	-1.82192E-007	0.00000E+000	-5.60001E-003	-8.29272E-004	8	..........a	0	-327.74
	5088	10.178	-9.91940E-003	-2.67185E-007	0.00000E+000	-8.80000E-003	-9.12605E-004	8	..........a	0	-327.74
	5120	10.242	-1.31150E-002	-3.22598E-007	0.00000E+000	-1.20000E-002	-8.37606E-004	8	..........a	0	-327.74
	5152	10.306	-1.63030E-002	-2.00107E-007	0.00000E+000	-1.52000E-002	-9.04272E-004	8	..........a	0	-327.74
	5184	10.37	-1.94912E-002	-2.92600E-007	0.00000E+000	-1.84000E-002	-9.04272E-004	8	..........a	0	-327.74
	5216	10.434	-2.26992E-002	-2.32188E-007	0.00000E+000	-2.16000E-002	-8.37606E-004	8	..........a	0	-327.74
	5248	10.498	-2.58945E-002	-2.78018E-007	0.00000E+000	-2.48000E-002	-8.79272E-004	8	..........a	0	-327.74
	5280	10.562	-2.90949E-002	-3.70927E-007	0.00000E+000	-2.80000E-002	-8.45939E-004	8	..........a	0	-327.74
	5312	10.626	-3.22932E-002	-3.02182E-007	0.00000E+000	-3.12000E-002	-9.20939E-004	8	..........a	0	-327.74
	5344	10.69	-3.54965E-002	-3.48012E-007	0.00000E+000	-3.44000E-002	-8.62605E-004	8	..........a	0	-327.74
	5376	10.754	-3.86724E-002	-3.80093E-007	0.00000E+000	-3.76000E-002	-7.79272E-004	8	..........a	0	-327.74
	5408	10.818	-4.18853E-002	-2.62602E-007	0.00000E+000	-4.08000E-002	-9.04272E-004	8	..........a	0	-327.74
	5440	10.882	-4.50986E-002	-4.04258E-007	0.00000E+000	-4.40000E-002	-9.62605E-004	8	..........a	0	-327.74
	5472	10.946	-4.82878E-002	-5.06749E-007	0.00000E+000	-4.72000E-002	-8.95939E-004	8	..........a	0	-327.74
	5504	11.01	-5.14828E-002	-2.83434E-007	0.00000E+000	-5.04000E-002	-9.29272E-004	8	..........a	0	-327.74
	5536	11.074	-5.46765E-002	-3.79260E-007	0.00000E+000	-5.36000E-002	-8.20939E-004	8	..........a	0	-327.74
	5568	11.138	-5.78978E-002	-4.01758E-007	0.00000E+000	-5.68000E-002	-9.20939E-004	8	..........a	0	-327.74
	5600	11.202	-6.10819E-002	-2.84684E-007	0.00000E+000	-6.00000E-002	-9.12605E-004	8	..........a	0	-327.74
	5632	11.266	-6.42769E-002	-3.97592E-007	0.00000E+000	-6.32000E-002	-8.87605E-004	8	..........a	0	-327.74
	5664	11.33	-6.74786E-002	-4.55087E-007	0.00000E+000	-6.64000E-002	-9.20939E-004	8	..........a	0	-327.74
	5696	11.394	-7.06732E-002	-5.01333E-007	0.00000E+000	-6.96000E-002	-9.20939E-004	8	..........a	0	-327.74
	5728	11.458	-7.38765E-002	-4.35089E-007	0.00000E+000	-7.28000E-002	-9.37606E-004	8	..........a	0	-327.74
	5760	11.522	-7.70503E-002	-5.11332E-007	0.00000E+000	-7.60000E-002	-9.37606E-004	8	..........a	0	-327.74
	5792	11.586	-8.02632E-002	-4.35505E-007	0.00000E+000	-7.92000E-002	-8.70939E-004	8	..........a	0	-327.74
	5824	11.65	-8.34624E-002	-4.65503E-007	0.00000E+000	-8.24000E-002	-9.04272E-004	8	..........a	0	-327.74
	5856	11.714	-8.66678E-002	-5.30914E-007	0.00000E+000	-8.56000E-002	-8.79272E-004	8	..........a	0	-327.74
	5888	11.778	-8.98544E-002	-4.74252E-007	0.00000E+000	-8.88000E-002	-8.87605E-004	8	..........a	0	-327.74
	5920	11.842	-9.30661E-002	-6.55487E-007	0.00000E+000	-9.20000E-002	-9.45939E-004	8	..........a	0	-327.74
	5952	11.906	-9.62682E-002	-6.20490E-007	0.00000E+000	-9.52000E-002	-9.54272E-004	8	..........a	0	-327.74
	5984	11.97	-9.94544E-002	-6.74653E-007	0.00000E+000	-9.84000E-002	-9.04272E-004	8	..........a	0	-327.74
	6016	12.034	-1.02654E-001	-6.42988E-007	0.00000E+000	-1.01600E-001	-8.95939E-004	8	..........a	0	-327.74
	6048	12.098	-1.05834E-001	-7.34648E-007	0.00000E+000	-1.04800E-001	-9.37606E-004	8	..........a	0	-327.74
	6080	12.162	-1.09039E-001	-7.82977E-007	0.00000E+000	-1.08000E-001	-9.04272E-004	8	..........a	0	-327.74
	6112	12.226	-1.12242E-001	-8.19224E-007	0.00000E+000	-1.11200E-001	-9.20939E-004	8	..........a	0	-327.74
	6144	12.29	-1.15442E-001	-8.92135E-007	0.00000E+000	-1.14400E-001	-9.04272E-004	8	..........a	0	-327.74
	6176	12.354	-1.18638E-001	-9.60046E-007	0.00000E+000	-1.17600E-001	-9.04272E-004	8	..........a	0	-327.74
	6208	12.418	-1.21842E-001	-9.39631E-007	0.00000E+000	-1.20800E-001	-9.20939E-004	8	..........a	0	-327.74
	6240	12.482	-1.25045E-001	-1.15836E-006	0.00000E+000	-1.24000E-001	-9.29272E-004	8	..........a	0	-327.74
	6272	12.546	-1.28242E-001	-1.09587E-006	0.00000E+000	-1.27200E-001	-8.62605E-004	8	..........a	0	-327.74
	6304	12.61	-1.31450E-001	-1.15128E-006	0.00000E+000	-1.30400E-001	-9.62605E-004	8	..........a	0	-327.74
	6336	12.674	-1.34642E-001	-1.30502E-006	0.00000E+000	-1.33600E-001	-8.20939E-004	8	..........a	0	-327.74
	6368	12.738	-1.37837E-001	-1.33793E-006	0.00000E+000	-1.36800E-001	-9.04272E-004	8	..........a	0	-327.74
	6400	12.802	-1.41029E-001	-1.39584E-006	0.00000E+000	-1.40000E-001	-9.04272E-004	8	..........a	0	-327.74
	6432	12.866	-1.44221E-001	-1.52167E-006	0.00000E+000	-1.43200E-001	-9.45939E-004	8	..........a	0	-327.74
	6464	12.93	-1.47439E-001	-1.58833E-006	0.00000E+000	-1.46400E-001	-9.12605E-004	8	..........a	0	-327.74
	6496	12.994	-1.50630E-001	-1.70832E-006	0.00000E+000	-1.49600E-001	-9.29272E-004	8	..........a	0	-327.74
	6528	13.058	-1.53819E-001	-1.92664E-006	0.00000E+000	-1.52800E-001	-9.29272E-004	8	..........a	0	-327.74
	6560	13.122	-1.57024E-001	-1.87456E-006	0.00000E+000	-1.56000E-001	-9.12605E-004	8	..........a	0	-327.74
	6592	13.186	-1.60235E-001	-2.06746E-006	0.00000E+000	-1.59200E-001	-9.29272E-004	8	..........a	0	-327.74
	6624	13.25	-1.63429E-001	-2.24661E-006	0.00000E+000	-1.62400E-001	-9.54272E-004	8	..........a	0	-327.74
	6656	13.314	-1.66626E-001	-2.36535E-006	0.00000E+000	-1.65600E-001	-8.87605E-004	8	..........a	0	-327.74
	6688	13.378	-1.69823E-001	-2.54075E-006	0.00000E+000	-1.68800E-001	-9.45939E-004	8	..........a	0	-327.74
	6720	13.442	-1.73034E-001	-2.71157E-006	0.00000E+000	-1.72000E-001	-9.45939E-004	8	..........a	0	-327.74
	6752	13.506	-1.76230E-001	-2.96072E-006	0.00000E+000	-1.75200E-001	-9.04272E-004	8	..........a	0	-327.74
	6784	13.57	-1.79426E-001	-3.12154E-006	0.00000E+000	-1.78400E-001	-8.87605E-004	8	..........a	0	-327.74
	6816	13.634	-1.82607E-001	-3.27528E-006	0.00000E+000	-1.81600E-001	-9.04272E-004	8	..........a	0	-327.74
	6848	13.698	-1.85811E-001	-3.53401E-006	0.00000E+000	-1.84800E-001	-9.12605E-004	8	..........a	0	-327.74
	6880	13.762	-1.89025E-001	-3.76774E-006	0.00000E+000	-1.88000E-001	-9.29272E-004	8	..........a	0	-327.74
	6912	13.826	-1.92209E-001	-4.08730E-006	0.00000E+000	-1.91200E-001	-9.37606E-004	8	..........a	0	-327.74
	6944	13.89	-1.95420E-001	-4.36019E-006	0.00000E+000	-1.94400E-001	-9.04272E-004	8	..........a	0	-327.74
	6976	13.954	-1.98612E-001	-4.65642E-006	0.00000E+000	-1.97600E-001	-9.29272E-004	8	..........a	0	-327.74
	7008	14.018	-2.01808E-001	-4.94681E-006	0.00000E+000	-2.00800E-001	-9.12605E-004	8	..........a	0	-327.74
	7040	14.082	-2.04995E-001	-5.14554E-006	0.00000E+000	-2.04000E-001	-8.95939E-004	8	..........a	0	-327.74
	7072	14.146	-2.08204E-001	-5.57676E-006	0.00000E+000	-2.07200E-001	-8.95939E-004	8	..........a	0	-327.74
	7104	14.21	-2.11399E-001	-5.95631E-006	0.00000E+000	-2.10400E-001	-9.45939E-004	8	..........a	0	-327.74
	7136	14.274	-2.14617E-001	-6.30670E-006	0.00000E+000	-2.13600E-001	-9.45939E-004	8	..........a	0	-327.74
	7168	14.338	-2.17796E-001	-6.67250E-006	0.00000E+000	-2.16800E-001	-9.37606E-004	8	..........a	0	-327.74
	7200	14.402	-2.21000E-001	-7.18246E-006	0.00000E+000	-2.20000E-001	-8.95939E-004	8	..........a	0	-327.74
	7232	14.466	-2.24196E-001	-7.46744E-006	0.00000E+000	-2.23200E-001	-8.79272E-004	8	..........a	0	-327.74
	7264	14.53	-2.27395E-001	-8.00490E-006	0.00000E+000	-2.26400E-001	-9.79272E-004	8	..........a	0	-327.74
	7296	14.594	-2.30582E-001	-8.32904E-006	0.00000E+000	-2.29600E-001	-9.20939E-004	8	..........a	0	-327.74
	7328	14.658	-2.33784E-001	-8.80608E-006	0.00000E+000	-2.32800E-001	-9.04272E-004	8	..........a	0	-327.74
	7360	14.722	-2.36979E-001	-9.36854E-006	0.00000E+000	-2.36000E-001	-9.04272E-004	8	..........a	0	-327.74
	7392	14.786	-2.40182E-001	-9.81267E-006	0.00000E+000	-2.39200E-001	-9.62605E-004	8	..........a	0	-327.74
	7424	14.85	-2.43380E-001	-1.02968E-005	0.00000E+000	-2.42400E-001	-9.87605E-004	8	..........a	0	-327.74
	7456	14.914	-2.46582E-001	-1.07226E-005	0.00000E+000	-2.45600E-001	-9.04272E-004	8	..........a	0	-327.74
	7488	14.978	-2.49787E-001	-1.12080E-005	0.00000E+000	-2.48800E-001	-9.12605E-004	8	..........a	0	-327.74
	7520	15.042	-2.52963E-001	-1.17313E-005	0.00000E+000	-2.52000E-001	-9.37606E-004	8	..........a	0	-327.74
	7552	15.106	-2.56169E-001	-1.21929E-005	0.00000E+000	-2.55200E-001	-9.37606E-004	8	..........a	0	-327.74
	7584	15.17	-2.59371E-001	-1.27670E-005	0.00000E+000	-2.58400E-001	-9.62605E-004	8	..........a	0	-327.74
	7616	15.234	-2.62577E-001	-1.31612E-005	0.00000E+000	-2.61600E-001	-9.54272E-004	8	..........a	0	-327.74
	7648	15.298	-2.65773E-001	-1.36182E-005	0.00000E+000	-2.64800E-001	-8.79272E-004	8	..........a	0	-327.74
	7680	15.362	-2.68919E-001	-1.42348E-005	0.00000E+000	-2.68000E-001	-9.62605E-004	8	..........a	0	-327.74
	7712	15.426	-2.72078E-001	-1.46606E-005	0.00000E+000	-2.71200E-001	-8.45939E-004	8	..........a	0	-327.74
	7744	15.49	-2.75286E-001	-1.49789E-005	0.00000E+000	-2.74400E-001	-9.62605E-004	8	..........a	0	-327.74
	7776	15.554	-2.78436E-001	-1.54601E-005	0.00000E+000	-2.77600E-001	-8.95939E-004	8	..........a	0	-327.74
	7808	15.618	-2.81623E-001	-1.58451E-005	0.00000E+000	-2.80800E-001	-9.37606E-004	8	..........a	0	-327.74
	7840	15.682	-2.84819E-001	-1.63717E-005	0.00000E+000	-2.84000E-001	-8.54272E-004	8	..........a	0	-327.74
	7872	15.746	-2.88044E-001	-1.66280E-005	0.00000E+000	-2.87200E-001	-8.70939E-004	8	..........a	0	-327.74
	7904	15.81	-2.91211E-001	-1.72162E-005	0.00000E+000	-2.90400E-001	-9.12605E-004	8	..........a	0	-327.74
	7936	15.874	-2.94544E-001	-1.77054E-005	0.00000E+000	-2.93600E-001	-9.54272E-004	8	..........a	0	-327.74
	7968	15.938	-2.97661E-001	-1.80583E-005	0.00000E+000	-2.96800E-001	-9.45939E-004	8	..........a	0	-327.74
	8000	16.002	-3.00865E-001	-1.82999E-005	0.00000E+000	-3.00000E-001	-9.37606E-004	8	..........a	0	-327.74
	8032	16.066	-3.04073E-001	-1.88069E-005	0.00000E+000	-3.03200E-001	-8.54272E-004	8	..........a	0	-327.74
	8064	16.13	-3.07248E-001	-1.92344E-005	0.00000E+000	-3.06400E-001	-9.12605E-004	8	..........a	0	-327.74
	8096	16.194	-3.10428E-001	-1.95698E-005	0.00000E+000	-3.09600E-001	-9.45939E-004	8	..........a	0	-327.74
	8128	16.258	-3.13665E-001	-1.98748E-005	0.00000E+000	-3.12800E-001	-9.45939E-004	8	..........a	0	-327.74
	8160	16.322	-3.16807E-001	-2.02718E-005	0.00000E+000	-3.16000E-001	-9.20939E-004	8	..........a	0	-327.74
	8192	16.386	-3.20069E-001	-2.06997E-005	0.00000E+000	-3.19200E-001	-9.62605E-004	8	..........a	0	-327.74
	8224	16.45	-3.23253E-001	-2.08843E-005	0.00000E+000	-3.22400E-001	-8.37606E-004	8	..........a	0	-327.74
	8256	16.514	-3.26428E-001	-2.12059E-005	0.00000E+000	-3.25600E-001	-9.62605E-004	8	..........a	0	-327.74
	8288	16.578	-3.29653E-001	-2.16080E-005	0.00000E+000	-3.28800E-001	-9.29272E-004	8	..........a	0	-327.74
	8320	16.642	-3.32815E-001	-2.18988E-005	0.00000E+000	-3.32000E-001	-9.70939E-004	8	..........a	0	-327.74
	8352	16.706	-3.36019E-001	-2.23387E-005	0.00000E+000	-3.35200E-001	-9.45939E-004	8	..........a	0	-327.74
	8384	16.77	-3.39207E-001	-2.26971E-005	0.00000E+000	-3.38400E-001	-8.87605E-004	8	..........a	0	-327.74
	8416	16.834	-3.42419E-001	-2.29516E-005	0.00000E+000	-3.41600E-001	-8.87605E-004	8	..........a	0	-327.74
	8448	16.898	-3.45669E-001	-2.33374E-005	0.00000E+000	-3.44800E-001	-9.62605E-004	8	..........a	0	-327.74
	8480	16.962	-3.48828E-001	-2.35374E-005	0.00000E+000	-3.48000E-001	-9.62605E-004	8	..........a	0	-327.74
	8512	17.026	-3.52065E-001	-2.39315E-005	0.00000E+000	-3.51200E-001	-9.12605E-004	8	..........a	0	-327.74
	8544	17.09	-3.55265E-001	-2.42694E-005	0.00000E+000	-3.54400E-001	-8.45939E-004	8	..........a	0	-327.74
	8576	17.154	-3.58423E-001	-2.45098E-005	0.00000E+000	-3.57600E-001	-9.20939E-004	8	..........a	0	-327.74
	8608	17.218	-3.61640E-001	-2.47548E-005	0.00000E+000	-3.60800E-001	-9.54272E-004	8	..........a	0	-327.74
	8640	17.282	-3.64803E-001	-2.51681E-005	0.00000E+000	-3.64000E-001	-9.79272E-004	8	..........a	0	-327.74
	8672	17.346	-3.67990E-001	-2.53727E-005	0.00000E+000	-3.67200E-001	-9.45939E-004	8	..........a	0	-327.74
	8704	17.41	-3.71278E-001	-2.56914E-005	0.00000E+000	-3.70400E-001	-9.20939E-004	8	..........a	0	-327.74
	8736	17.474	-3.74457E-001	-2.59585E-005	0.00000E+000	-3.73600E-001	-9.37606E-004	8	..........a	0	-327.74
	8768	17.538	-3.77669E-001	-2.63326E-005	0.00000E+000	-3.76800E-001	-9.37606E-004	8	..........a	0	-327.74
	8800	17.602	-3.80857E-001	-2.69059E-005	0.00000E+000	-3.80000E-001	-9.20939E-004	8	..........a	0	-327.74
	8832	17.666	-3.84028E-001	-2.73938E-005	0.00000E+000	-3.83200E-001	-9.20939E-004	8	..........a	0	-327.74
	8864	17.73	-3.87215E-001	-2.79754E-005	0.00000E+000	-3.86400E-001	-8.54272E-004	8	..........a	0	-327.74
	8896	17.794	-3.90419E-001	-2.86466E-005	0.00000E+000	-3.89600E-001	-9.29272E-004	8	..........a	0	-327.74
	8928	17.858	-3.93644E-001	-2.93278E-005	0.00000E+000	-3.92800E-001	-9.62605E-004	8	..........a	0	-327.74
	8960	17.922	-3.96848E-001	-3.01085E-005	0.00000E+000	-3.96000E-001	-8.95939E-004	8	..........a	0	-327.74
	8992	17.986	-4.00057E-001	-3.06585E-005	0.00000E+000	-3.99200E-001	-9.37606E-004	8	..........a	0	-327.74
	9024	18.05	-4.03215E-001	-3.16013E-005	0.00000E+000	-4.02400E-001	-9.20939E-004	8	..........a	0	-327.74
	9056	18.114	-4.06419E-001	-3.24758E-005	0.00000E+000	-4.05600E-001	-9.20939E-004	8	..........a	0	-327.74
	9088	18.178	-4.09607E-001	-3.36149E-005	0.00000E+000	-4.08800E-001	-9.20939E-004	8	..........a	0	-327.74
	9120	18.242	-4.12803E-001	-3.48173E-005	0.00000E+000	-4.12000E-001	-9.12605E-004	8	..........a	0	-327.74
	9152	18.306	-4.16019E-001	-3.62076E-005	0.00000E+000	-4.15200E-001	-9.04272E-004	8	..........a	0	-327.74
	9184	18.37	-4.19182E-001	-3.74300E-005	0.00000E+000	-4.18400E-001	-9.37606E-004	8	..........a	0	-327.74
	9216	18.434	-4.22386E-001	-3.90220E-005	0.00000E+000	-4.21600E-001	-9.12605E-004	8	..........a	0	-327.74
	9248	18.498	-4.25619E-001	-4.05944E-005	0.00000E+000	-4.24800E-001	-9.70939E-004	8	..........a	0	-327.74
	9280	18.562	-4.28823E-001	-4.21676E-005	0.00000E+000	-4.28000E-001	-8.45939E-004	8	..........a	0	-327.74
	9312	18.626	-4.32011E-001	-4.36987E-005	0.00000E+000	-4.31200E-001	-9.29272E-004	8	..........a	0	-327.74
	9344	18.69	-4.35211E-001	-4.54661E-005	0.00000E+000	-4.34400E-001	-9.20939E-004	8	..........a	0	-327.74
	9376	18.754	-4.38398E-001	-4.72259E-005	0.00000E+000	-4.37600E-001	-9.70939E-004	8	..........a	0	-327.74
	9408	18.818	-4.41598E-001	-4.89033E-005	0.00000E+000	-4.40800E-001	-9.62605E-004	8	..........a	0	-327.74
	9440	18.882	-4.44790E-001	-5.07173E-005	0.00000E+000	-4.44000E-001	-9.87605E-004	8	..........a	0	-327.74
	9472	18.946	-4.48011E-001	-5.28130E-005	0.00000E+000	-4.47200E-001	-9.87605E-004	8	..........a	0	-327.74
	9504	19.01	-4.51178E-001	-5.47328E-005	0.00000E+000	-4.50400E-001	-9.79272E-004	8	..........a	0	-327.74
	9536	19.074	-4.54394E-001	-5.68839E-005	0.00000E+000	-4.53600E-001	-9.95939E-004	8	..........a	0	-327.74
	9568	19.138	-4.57590E-001	-5.89091E-005	0.00000E+000	-4.56800E-001	-9.12605E-004	8	..........a	0	-327.74
	9600	19.202	-4.60765E-001	-6.15119E-005	0.00000E+000	-4.60000E-001	-9.20939E-004	8	..........a	0	-327.74
	9632	19.266	-4.63990E-001	-6.39287E-005	0.00000E+000	-4.63200E-001	-9.29272E-004	8	..........a	0	-327.74
	9664	19.33	-4.67157E-001	-6.65015E-005	0.00000E+000	-4.66400E-001	-8.87605E-004	8	..........a	0	-327.74
	9696	19.394	-4.70386E-001	-6.91662E-005	0.00000E+000	-4.69600E-001	-9.54272E-004	8	..........a	0	-327.74
	9728	19.458	-4.73586E-001	-7.19118E-005	0.00000E+000	-4.72800E-001	-1.00427E-003	8	..........a	0	-327.74
	9760	19.522	-4.76782E-001	-7.47341E-005	0.00000E+000	-4.76000E-001	-8.87605E-004	8	..........a	0	-327.74
	9792	19.586	-4.79994E-001	-7.77522E-005	0.00000E+000	-4.79200E-001	-9.62605E-004	8	..........a	0	-327.74
	9824	19.65	-4.83165E-001	-8.07461E-005	0.00000E+000	-4.82400E-001	-8.87605E-004	8	..........a	0	-327.74
	9856	19.714	-4.86348E-001	-8.38584E-005	0.00000E+000	-4.85600E-001	-8.79272E-004	8	..........a	0	-327.74
	9888	19.778	-4.89565E-001	-8.73381E-005	0.00000E+000	-4.88800E-001	-9.62605E-004	8	..........a	0	-327.74
	9920	19.842	-4.92744E-001	-9.08662E-005	0.00000E+000	-4.92000E-001	-9.62605E-004	8	..........a	0	-327.74
	9952	19.906	-4.95965E-001	-9.46371E-005	0.00000E+000	-4.95200E-001	-9.54272E-004	8	..........a	0	-327.74
	9984	19.97	-4.99119E-001	-9.86014E-005	0.00000E+000	-4.98400E-001	-9.45939E-004	8	..........a	0	-327.74
	10016	20.034	-5.02336E-001	-1.02700E-004	0.00000E+000	-5.01600E-001	-9.37606E-004	8	..........a	0	-327.74
	10048	20.098	-5.05532E-001	-1.06964E-004	0.00000E+000	-5.04800E-001	-9.70939E-004	8	..........a	0	-327.74
	10080	20.162	-5.08761E-001	-1.11518E-004	0.00000E+000	-5.08000E-001	-9.20939E-004	8	..........a	0	-327.74
	10112	20.226	-5.11936E-001	-1.16488E-004	0.00000E+000	-5.11200E-001	-9.04272E-004	8	..........a	0	-327.74
	10144	20.29	-5.15132E-001	-1.21661E-004	0.00000E+000	-5.14400E-001	-8.95939E-004	8	..........a	0	-327.74
	10176	20.354	-5.18328E-001	-1.27066E-004	0.00000E+000	-5.17600E-001	-9.20939E-004	8	..........a	0	-327.74
	10208	20.418	-5.21515E-001	-1.32528E-004	0.00000E+000	-5.20800E-001	-9.54272E-004	8	..........a	0	-327.74
	10240	20.482	-5.24694E-001	-1.38356E-004	0.00000E+000	-5.24000E-001	-8.70939E-004	8	..........a	0	-327.74
	10272	20.546	-5.27857E-001	-1.44298E-004	0.00000E+000	-5.27200E-001	-9.79272E-004	8	..........a	0	-327.74
	10304	20.61	-5.31123E-001	-1.50852E-004	0.00000E+000	-5.30400E-001	-9.20939E-004	8	..........a	0	-327.74
	10336	20.674	-5.34269E-001	-1.57348E-004	0.00000E+000	-5.33600E-001	-9.54272E-004	8	..........a	0	-327.74
	10368	20.738	-5.37448E-001	-1.63782E-004	0.00000E+000	-5.36800E-001	-9.62605E-004	8	..........a	0	-327.74
	10400	20.802	-5.40603E-001	-1.70439E-004	0.00000E+000	-5.40000E-001	-9.04272E-004	8	..........a	0	-327.74
	10432	20.866	-5.43915E-001	-1.77099E-004	0.00000E+000	-5.43200E-001	-9.04272E-004	8	..........a	0	-327.74
	10464	20.93	-5.47044E-001	-1.83352E-004	0.00000E+000	-5.46400E-001	-8.95939E-004	8	..........a	0	-327.74
	10496	20.994	-5.50007E-001	-1.89615E-004	0.00000E+000	-5.49600E-001	-9.37606E-004	8	..........a	0	-327.74
	10528	21.058	-5.53344E-001	-1.95801E-004	0.00000E+000	-5.52800E-001	-9.70939E-004	8	..........a	0	-327.74
	10560	21.122	-5.56578E-001	-2.01347E-004	0.00000E+000	-5.56000E-001	-9.45939E-004	8	..........a	0	-327.74
	10592	21.186	-5.59728E-001	-2.07039E-004	0.00000E+000	-5.59200E-001	-9.29272E-004	8	..........a	0	-327.74
	10624	21.25	-5.62973E-001	-2.12421E-004	0.00000E+000	-5.62400E-001	-9.54272E-004	8	..........a	0	-327.74
	10656	21.314	-5.66107E-001	-2.17351E-004	0.00000E+000	-5.65600E-001	-9.37606E-004	8	..........a	0	-327.74
	10688	21.378	-5.69286E-001	-2.22376E-004	0.00000E+000	-5.68800E-001	-9.87605E-004	8	..........a	0	-327.74
	10720	21.442	-5.72611E-001	-2.27154E-004	0.00000E+000	-5.72000E-001	-9.12605E-004	8	..........a	0	-327.74
	10752	21.506	-5.75519E-001	-2.31242E-004	0.00000E+000	-5.75200E-001	-9.45939E-004	8	..........a	0	-327.74
	10784	21.57	-5.78940E-001	-2.35686E-004	0.00000E+000	-5.78400E-001	-9.54272E-004	8	..........a	0	-327.74
	10816	21.634	-5.82169E-001	-2.39538E-004	0.00000E+000	-5.81600E-001	-9.37606E-004	8	..........a	0	-327.74
	10848	21.698	-5.85215E-001	-2.43064E-004	0.00000E+000	-5.84800E-001	-9.04272E-004	8	..........a	0	-327.74
	10880	21.762	-5.88453E-001	-2.46729E-004	0.00000E+000	-5.88000E-001	-9.37606E-004	8	..........a	0	-327.74
	10912	21.826	-5.91623E-001	-2.49213E-004	0.00000E+000	-5.91200E-001	-9.45939E-004	8	..........a	0	-327.74
	10944	21.89	-5.94844E-001	-2.52380E-004	0.00000E+000	-5.94400E-001	-9.45939E-004	8	..........a	0	-327.74
	10976	21.954	-5.98048E-001	-2.54787E-004	0.00000E+000	-5.97600E-001	-9.62605E-004	8	..........a	0	-327.74
	11008	22.018	-6.01057E-001	-2.56270E-004	0.00000E+000	-6.00800E-001	-9.29272E-004	8	..........a	0	-327.74
	11040	22.082	-6.04515E-001	-2.58190E-004	0.00000E+000	-6.04000E-001	-9.29272E-004	8	..........a	0	-327.74
	11072	22.146	-6.07665E-001	-2.59189E-004	0.00000E+000	-6.07200E-001	-9.79272E-004	8	..........a	0	-327.74
	11104	22.21	-6.10832E-001	-2.60328E-004	0.00000E+000	-6.10400E-001	-9.04272E-004	8	..........a	0	-327.74
	11136	22.274	-6.13998E-001	-2.61110E-004	0.00000E+000	-6.13600E-001	-9.45939E-004	8	..........a	0	-327.74
	11168	22.338	-6.17115E-001	-2.61929E-004	0.00000E+000	-6.16800E-001	-9.70939E-004	8	..........a	0	-327.74
	11200	22.402	-6.20361E-001	-2.62104E-004	0.00000E+000	-6.20000E-001	-9.54272E-004	8	..........a	0	-327.74
	11232	22.466	-6.23573E-001	-2.63501E-004	0.00000E+000	-6.23200E-001	-9.20939E-004	8	..........a	0	-327.74
	11264	22.53	-6.26678E-001	-2.64136E-004	0.00000E+000	-6.26400E-001	-9.70939E-004	8	..........a	0	-327.74
	11296	22.594	-6.30061E-001	-2.64572E-004	0.00000E+000	-6.29600E-001	-9.12605E-004	8	..........a	0	-327.74
	11328	22.658	-6.33232E-001	-2.65814E-004	0.00000E+000	-6.32800E-001	-8.95939E-004	8	..........a	0	-327.74
	11360	22.722	-6.36411E-001	-2.66180E-004	0.00000E+000	-6.36000E-001	-9.87605E-004	8	..........a	0	-327.74
	11392	22.786	-6.39921E-001	-2.67466E-004	0.00000E+000	-6.39200E-001	-8.62605E-004	9	..........a	0	-327.74
	11424	22.85	-6.43129E-001	-2.68127E-004	0.00000E+000	-6.42400E-001	-9.20939E-004	9	..........a	0	-327.74
	11456	22.914	-6.46333E-001	-2.68269E-004	0.00000E+000	-6.45600E-001	-9.62605E-004	9	..........a	0	-327.74
	11488	22.978	-6.49512E-001	-2.69535E-004	0.00000E+000	-6.48800E-001	-9.04272E-004	9	..........a	0	-327.74
	11520	23.042	-6.52708E-001	-2.69944E-004	0.00000E+000	-6.52000E-001	-9.12605E-004	9	..........a	0	-327.74
	11552	23.106	-6.55937E-001	-2.70011E-004	0.00000E+000	-6.55200E-001	-8.45939E-004	9	..........a	0	-327.74
	11584	23.17	-6.59129E-001	-2.70847E-004	0.00000E+000	-6.58400E-001	-8.62605E-004	9	..........a	0	-327.74
	11616	23.234	-6.62312E-001	-2.70859E-004	0.00000E+000	-6.61600E-001	-8.70939E-004	9	..........a	0	-327.74
	11648	23.298	-6.65554E-001	-2.70329E-004	0.00000E+000	-6.64800E-001	-9.12605E-004	9	..........a	0	-327.74
	11680	23.362	-6.68737E-001	-2.71093E-004	0.00000E+000	-6.68000E-001	-8.20939E-004	9	..........a	0	-327.74
	11712	23.426	-6.71946E-001	-2.71152E-004	0.00000E+000	-6.71200E-001	-8.62605E-004	9	..........a	0	-327.74
	11744	23.49	-6.75129E-001	-2.71524E-004	0.00000E+000	-6.74400E-001	-9.04272E-004	9	..........a	0	-327.74
	11776	23.554	-6.78308E-001	-2.72284E-004	0.00000E+000	-6.77600E-001	-8.62605E-004	9	..........a	0	-327.74
	11808	23.618	-6.81562E-001	-2.71879E-004	0.00000E+000	-6.80800E-001	-9.37606E-004	9	..........a	0	-327.74
	11840	23.682	-6.84708E-001	-2.72548E-004	0.00000E+000	-6.84000E-001	-8.45939E-004	9	..........a	0	-327.74
	11872	23.746	-6.87954E-001	-2.72205E-004	0.00000E+000	-6.87200E-001	-8.87605E-004	9	..........a	0	-327.74
	11904	23.81	-6.91108E-001	-2.72451E-004	0.00000E+000	-6.90400E-001	-9.12605E-004	9	..........a	0	-327.74
	11936	23.874	-6.94317E-001	-2.72435E-004	0.00000E+000	-6.93600E-001	-8.45939E-004	9	..........a	0	-327.74
	11968	23.938	-6.97483E-001	-2.72531E-004	0.00000E+000	-6.96800E-001	-8.87605E-004	9	..........a	0	-327.74
	12000	24.002	-7.00729E-001	-2.72418E-004	0.00000E+000	-7.00000E-001	-8.45939E-004	9	..........a	0	-327.74
	12032	24.066	-7.03862E-001	-2.72974E-004	0.00000E+000	-7.03200E-001	-8.95939E-004	9	..........a	0	-327.74
	12064	24.13	-7.07108E-001	-2.73396E-004	0.00000E+000	-7.06400E-001	-8.87605E-004	9	..........a	0	-327.74
	12096	24.194	-7.10337E-001	-2.73258E-004	0.00000E+000	-7.09600E-001	-8.20939E-004	9	..........a	0	-327.74
	12128	24.258	-7.13487E-001	-2.74102E-004	0.00000E+000	-7.12800E-001	-8.70939E-004	9	..........a	0	-327.74
	12160	24.322	-7.16692E-001	-2.74177E-004	0.00000E+000	-7.16000E-001	-9.04272E-004	9	..........a	0	-327.74
	12192	24.386	-7.19900E-001	-2.74240E-004	0.00000E+000	-7.19200E-001	-9.04272E-004	9	..........a	0	-327.74
	12224	24.45	-7.23142E-001	-2.74942E-004	0.00000E+000	-7.22400E-001	-8.62605E-004	9	..........a	0	-327.74
	12256	24.514	-7.26308E-001	-2.74950E-004	0.00000E+000	-7.25600E-001	-8.29272E-004	9	..........a	0	-327.74
	12288	24.578	-7.29425E-001	-2.74913E-004	0.00000E+000	-7.28800E-001	-8.70939E-004	9	..........a	0	-327.74
	12320	24.642	-7.32725E-001	-2.75046E-004	0.00000E+000	-7.32000E-001	-9.12605E-004	9	..........a	0	-327.74
	12352	24.706	-7.35933E-001	-2.74704E-004	0.00000E+000	-7.35200E-001	-8.45939E-004	9	..........a	0	-327.74
	12384	24.77	-7.39092E-001	-2.75051E-004	0.00000E+000	-7.38400E-001	-9.29272E-004	9	..........a	0	-327.74
	12416	24.834	-7.42312E-001	-2.75586E-004	0.00000E+000	-7.41600E-001	-8.95939E-004	9	..........a	0	-327.74
	12448	24.898	-7.45508E-001	-2.74938E-004	0.00000E+000	-7.44800E-001	-9.20939E-004	9	..........a	0	-327.74
	12480	24.962	-7.48704E-001	-2.75410E-004	0.00000E+000	-7.48000E-001	-8.45939E-004	9	..........a	0	-327.74
	12512	25.026	-7.51954E-001	-2.75184E-004	0.00000E+000	-7.51200E-001	-9.20939E-004	9	..........a	0	-327.74
	12544	25.09	-7.55108E-001	-2.75109E-004	0.00000E+000	-7.54400E-001	-8.95939E-004	9	..........a	0	-327.74
	12576	25.154	-7.58287E-001	-2.75598E-004	0.00000E+000	-7.57600E-001	-8.95939E-004	9	..........a	0	-327.74
	12608	25.218	-7.61525E-001	-2.75134E-004	0.00000E+000	-7.60800E-001	-8.95939E-004	9	..........a	0	-327.74
	12640	25.282	-7.64742E-001	-2.75895E-004	0.00000E+000	-7.64000E-001	-8.45939E-004	9	..........a	0	-327.74
	12672	25.346	-7.67871E-001	-2.76367E-004	0.00000E+000	-7.67200E-001	-9.29272E-004	9	..........a	0	-327.74
	12704	25.41	-7.71083E-001	-2.75682E-004	0.00000E+000	-7.70400E-001	-8.79272E-004	9	..........a	0	-327.74
	12736	25.474	-7.74262E-001	-2.75895E-004	0.00000E+000	-7.73600E-001	-8.87605E-004	9	..........a	0	-327.74
	12768	25.538	-7.77554E-001	-2.75865E-004	0.00000E+000	-7.76800E-001	-9.29272E-004	9	..........a	0	-327.74
	12800	25.602	-7.80612E-001	-2.75013E-004	0.00000E+000	-7.80000E-001	-8.62605E-004	9	..........a	0	-327.74
	12832	25.666	-7.83908E-001	-2.75030E-004	0.00000E+000	-7.83200E-001	-8.79272E-004	9	..........a	0	-327.74
	12864	25.73	-7.87117E-001	-2.74888E-004	0.00000E+000	-7.86400E-001	-8.54272E-004	9	..........a	0	-327.74
	12896	25.794	-7.90262E-001	-2.74315E-004	0.00000E+000	-7.89600E-001	-8.70939E-004	9	..........a	0	-327.74
	12928	25.858	-7.93508E-001	-2.75180E-004	0.00000E+000	-7.92800E-001	-8.95939E-004	9	..........a	0	-327.74
	12960	25.922	-7.96604E-001	-2.75118E-004	0.00000E+000	-7.96000E-001	-9.12605E-004	9	..........a	0	-327.74
	12992	25.986	-7.99912E-001	-2.75385E-004	0.00000E+000	-7.99200E-001	-8.70939E-004	9	..........a	0	-327.74
	13024	26.05	-8.03112E-001	-2.75586E-004	0.00000E+000	-8.02400E-001	-8.62605E-004	9	..........a	0	-327.74
	13056	26.114	-8.06254E-001	-2.74629E-004	0.00000E+000	-8.05600E-001	-8.70939E-004	9	..........a	0	-327.74
	13088	26.178	-8.09525E-001	-2.75088E-004	0.00000E+000	-8.08800E-001	-8.87605E-004	9	..........a	0	-327.74
	13120	26.242	-8.12679E-001	-2.74716E-004	0.00000E+000	-8.12000E-001	-9.29272E-004	9	..........a	0	-327.74
	13152	26.306	-8.15917E-001	-2.74278E-004	0.00000E+000	-8.15200E-001	-8.54272E-004	9	..........a	0	-327.74
	13184	26.37	-8.19029E-001	-2.74775E-004	0.00000E+000	-8.18400E-001	-8.54272E-004	9	..........a	0	-327.74
	13216	26.434	-8.22254E-001	-2.74875E-004	0.00000E+000	-8.21600E-001	-8.70939E-004	9	..........a	0	-327.74
	13248	26.498	-8.25437E-001	-2.74658E-004	0.00000E+000	-8.24800E-001	-9.12605E-004	9	..........a	0	-327.74
	13280	26.562	-8.28608E-001	-2.75703E-004	0.00000E+000	-8.28000E-001	-9.04272E-004	9	..........a	0	-327.74
	13312	26.626	-8.31696E-001	-2.75845E-004	0.00000E+000	-8.31200E-001	-8.70939E-004	9	..........a	0	-327.74
	13344	26.69	-8.35004E-001	-2.75978E-004	0.00000E+000	-8.34400E-001	-8.54272E-004	9	..........a	0	-327.74
	13376	26.754	-8.38221E-001	-2.76430E-004	0.00000E+000	-8.37600E-001	-8.70939E-004	9	..........a	0	-327.74
	13408	26.818	-8.41425E-001	-2.76166E-004	0.00000E+000	-8.40800E-001	-8.54272E-004	9	..........a	0	-327.74
	13440	26.882	-8.44554E-001	-2.75953E-004	0.00000E+000	-8.44000E-001	-8.79272E-004	9	..........a	0	-327.74
	13472	26.946	-8.47750E-001	-2.76108E-004	0.00000E+000	-8.47200E-001	-8.20939E-004	9	..........a	0	-327.74
	13504	27.01	-8.50929E-001	-2.75598E-004	0.00000E+000	-8.50400E-001	-9.12605E-004	9	..........a	0	-327.74
	13536	27.074	-8.54208E-001	-2.76049E-004	0.00000E+000	-8.53600E-001	-8.04272E-004	9	..........a	0	-327.74
	13568	27.138	-8.57267E-001	-2.76125E-004	0.00000E+000	-8.56800E-001	-9.12605E-004	9	..........a	0	-327.74
	13600	27.202	-8.60583E-001	-2.76237E-004	0.00000E+000	-8.60000E-001	-8.20939E-004	9	..........a	0	-327.74
	13632	27.266	-8.63800E-001	-2.76751E-004	0.00000E+000	-8.63200E-001	-8.79272E-004	9	..........a	0	-327.74
	13664	27.33	-8.67029E-001	-2.76196E-004	0.00000E+000	-8.66400E-001	-8.87605E-004	9	..........a	0	-327.74
	13696	27.394	-8.70200E-001	-2.75790E-004	0.00000E+000	-8.69600E-001	-8.54272E-004	9	..........a	0	-327.74
	13728	27.458	-8.73358E-001	-2.76221E-004	0.00000E+000	-8.72800E-001	-8.87605E-004	9	..........a	0	-327.74
	13760	27.522	-8.76662E-001	-2.76262E-004	0.00000E+000	-8.76000E-001	-8.70939E-004	9	..........a	0	-327.74
	13792	27.586	-8.79879E-001	-2.76906E-004	0.00000E+000	-8.79200E-001	-8.37606E-004	9	..........a	0	-327.74
	13824	27.65	-8.82854E-001	-2.77871E-004	0.00000E+000	-8.82400E-001	-8.95939E-004	9	..........a	0	-327.74
	13856	27.714	-8.86154E-001	-2.77299E-004	0.00000E+000	-8.85600E-001	-8.20939E-004	9	..........a	0	-327.74
	13888	27.778	-8.89354E-001	-2.77892E-004	0.00000E+000	-8.88800E-001	-8.95939E-004	9	..........a	0	-327.74
	13920	27.842	-8.92608E-001	-2.78302E-004	0.00000E+000	-8.92000E-001	-8.45939E-004	9	..........a	0	-327.74
	13952	27.906	-8.95779E-001	-2.77370E-004	0.00000E+000	-8.95200E-001	-9.20939E-004	9	..........a	0	-327.74
	13984	27.97	-8.99012E-001	-2.77972E-004	0.00000E+000	-8.98400E-001	-8.87605E-004	9	..........a	0	-327.74
	14016	28.034	-9.02204E-001	-2.78573E-004	0.00000E+000	-9.01600E-001	-8.87605E-004	9	..........a	0	-327.74
	14048	28.098	-9.05404E-001	-2.78444E-004	0.00000E+000	-9.04800E-001	-8.70939E-004	9	..........a	0	-327.74
	14080	28.162	-9.08450E-001	-2.78590E-004	0.00000E+000	-9.08000E-001	-8.70939E-004	9	..........a	0	-327.74
	14112	28.226	-9.11808E-001	-2.78648E-004	0.00000E+000	-9.11200E-001	-8.70939E-004	9	..........a	0	-327.74
	14144	28.29	-9.14950E-001	-2.77896E-004	0.00000E+000	-9.14400E-001	-8.70939E-004	9	..........a	0	-327.74
	14176	28.354	-9.18129E-001	-2.78661E-004	0.00000E+000	-9.17600E-001	-8.79272E-004	9	..........a	0	-327.74
	14208	28.418	-9.21412E-001	-2.78410E-004	0.00000E+000	-9.20800E-001	-8.20939E-004	9	..........a	0	-327.74
	14240	28.482	-9.24517E-001	-2.77758E-004	0.00000E+000	-9.24000E-001	-8.95939E-004	9	..........a	0	-327.74
	14272	28.546	-9.27717E-001	-2.78494E-004	0.00000E+000	-9.27200E-001	-8.70939E-004	9	..........a	0	-327.74
	14304	28.61	-9.31058E-001	-2.78423E-004	0.00000E+000	-9.30400E-001	-8.45939E-004	9	..........a	0	-327.74
	14336	28.674	-9.34008E-001	-2.78506E-004	0.00000E+000	-9.33600E-001	-8.29272E-004	9	..........a	0	-327.74
	14368	28.738	-9.37396E-001	-2.78385E-004	0.00000E+000	-9.36800E-001	-8.45939E-004	9	..........a	0	-327.74
	14400	28.802	-9.40550E-001	-2.77257E-004	0.00000E+000	-9.40000E-001	-8.45939E-004	9	..........a	0	-327.74
	14432	28.866	-9.43775E-001	-2.77416E-004	0.00000E+000	-9.43200E-001	-8.20939E-004	9	..........a	0	-327.74
	14464	28.93	-9.46900E-001	-2.77336E-004	0.00000E+000	-9.46400E-001	-9.12605E-004	9	..........a	0	-327.74
	14496	28.994	-9.50058E-001	-2.77278E-004	0.00000E+000	-9.49600E-001	-9.20939E-004	9	..........a	0	-327.74
	14528	29.058	-9.53287E-001	-2.78728E-004	0.00000E+000	-9.52800E-001	-8.79272E-004	9	..........a	0	-327.74
	14560	29.122	-9.56542E-001	-2.78694E-004	0.00000E+000	-9.56000E-001	-8.04272E-004	9	..........a	0	-327.74
	14592	29.186	-9.59554E-001	-2.79004E-004	0.00000E+000	-9.59200E-001	-8.45939E-004	9	..........a	0	-327.74
	14624	29.25	-9.62929E-001	-2.79484E-004	0.00000E+000	-9.62400E-001	-8.04272E-004	9	..........a	0	-327.74
	14656	29.314	-9.66121E-001	-2.79342E-004	0.00000E+000	-9.65600E-001	-9.04272E-004	9	..........a	0	-327.74
	14688	29.378	-9.69354E-001	-2.79233E-004	0.00000E+000	-9.68800E-001	-9.04272E-004	9	..........a	0	-327.74
	14720	29.442	-9.72575E-001	-2.80186E-004	0.00000E+000	-9.72000E-001	-8.87605E-004	9	..........a	0	-327.74
	14752	29.506	-9.75683E-001	-2.80119E-004	0.00000E+000	-9.75200E-001	-8.29272E-004	9	..........a	0	-327.74
	14784	29.57	-9.78862E-001	-2.80245E-004	0.00000E+000	-9.78400E-001	-8.54272E-004	9	..........a	0	-327.74
	14816	29.634	-9.82237E-001	-2.80307E-004	0.00000E+000	-9.81600E-001	-9.04272E-004	9	..........a	0	-327.74
	14848	29.698	-9.85225E-001	-2.79518E-004	0.00000E+000	-9.84800E-001	-7.95939E-004	9	..........a	0	-327.74
	14880	29.762	-9.88542E-001	-2.79309E-004	0.00000E+000	-9.88000E-001	-8.54272E-004	9	..........a	0	-327.74
	14912	29.826	-9.91692E-001	-2.79484E-004	0.00000E+000	-9.91200E-001	-8.54272E-004	9	..........a	0	-327.74
	14944	29.89	-9.94917E-001	-2.79129E-004	0.00000E+000	-9.94400E-001	-9.12605E-004	9	..........a	0	-327.74
	14976	29.954	-9.98096E-001	-2.79827E-004	0.00000E+000	-9.97600E-001	-9.20939E-004	9	..........a	0	-327.74
	15000	30.002	-1.00030E+000	-2.79296E-004	0.00000E+000	-1.00000E+000	-8.87605E-004	9	..........a	0	-327.74