File: data/02-SI/Figures_S9_S11_RDE/15btmapaq-rde/1mkcl-15btmapaq-nitrogen-600mvpers.DTA
EXPLAIN
TAG	CV
TITLE	LABEL	Cyclic Voltammetry	Test &Identifier
DATE	LABEL	1/31/2023	Date
TIME	LABEL	18:19:08	Time
NOTES	NOTES	1	&Notes...

PSTAT	PSTAT	REF3000-21108	Potentiostat
VINIT	POTEN	5.00000E-001	F	Initial &E (V)
VLIMIT1	POTEN	-1.00000E+000	F	Scan Limit &1 (V)
VLIMIT2	POTEN	5.00000E-001	F	Scan Limit &2 (V)
VFINAL	POTEN	5.00000E-001	F	Final &E (V)
SCANRATE	QUANT	5.99999E+002	&Scan Rate (mV/s)
STEPSIZE	QUANT	1.00000E+000	St&ep Size (mV)
CYCLES	IQUANT	1	C&ycles (#)
IMODE	SELECTOR	1	I/E Range &Mode
IRANGE	QUANT	1.00000E+001	&Max Current (mA)
AREA	QUANT	1.00000E+000	Electrode &Area (cm^2)
ELECTRODETYPE	SELECTOR	0	Electrode Type
STRIPPING	TOGGLE	F	Used for Stripping
POLARITY	TOGGLE	F	Signal Polarity
CONDIT	TWOPARAM	F	1.50000E+001	0.00000E+000	Conditionin&g	Time(s)	E(V)
DELAY	TWOPARAM	F	5.00000E+000	0.00000E+000	Init. De&lay	Time(s)	Stab.(mV/s)
EQDELAY	QUANT	0.00000E+000	Equil. &Time (s)
IRCOMP	SELECTOR	0	IRCom&p
PFCOR	QUANT	5.00000E+001	PF Corr. (ohm)
SAMPLINGMODE	SELECTOR	1	Sampling &Mode
EOC	QUANT	0	Open Circuit (V)
PSTATMODEL	IQUANT	5	Pstat Model
PSTATSECTION	LABEL	REF3000-21108	Pstat Section
PSTATSERIALNO	LABEL	21108	Pstat Serial Number
CTRLMODE	IQUANT	1	Control Mode
ELECTROMETER	IQUANT	0	RE=0 or CS=1
IESTAB	IQUANT	2	I/E Stability
CASPEED	IQUANT	4	Control Amp Speed
CONVENTION	IQUANT	1	Current Convention
ICHRANGE	IQUANT	2	Ich Range
ICHRANGEMODE	TOGGLE	F	Ich Auto Range
ICHOFFSETENABLE	TOGGLE	F	Ich Offset Enable
ICHOFFSET	QUANT	0	Ich Offset (V)
ICHFILTER	IQUANT	1	Ich Filter
VCHRANGE	IQUANT	2	Vch Range
VCHRANGEMODE	TOGGLE	F	Vch Auto Range
VCHOFFSETENABLE	TOGGLE	F	Vch Offset Enable
VCHOFFSET	QUANT	0	Vch Offset (V)
VCHFILTER	IQUANT	1	Vch Filter
ACHRANGE	IQUANT	2	Ach Range
ACHOFFSETENABLE	TOGGLE	F	Ach Offset Enable
ACHOFFSET	QUANT	0	Ach Offset (V)
ACHFILTER	IQUANT	0	Ach Filter
IERANGELOWERLIMIT	IQUANT	2	I/E Range Lower Limit
IERANGEMODE	TOGGLE	F	I/E AutoRange
IERANGE	IQUANT	10	I/E Range
POSFEEDENABLE	TOGGLE	F	Positive Feedback IR Comp
POSFEEDRESISTANCE	QUANT	0	Positive Feedback Resistance (ohm)
ACHSELECT	IQUANT	0	Ach Select
SENSECABLEID	IQUANT	14	Sense Cable ID
PWRCABLEID	IQUANT	7	Power Cable ID
DCCALDATE	LABEL	11/9/2022	DC Calibration Date
ACCALDATE	LABEL	11/9/2022	AC Calibration Date
THERMOSELECT	IQUANT	1	Thermo Select
FRAMEWORKVERSION	LABEL	7.8.2	Framework Version
INSTRUMENTVERSION	LABEL	4.40	Instrument Version
COMPLIANCEVOLTAGE	IQUANT	0	Compliance Voltage
CURVE1	TABLE
	Pt	T	Vf	Im	Vu	Sig	Ach	IERange	Over	Temp
	#	s	V vs. Ref.	A	V	V	V	#	bits	deg C
	0	0.001667	4.98746E-001	9.15352E-005	0.00000E+000	5.00000E-001	-8.49272E-004	10	..........a	-327.74
	7	0.013333	4.91711E-001	7.74989E-005	0.00000E+000	4.93000E-001	-7.99272E-004	10	..........a	-327.74
	14	0.025	4.84751E-001	6.82750E-005	0.00000E+000	4.86000E-001	-8.09272E-004	10	..........a	-327.74
	21	0.036667	4.77796E-001	6.12569E-005	0.00000E+000	4.79000E-001	-8.59272E-004	10	..........a	-327.74
	28	0.048333	4.70751E-001	5.57426E-005	0.00000E+000	4.72000E-001	-8.29272E-004	10	..........a	-327.74
	35	0.06	4.63776E-001	5.12309E-005	0.00000E+000	4.65000E-001	-8.19272E-004	10	..........a	-327.74
	42	0.071667	4.56821E-001	4.83234E-005	0.00000E+000	4.58000E-001	-8.59272E-004	10	..........a	-327.74
	49	0.083333	4.49671E-001	4.44133E-005	0.00000E+000	4.51000E-001	-7.69272E-004	10	..........a	-327.74
	56	0.095	4.42781E-001	4.30598E-005	0.00000E+000	4.44000E-001	-8.09272E-004	10	..........a	-327.74
	63	0.106667	4.35696E-001	3.97512E-005	0.00000E+000	4.37000E-001	-8.59272E-004	10	..........a	-327.74
	70	0.118333	4.28756E-001	3.81471E-005	0.00000E+000	4.30000E-001	-8.29272E-004	10	..........a	-327.74
	77	0.13	4.21821E-001	3.65429E-005	0.00000E+000	4.23000E-001	-8.69272E-004	10	..........a	-327.74
	84	0.141667	4.14771E-001	3.47382E-005	0.00000E+000	4.16000E-001	-7.99272E-004	10	..........a	-327.74
	91	0.153333	4.07751E-001	3.29336E-005	0.00000E+000	4.09000E-001	-8.49272E-004	10	..........a	-327.74
	98	0.165	4.00841E-001	3.14297E-005	0.00000E+000	4.02000E-001	-8.69272E-004	10	..........a	-327.74
	105	0.176667	3.93796E-001	3.11790E-005	0.00000E+000	3.95000E-001	-8.59272E-004	10	..........a	-327.74
	112	0.188333	3.86796E-001	2.88229E-005	0.00000E+000	3.88000E-001	-8.59272E-004	10	..........a	-327.74
	119	0.2	3.79791E-001	2.80710E-005	0.00000E+000	3.81000E-001	-8.49272E-004	10	..........a	-327.74
	126	0.211667	3.72786E-001	2.76700E-005	0.00000E+000	3.74000E-001	-8.29272E-004	10	..........a	-327.74
	133	0.223333	3.65791E-001	2.74193E-005	0.00000E+000	3.67000E-001	-8.99272E-004	10	..........a	-327.74
	140	0.235	3.58786E-001	2.50131E-005	0.00000E+000	3.60000E-001	-8.49272E-004	10	..........a	-327.74
	147	0.246667	3.51751E-001	2.45619E-005	0.00000E+000	3.53000E-001	-8.69272E-004	10	..........a	-327.74
	154	0.258333	3.44831E-001	2.40105E-005	0.00000E+000	3.46000E-001	-8.59272E-004	10	..........a	-327.74
	161	0.27	3.37771E-001	2.32084E-005	0.00000E+000	3.39000E-001	-8.69272E-004	10	..........a	-327.74
	168	0.281667	3.30821E-001	2.18549E-005	0.00000E+000	3.32000E-001	-8.39272E-004	10	..........a	-327.74
	175	0.293333	3.23696E-001	2.16544E-005	0.00000E+000	3.25000E-001	-8.29272E-004	10	..........a	-327.74
	182	0.305	3.16831E-001	2.20554E-005	0.00000E+000	3.18000E-001	-8.59272E-004	10	..........a	-327.74
	189	0.316667	3.09841E-001	2.00502E-005	0.00000E+000	3.11000E-001	-8.39272E-004	10	..........a	-327.74
	196	0.328333	3.02761E-001	1.96993E-005	0.00000E+000	3.04000E-001	-8.39272E-004	10	..........a	-327.74
	203	0.34	2.95701E-001	1.89975E-005	0.00000E+000	2.97000E-001	-8.89272E-004	10	..........a	-327.74
	210	0.351667	2.88846E-001	1.85965E-005	0.00000E+000	2.90000E-001	-8.59272E-004	10	..........a	-327.74
	217	0.363333	2.81781E-001	1.75438E-005	0.00000E+000	2.83000E-001	-8.79272E-004	10	..........a	-327.74
	224	0.375	2.74791E-001	1.71928E-005	0.00000E+000	2.76000E-001	-8.19272E-004	10	..........a	-327.74
	231	0.386667	2.67821E-001	1.71427E-005	0.00000E+000	2.69000E-001	-8.59272E-004	10	..........a	-327.74
	238	0.398333	2.60831E-001	1.60399E-005	0.00000E+000	2.62000E-001	-8.99272E-004	10	..........a	-327.74
	245	0.41	2.53921E-001	1.63908E-005	0.00000E+000	2.55000E-001	-8.29272E-004	10	..........a	-327.74
	252	0.421667	2.46816E-001	1.54383E-005	0.00000E+000	2.48000E-001	-8.99272E-004	10	..........a	-327.74
	259	0.433333	2.39826E-001	1.43355E-005	0.00000E+000	2.41000E-001	-8.99272E-004	10	..........a	-327.74
	266	0.445	2.32871E-001	1.46362E-005	0.00000E+000	2.34000E-001	-8.99272E-004	10	..........a	-327.74
	273	0.456667	2.25801E-001	1.37339E-005	0.00000E+000	2.27000E-001	-8.49272E-004	10	..........a	-327.74
	280	0.468333	2.18861E-001	1.25308E-005	0.00000E+000	2.20000E-001	-8.89272E-004	10	..........a	-327.74
	287	0.48	2.11871E-001	1.31825E-005	0.00000E+000	2.13000E-001	-8.69272E-004	10	..........a	-327.74
	294	0.491667	2.04816E-001	1.11272E-005	0.00000E+000	2.06000E-001	-8.19272E-004	10	..........a	-327.74
	301	0.503333	1.97906E-001	1.09768E-005	0.00000E+000	1.99000E-001	-8.69272E-004	10	..........a	-327.74
	308	0.515	1.90866E-001	1.07261E-005	0.00000E+000	1.92000E-001	-8.49272E-004	10	..........a	-327.74
	315	0.526667	1.83886E-001	1.00243E-005	0.00000E+000	1.85000E-001	-8.69272E-004	10	..........a	-327.74
	322	0.538333	1.76911E-001	9.77365E-006	0.00000E+000	1.78000E-001	-8.69272E-004	10	..........a	-327.74
	329	0.55	1.69766E-001	8.42015E-006	0.00000E+000	1.71000E-001	-8.39272E-004	10	..........a	-327.74
	336	0.561667	1.62886E-001	8.16950E-006	0.00000E+000	1.64000E-001	-8.29272E-004	10	..........a	-327.74
	343	0.573333	1.55906E-001	7.51782E-006	0.00000E+000	1.57000E-001	-8.89272E-004	10	..........a	-327.74
	350	0.585	1.48841E-001	7.51782E-006	0.00000E+000	1.50000E-001	-8.49272E-004	10	..........a	-327.74
	357	0.596667	1.41981E-001	5.91367E-006	0.00000E+000	1.43000E-001	-8.19272E-004	10	..........a	-327.74
	364	0.608333	1.34906E-001	6.01393E-006	0.00000E+000	1.36000E-001	-8.29272E-004	10	..........a	-327.74
	371	0.62	1.27901E-001	6.06406E-006	0.00000E+000	1.29000E-001	-8.39272E-004	10	..........a	-327.74
	378	0.631667	1.20956E-001	5.11159E-006	0.00000E+000	1.22000E-001	-8.29272E-004	10	..........a	-327.74
	385	0.643333	1.13921E-001	5.56276E-006	0.00000E+000	1.15000E-001	-7.89272E-004	10	..........a	-327.74
	392	0.655	1.06901E-001	5.36224E-006	0.00000E+000	1.08000E-001	-8.69272E-004	10	..........a	-327.74
	399	0.666667	9.99010E-002	4.91107E-006	0.00000E+000	1.01000E-001	-8.79272E-004	10	..........a	-327.74
	406	0.678333	9.28760E-002	3.35705E-006	0.00000E+000	9.40000E-002	-8.59272E-004	10	..........a	-327.74
	413	0.69	8.59510E-002	3.75809E-006	0.00000E+000	8.70000E-002	-8.39272E-004	10	..........a	-327.74
	420	0.701667	7.88860E-002	4.05887E-006	0.00000E+000	8.00000E-002	-8.59272E-004	10	..........a	-327.74
	427	0.713333	7.19460E-002	3.85835E-006	0.00000E+000	7.30000E-002	-8.49272E-004	10	..........a	-327.74
	434	0.725	6.49910E-002	2.45472E-006	0.00000E+000	6.60000E-002	-8.49272E-004	10	..........a	-327.74
	441	0.736667	5.79160E-002	2.95601E-006	0.00000E+000	5.90000E-002	-8.49272E-004	10	..........a	-327.74
	448	0.748333	5.09310E-002	3.45731E-006	0.00000E+000	5.20000E-002	-7.99272E-004	10	..........a	-327.74
	455	0.76	4.39460E-002	2.50485E-006	0.00000E+000	4.50000E-002	-8.39272E-004	10	..........a	-327.74
	462	0.771667	3.69060E-002	2.25420E-006	0.00000E+000	3.80000E-002	-8.49272E-004	10	..........a	-327.74
	469	0.783333	2.99660E-002	1.70277E-006	0.00000E+000	3.10000E-002	-8.59272E-004	10	..........a	-327.74
	476	0.795	2.29760E-002	3.45731E-006	0.00000E+000	2.40000E-002	-8.69272E-004	10	..........a	-327.74
	483	0.806667	1.59160E-002	2.00355E-006	0.00000E+000	1.70000E-002	-8.39272E-004	10	..........a	-327.74
	490	0.818333	8.94600E-003	1.90329E-006	0.00000E+000	9.99999E-003	-8.19272E-004	10	..........a	-327.74
	497	0.83	1.96600E-003	7.00178E-007	0.00000E+000	2.99999E-003	-8.59272E-004	10	..........a	-327.74
	504	0.841667	-5.07900E-003	4.99659E-007	0.00000E+000	-4.00001E-003	-8.29272E-004	10	..........a	-327.74
	511	0.853333	-1.20740E-002	8.00437E-007	0.00000E+000	-1.10000E-002	-8.69272E-004	10	..........a	-327.74
	518	0.865	-1.91140E-002	1.40199E-006	0.00000E+000	-1.80000E-002	-7.99272E-004	10	..........a	-327.74
	525	0.876667	-2.60140E-002	1.80303E-006	0.00000E+000	-2.50000E-002	-8.29272E-004	10	..........a	-327.74
	532	0.888333	-3.30140E-002	1.85316E-006	0.00000E+000	-3.20000E-002	-8.49272E-004	10	..........a	-327.74
	539	0.9	-4.00240E-002	7.00178E-007	0.00000E+000	-3.90000E-002	-8.69272E-004	10	..........a	-327.74
	546	0.911667	-4.70140E-002	-5.17674E-008	0.00000E+000	-4.60000E-002	-8.39272E-004	10	..........a	-327.74
	553	0.923333	-5.40090E-002	1.20148E-006	0.00000E+000	-5.30000E-002	-8.59272E-004	10	..........a	-327.74
	560	0.935	-6.10040E-002	1.00096E-006	0.00000E+000	-6.00000E-002	-8.79272E-004	10	..........a	-327.74
	567	0.946667	-6.80140E-002	4.99659E-007	0.00000E+000	-6.70000E-002	-8.49272E-004	10	..........a	-327.74
	574	0.95833	-7.50890E-002	3.99400E-007	0.00000E+000	-7.40000E-002	-8.49272E-004	10	..........a	-327.74
	581	0.97	-8.20090E-002	-1.63769E-009	0.00000E+000	-8.10000E-002	-8.79272E-004	10	..........a	-327.74
	588	0.98167	-8.90240E-002	1.55238E-006	0.00000E+000	-8.80000E-002	-8.79272E-004	10	..........a	-327.74
	595	0.99333	-9.60590E-002	1.98881E-007	0.00000E+000	-9.50000E-002	-8.69272E-004	10	..........a	-327.74
	602	1.005	-1.02944E-001	-3.52546E-007	0.00000E+000	-1.02000E-001	-8.29272E-004	10	..........a	-327.74
	609	1.01667	-1.10004E-001	-6.03194E-007	0.00000E+000	-1.09000E-001	-9.19272E-004	10	..........a	-327.74
	616	1.02833	-1.17054E-001	-1.50553E-006	0.00000E+000	-1.16000E-001	-8.09272E-004	10	..........a	-327.74
	623	1.04	-1.24004E-001	-3.02416E-007	0.00000E+000	-1.23000E-001	-9.19272E-004	10	..........a	-327.74
	630	1.05167	-1.31004E-001	4.49530E-007	0.00000E+000	-1.30000E-001	-8.79272E-004	10	..........a	-327.74
	637	1.06333	-1.37999E-001	-2.10709E-006	0.00000E+000	-1.37000E-001	-8.49272E-004	10	..........a	-327.74
	644	1.075	-1.44989E-001	5.49789E-007	0.00000E+000	-1.44000E-001	-8.29272E-004	10	..........a	-327.74
	651	1.08667	-1.52054E-001	-3.56085E-006	0.00000E+000	-1.51000E-001	-8.09272E-004	10	..........a	-327.74
	658	1.09833	-1.58964E-001	-6.53324E-007	0.00000E+000	-1.58000E-001	-8.69272E-004	10	..........a	-327.74
	665	1.11	-1.66059E-001	-2.50812E-006	0.00000E+000	-1.65000E-001	-8.29272E-004	10	..........a	-327.74
	672	1.12167	-1.73069E-001	-2.40786E-006	0.00000E+000	-1.72000E-001	-8.09272E-004	10	..........a	-327.74
	679	1.13333	-1.80024E-001	-3.20994E-006	0.00000E+000	-1.79000E-001	-8.29272E-004	10	..........a	-327.74
	686	1.145	-1.87084E-001	-3.51072E-006	0.00000E+000	-1.86000E-001	-7.89272E-004	10	..........a	-327.74
	693	1.15667	-1.94034E-001	-3.61098E-006	0.00000E+000	-1.93000E-001	-7.99272E-004	10	..........a	-327.74
	700	1.16833	-2.01049E-001	-4.96448E-006	0.00000E+000	-2.00000E-001	-8.79272E-004	10	..........a	-327.74
	707	1.18	-2.07964E-001	-3.96188E-006	0.00000E+000	-2.07000E-001	-7.99272E-004	10	..........a	-327.74
	714	1.19167	-2.14964E-001	-5.86681E-006	0.00000E+000	-2.14000E-001	-7.79272E-004	10	..........a	-327.74
	721	1.20333	-2.21984E-001	-5.31539E-006	0.00000E+000	-2.21000E-001	-8.29272E-004	10	..........a	-327.74
	728	1.215	-2.28989E-001	-5.86681E-006	0.00000E+000	-2.28000E-001	-8.89272E-004	10	..........a	-327.74
	735	1.22667	-2.35929E-001	-5.56603E-006	0.00000E+000	-2.35000E-001	-8.39272E-004	10	..........a	-327.74
	742	1.23833	-2.42919E-001	-5.91694E-006	0.00000E+000	-2.42000E-001	-8.89272E-004	10	..........a	-327.74
	749	1.25	-2.49999E-001	-5.66629E-006	0.00000E+000	-2.49000E-001	-7.69272E-004	10	..........a	-327.74
	756	1.26167	-2.56919E-001	-7.82187E-006	0.00000E+000	-2.56000E-001	-8.39272E-004	10	..........a	-327.74
	763	1.27333	-2.63984E-001	-7.87200E-006	0.00000E+000	-2.63000E-001	-8.19272E-004	10	..........a	-327.74
	770	1.285	-2.70909E-001	-7.52109E-006	0.00000E+000	-2.70000E-001	-8.09272E-004	10	..........a	-327.74
	777	1.29667	-2.77969E-001	-9.02498E-006	0.00000E+000	-2.77000E-001	-7.79272E-004	10	..........a	-327.74
	784	1.30833	-2.85024E-001	-9.12524E-006	0.00000E+000	-2.84000E-001	-8.29272E-004	10	..........a	-327.74
	791	1.32	-2.91924E-001	-1.02782E-005	0.00000E+000	-2.91000E-001	-8.39272E-004	10	..........a	-327.74
	798	1.33167	-2.98979E-001	-1.00777E-005	0.00000E+000	-2.98000E-001	-8.19272E-004	10	..........a	-327.74
	805	1.34333	-3.05979E-001	-1.11304E-005	0.00000E+000	-3.05000E-001	-8.09272E-004	10	..........a	-327.74
	812	1.355	-3.13004E-001	-1.08297E-005	0.00000E+000	-3.12000E-001	-7.99272E-004	10	..........a	-327.74
	819	1.36667	-3.19954E-001	-1.12808E-005	0.00000E+000	-3.19000E-001	-8.09272E-004	10	..........a	-327.74
	826	1.37833	-3.26949E-001	-1.08297E-005	0.00000E+000	-3.26000E-001	-7.89272E-004	10	..........a	-327.74
	833	1.39	-3.33959E-001	-1.21330E-005	0.00000E+000	-3.33000E-001	-8.19272E-004	10	..........a	-327.74
	840	1.40167	-3.40959E-001	-1.26343E-005	0.00000E+000	-3.40000E-001	-8.09272E-004	10	..........a	-327.74
	847	1.41333	-3.47939E-001	-1.40881E-005	0.00000E+000	-3.47000E-001	-8.49272E-004	10	..........a	-327.74
	854	1.425	-3.54979E-001	-1.45392E-005	0.00000E+000	-3.54000E-001	-8.49272E-004	10	..........a	-327.74
	861	1.43667	-3.61929E-001	-1.54917E-005	0.00000E+000	-3.61000E-001	-8.29272E-004	10	..........a	-327.74
	868	1.44833	-3.68989E-001	-1.76974E-005	0.00000E+000	-3.68000E-001	-8.59272E-004	10	..........a	-327.74
	875	1.46	-3.75954E-001	-1.73465E-005	0.00000E+000	-3.75000E-001	-8.39272E-004	10	..........a	-327.74
	882	1.47167	-3.82909E-001	-2.00535E-005	0.00000E+000	-3.82000E-001	-7.99272E-004	10	..........a	-327.74
	889	1.48333	-3.89959E-001	-2.20587E-005	0.00000E+000	-3.89000E-001	-7.79272E-004	10	..........a	-327.74
	896	1.495	-3.96929E-001	-2.54675E-005	0.00000E+000	-3.96000E-001	-7.99272E-004	10	..........a	-327.74
	903	1.50667	-4.03899E-001	-2.84753E-005	0.00000E+000	-4.03000E-001	-7.79272E-004	10	..........a	-327.74
	910	1.51833	-4.10919E-001	-3.35885E-005	0.00000E+000	-4.10000E-001	-8.09272E-004	10	..........a	-327.74
	917	1.53	-4.17894E-001	-4.03059E-005	0.00000E+000	-4.17000E-001	-7.99272E-004	10	..........a	-327.74
	924	1.54167	-4.24934E-001	-4.70734E-005	0.00000E+000	-4.24000E-001	-8.39272E-004	10	..........a	-327.74
	931	1.55333	-4.31974E-001	-5.47934E-005	0.00000E+000	-4.31000E-001	-8.09272E-004	10	..........a	-327.74
	938	1.565	-4.38884E-001	-6.24131E-005	0.00000E+000	-4.38000E-001	-8.79272E-004	10	..........a	-327.74
	945	1.57667	-4.45954E-001	-7.13362E-005	0.00000E+000	-4.45000E-001	-8.29272E-004	10	..........a	-327.74
	952	1.58833	-4.52909E-001	-7.96577E-005	0.00000E+000	-4.52000E-001	-7.89272E-004	10	..........a	-327.74
	959	1.6	-4.59944E-001	-8.89317E-005	0.00000E+000	-4.59000E-001	-7.69272E-004	10	..........a	-327.74
	966	1.61167	-4.66919E-001	-9.71029E-005	0.00000E+000	-4.66000E-001	-8.09272E-004	10	..........a	-327.74
	973	1.62333	-4.73949E-001	-1.06076E-004	0.00000E+000	-4.73000E-001	-8.19272E-004	10	..........a	-327.74
	980	1.635	-4.80934E-001	-1.14648E-004	0.00000E+000	-4.80000E-001	-8.09272E-004	10	..........a	-327.74
	987	1.64667	-4.87954E-001	-1.23271E-004	0.00000E+000	-4.87000E-001	-8.29272E-004	10	..........a	-327.74
	994	1.65833	-4.94904E-001	-1.33096E-004	0.00000E+000	-4.94000E-001	-8.09272E-004	10	..........a	-327.74
	1001	1.67	-5.01884E-001	-1.44175E-004	0.00000E+000	-5.01000E-001	-8.19272E-004	10	..........a	-327.74
	1008	1.68167	-5.08934E-001	-1.58512E-004	0.00000E+000	-5.08000E-001	-8.49272E-004	10	..........a	-327.74
	1015	1.69333	-5.15864E-001	-1.72949E-004	0.00000E+000	-5.15000E-001	-8.09272E-004	10	..........a	-327.74
	1022	1.705	-5.22879E-001	-1.90795E-004	0.00000E+000	-5.22000E-001	-8.49272E-004	10	..........a	-327.74
	1029	1.71667	-5.29904E-001	-2.11248E-004	0.00000E+000	-5.29000E-001	-8.59272E-004	10	..........a	-327.74
	1036	1.72833	-5.36854E-001	-2.34709E-004	0.00000E+000	-5.36000E-001	-7.79272E-004	10	..........a	-327.74
	1043	1.74	-5.43924E-001	-2.57869E-004	0.00000E+000	-5.43000E-001	-8.19272E-004	10	..........a	-327.74
	1050	1.75167	-5.50839E-001	-2.82031E-004	0.00000E+000	-5.50000E-001	-8.69272E-004	10	..........a	-327.74
	1057	1.76333	-5.57889E-001	-3.05442E-004	0.00000E+000	-5.57000E-001	-8.89272E-004	10	..........a	-327.74
	1064	1.775	-5.64854E-001	-3.27449E-004	0.00000E+000	-5.64000E-001	-7.99272E-004	10	..........a	-327.74
	1071	1.78667	-5.71859E-001	-3.45145E-004	0.00000E+000	-5.71000E-001	-8.19272E-004	10	..........a	-327.74
	1078	1.79833	-5.78844E-001	-3.58028E-004	0.00000E+000	-5.78000E-001	-7.89272E-004	10	..........a	-327.74
	1085	1.81	-5.85884E-001	-3.68756E-004	0.00000E+000	-5.85000E-001	-8.39272E-004	10	..........a	-327.74
	1092	1.82167	-5.92854E-001	-3.73017E-004	0.00000E+000	-5.92000E-001	-7.89272E-004	10	..........a	-327.74
	1099	1.83333	-5.99969E-001	-3.74821E-004	0.00000E+000	-5.99000E-001	-7.99272E-004	10	..........a	-327.74
	1106	1.845	-6.06854E-001	-3.71162E-004	0.00000E+000	-6.06000E-001	-8.49272E-004	10	..........a	-327.74
	1113	1.85667	-6.13939E-001	-3.65848E-004	0.00000E+000	-6.13000E-001	-8.09272E-004	10	..........a	-327.74
	1120	1.86833	-6.20804E-001	-3.57978E-004	0.00000E+000	-6.20000E-001	-8.59272E-004	10	..........a	-327.74
	1127	1.88	-6.27809E-001	-3.49406E-004	0.00000E+000	-6.27000E-001	-8.29272E-004	10	..........a	-327.74
	1134	1.89167	-6.34839E-001	-3.40583E-004	0.00000E+000	-6.34000E-001	-8.19272E-004	10	..........a	-327.74
	1141	1.90333	-6.41839E-001	-3.30557E-004	0.00000E+000	-6.41000E-001	-8.19272E-004	10	..........a	-327.74
	1148	1.915	-6.48784E-001	-3.21734E-004	0.00000E+000	-6.48000E-001	-7.89272E-004	10	..........a	-327.74
	1155	1.92667	-6.55854E-001	-3.12961E-004	0.00000E+000	-6.55000E-001	-8.29272E-004	10	..........a	-327.74
	1162	1.93833	-6.62839E-001	-3.04189E-004	0.00000E+000	-6.62000E-001	-8.29272E-004	10	..........a	-327.74
	1169	1.95	-6.69809E-001	-2.94915E-004	0.00000E+000	-6.69000E-001	-8.29272E-004	10	..........a	-327.74
	1176	1.96167	-6.76854E-001	-2.88598E-004	0.00000E+000	-6.76000E-001	-8.29272E-004	10	..........a	-327.74
	1183	1.97333	-6.83814E-001	-2.80878E-004	0.00000E+000	-6.83000E-001	-8.29272E-004	10	..........a	-327.74
	1190	1.985	-6.90784E-001	-2.74813E-004	0.00000E+000	-6.90000E-001	-8.49272E-004	10	..........a	-327.74
	1197	1.99667	-6.97819E-001	-2.68095E-004	0.00000E+000	-6.97000E-001	-7.59272E-004	10	..........a	-327.74
	1204	2.00833	-7.04784E-001	-2.62481E-004	0.00000E+000	-7.04000E-001	-8.79272E-004	10	..........a	-327.74
	1211	2.02	-7.11834E-001	-2.56766E-004	0.00000E+000	-7.11000E-001	-7.79272E-004	10	..........a	-327.74
	1218	2.03167	-7.18759E-001	-2.51051E-004	0.00000E+000	-7.18000E-001	-8.09272E-004	10	..........a	-327.74
	1225	2.04333	-7.25814E-001	-2.46991E-004	0.00000E+000	-7.25000E-001	-8.79272E-004	10	..........a	-327.74
	1232	2.055	-7.32824E-001	-2.42028E-004	0.00000E+000	-7.32000E-001	-8.39272E-004	10	..........a	-327.74
	1239	2.06667	-7.39759E-001	-2.37967E-004	0.00000E+000	-7.39000E-001	-7.99272E-004	10	..........a	-327.74
	1246	2.07833	-7.46789E-001	-2.33205E-004	0.00000E+000	-7.46000E-001	-8.39272E-004	10	..........a	-327.74
	1253	2.09	-7.53834E-001	-2.30348E-004	0.00000E+000	-7.53000E-001	-7.89272E-004	10	..........a	-327.74
	1260	2.10167	-7.60779E-001	-2.25836E-004	0.00000E+000	-7.60000E-001	-8.09272E-004	10	..........a	-327.74
	1267	2.11333	-7.67814E-001	-2.22678E-004	0.00000E+000	-7.67000E-001	-8.49272E-004	10	..........a	-327.74
	1274	2.125	-7.74769E-001	-2.19670E-004	0.00000E+000	-7.74000E-001	-8.09272E-004	10	..........a	-327.74
	1281	2.13667	-7.81784E-001	-2.16412E-004	0.00000E+000	-7.81000E-001	-8.19272E-004	10	..........a	-327.74
	1288	2.14833	-7.88799E-001	-2.13755E-004	0.00000E+000	-7.88000E-001	-8.79272E-004	10	..........a	-327.74
	1295	2.16	-7.95704E-001	-2.10396E-004	0.00000E+000	-7.95000E-001	-8.29272E-004	10	..........a	-327.74
	1302	2.17167	-8.02774E-001	-2.08842E-004	0.00000E+000	-8.02000E-001	-8.09272E-004	10	..........a	-327.74
	1309	2.18333	-8.09804E-001	-2.04230E-004	0.00000E+000	-8.09000E-001	-8.49272E-004	10	..........a	-327.74
	1316	2.195	-8.16784E-001	-2.02977E-004	0.00000E+000	-8.16000E-001	-7.99272E-004	10	..........a	-327.74
	1323	2.20667	-8.23734E-001	-1.99819E-004	0.00000E+000	-8.23000E-001	-8.09272E-004	10	..........a	-327.74
	1330	2.21833	-8.30729E-001	-1.98616E-004	0.00000E+000	-8.30000E-001	-8.59272E-004	10	..........a	-327.74
	1337	2.23	-8.37704E-001	-1.95959E-004	0.00000E+000	-8.37000E-001	-8.09272E-004	10	..........a	-327.74
	1344	2.24167	-8.44709E-001	-1.93953E-004	0.00000E+000	-8.44000E-001	-8.39272E-004	10	..........a	-327.74
	1351	2.25333	-8.51679E-001	-1.91547E-004	0.00000E+000	-8.51000E-001	-8.39272E-004	10	..........a	-327.74
	1358	2.265	-8.58724E-001	-1.88590E-004	0.00000E+000	-8.58000E-001	-8.39272E-004	10	..........a	-327.74
	1365	2.27667	-8.65714E-001	-1.87637E-004	0.00000E+000	-8.65000E-001	-8.29272E-004	10	..........a	-327.74
	1372	2.28833	-8.72609E-001	-1.84780E-004	0.00000E+000	-8.72000E-001	-8.19272E-004	10	..........a	-327.74
	1379	2.3	-8.79729E-001	-1.84228E-004	0.00000E+000	-8.79000E-001	-8.19272E-004	10	..........a	-327.74
	1386	2.31167	-8.86714E-001	-1.81972E-004	0.00000E+000	-8.86000E-001	-7.89272E-004	10	..........a	-327.74
	1393	2.32333	-8.93709E-001	-1.80970E-004	0.00000E+000	-8.93000E-001	-8.49272E-004	10	..........a	-327.74
	1400	2.335	-9.00734E-001	-1.78313E-004	0.00000E+000	-9.00000E-001	-8.09272E-004	10	..........a	-327.74
	1407	2.34667	-9.07699E-001	-1.76859E-004	0.00000E+000	-9.07000E-001	-8.29272E-004	10	..........a	-327.74
	1414	2.35833	-9.14719E-001	-1.75656E-004	0.00000E+000	-9.14000E-001	-8.19272E-004	10	..........a	-327.74
	1421	2.37	-9.21694E-001	-1.74654E-004	0.00000E+000	-9.21000E-001	-7.89272E-004	10	..........a	-327.74
	1428	2.38167	-9.28644E-001	-1.72448E-004	0.00000E+000	-9.28000E-001	-8.29272E-004	10	..........a	-327.74
	1435	2.39333	-9.35699E-001	-1.71495E-004	0.00000E+000	-9.35000E-001	-7.99272E-004	10	..........a	-327.74
	1442	2.405	-9.42704E-001	-1.71545E-004	0.00000E+000	-9.42000E-001	-7.69272E-004	10	..........a	-327.74
	1449	2.41667	-9.49649E-001	-1.69490E-004	0.00000E+000	-9.49000E-001	-8.59272E-004	10	..........a	-327.74
	1456	2.42833	-9.56769E-001	-1.68889E-004	0.00000E+000	-9.56000E-001	-8.19272E-004	10	..........a	-327.74
	1463	2.44	-9.63664E-001	-1.66683E-004	0.00000E+000	-9.63000E-001	-8.99272E-004	10	..........a	-327.74
	1470	2.45167	-9.70739E-001	-1.66232E-004	0.00000E+000	-9.70000E-001	-7.99272E-004	10	..........a	-327.74
	1477	2.46333	-9.77654E-001	-1.63926E-004	0.00000E+000	-9.77000E-001	-7.99272E-004	10	..........a	-327.74
	1484	2.475	-9.84669E-001	-1.63525E-004	0.00000E+000	-9.84000E-001	-8.19272E-004	10	..........a	-327.74
	1491	2.48667	-9.91709E-001	-1.62322E-004	0.00000E+000	-9.91000E-001	-8.29272E-004	10	..........a	-327.74
	1498	2.49833	-9.98704E-001	-1.62271E-004	0.00000E+000	-9.98000E-001	-8.19272E-004	10	..........a	-327.74
	1505	2.51	-9.95654E-001	-1.53449E-004	0.00000E+000	-9.95000E-001	-7.59272E-004	10	..........a	-327.74
	1512	2.52167	-9.88679E-001	-1.48937E-004	0.00000E+000	-9.88000E-001	-8.49272E-004	10	..........a	-327.74
	1519	2.53333	-9.81699E-001	-1.45679E-004	0.00000E+000	-9.81000E-001	-7.79272E-004	10	..........a	-327.74
	1526	2.545	-9.74679E-001	-1.42871E-004	0.00000E+000	-9.74000E-001	-7.79272E-004	10	..........a	-327.74
	1533	2.55667	-9.67674E-001	-1.40515E-004	0.00000E+000	-9.67000E-001	-8.29272E-004	10	..........a	-327.74
	1540	2.56833	-9.60654E-001	-1.37808E-004	0.00000E+000	-9.60000E-001	-8.69272E-004	10	..........a	-327.74
	1547	2.58	-9.53669E-001	-1.36354E-004	0.00000E+000	-9.53000E-001	-8.29272E-004	10	..........a	-327.74
	1554	2.59167	-9.46674E-001	-1.34299E-004	0.00000E+000	-9.46000E-001	-8.19272E-004	10	..........a	-327.74
	1561	2.60333	-9.39644E-001	-1.32194E-004	0.00000E+000	-9.39000E-001	-8.19272E-004	10	..........a	-327.74
	1568	2.615	-9.32729E-001	-1.30539E-004	0.00000E+000	-9.32000E-001	-7.49272E-004	10	..........a	-327.74
	1575	2.62667	-9.25694E-001	-1.29787E-004	0.00000E+000	-9.25000E-001	-8.09272E-004	10	..........a	-327.74
	1582	2.63833	-9.18719E-001	-1.28233E-004	0.00000E+000	-9.18000E-001	-8.19272E-004	10	..........a	-327.74
	1589	2.65	-9.11639E-001	-1.26730E-004	0.00000E+000	-9.11000E-001	-7.99272E-004	10	..........a	-327.74
	1596	2.66167	-9.04614E-001	-1.25326E-004	0.00000E+000	-9.04000E-001	-8.09272E-004	10	..........a	-327.74
	1603	2.67333	-8.97709E-001	-1.23120E-004	0.00000E+000	-8.97000E-001	-8.09272E-004	10	..........a	-327.74
	1610	2.685	-8.90724E-001	-1.22819E-004	0.00000E+000	-8.90000E-001	-8.39272E-004	10	..........a	-327.74
	1617	2.69667	-8.83684E-001	-1.21265E-004	0.00000E+000	-8.83000E-001	-8.29272E-004	10	..........a	-327.74
	1624	2.70833	-8.76759E-001	-1.19862E-004	0.00000E+000	-8.76000E-001	-8.69272E-004	10	..........a	-327.74
	1631	2.72	-8.69689E-001	-1.18809E-004	0.00000E+000	-8.69000E-001	-7.69272E-004	10	..........a	-327.74
	1638	2.73167	-8.62744E-001	-1.18207E-004	0.00000E+000	-8.62000E-001	-8.39272E-004	10	..........a	-327.74
	1645	2.74333	-8.55774E-001	-1.17105E-004	0.00000E+000	-8.55000E-001	-7.89272E-004	10	..........a	-327.74
	1652	2.755	-8.48709E-001	-1.17205E-004	0.00000E+000	-8.48000E-001	-8.39272E-004	10	..........a	-327.74
	1659	2.76667	-8.41674E-001	-1.15049E-004	0.00000E+000	-8.41000E-001	-8.79272E-004	10	..........a	-327.74
	1666	2.77833	-8.34714E-001	-1.14197E-004	0.00000E+000	-8.34000E-001	-8.49272E-004	10	..........a	-327.74
	1673	2.79	-8.27769E-001	-1.13796E-004	0.00000E+000	-8.27000E-001	-7.69272E-004	10	..........a	-327.74
	1680	2.80167	-8.20754E-001	-1.13345E-004	0.00000E+000	-8.20000E-001	-8.29272E-004	10	..........a	-327.74
	1687	2.81333	-8.13819E-001	-1.12092E-004	0.00000E+000	-8.13000E-001	-8.09272E-004	10	..........a	-327.74
	1694	2.825	-8.06794E-001	-1.10738E-004	0.00000E+000	-8.06000E-001	-8.39272E-004	10	..........a	-327.74
	1701	2.83667	-7.99779E-001	-1.09435E-004	0.00000E+000	-7.99000E-001	-8.59272E-004	10	..........a	-327.74
	1708	2.84833	-7.92829E-001	-1.08984E-004	0.00000E+000	-7.92000E-001	-7.89272E-004	10	..........a	-327.74
	1715	2.86	-7.85794E-001	-1.08482E-004	0.00000E+000	-7.85000E-001	-8.19272E-004	10	..........a	-327.74
	1722	2.87167	-7.78819E-001	-1.07129E-004	0.00000E+000	-7.78000E-001	-8.39272E-004	10	..........a	-327.74
	1729	2.88333	-7.71769E-001	-1.06026E-004	0.00000E+000	-7.71000E-001	-8.09272E-004	10	..........a	-327.74
	1736	2.895	-7.64834E-001	-1.04873E-004	0.00000E+000	-7.64000E-001	-8.49272E-004	10	..........a	-327.74
	1743	2.90667	-7.57824E-001	-1.04021E-004	0.00000E+000	-7.57000E-001	-7.99272E-004	10	..........a	-327.74
	1750	2.91833	-7.50829E-001	-1.04021E-004	0.00000E+000	-7.50000E-001	-8.39272E-004	10	..........a	-327.74
	1757	2.93	-7.43834E-001	-1.02316E-004	0.00000E+000	-7.43000E-001	-8.99272E-004	10	..........a	-327.74
	1764	2.94167	-7.36789E-001	-1.01564E-004	0.00000E+000	-7.36000E-001	-8.59272E-004	10	..........a	-327.74
	1771	2.95333	-7.29809E-001	-1.00812E-004	0.00000E+000	-7.29000E-001	-8.19272E-004	10	..........a	-327.74
	1778	2.965	-7.22764E-001	-9.99101E-005	0.00000E+000	-7.22000E-001	-7.59272E-004	10	..........a	-327.74
	1785	2.97667	-7.15779E-001	-9.82057E-005	0.00000E+000	-7.15000E-001	-8.19272E-004	10	..........a	-327.74
	1792	2.98833	-7.08779E-001	-9.70527E-005	0.00000E+000	-7.08000E-001	-7.89272E-004	10	..........a	-327.74
	1799	3	-7.01844E-001	-9.53985E-005	0.00000E+000	-7.01000E-001	-7.59272E-004	10	..........a	-327.74
	1806	3.01167	-6.94784E-001	-9.44961E-005	0.00000E+000	-6.94000E-001	-7.79272E-004	10	..........a	-327.74
	1813	3.02333	-6.87844E-001	-9.35437E-005	0.00000E+000	-6.87000E-001	-8.39272E-004	10	..........a	-327.74
	1820	3.035	-6.80799E-001	-9.16889E-005	0.00000E+000	-6.80000E-001	-8.29272E-004	10	..........a	-327.74
	1827	3.04667	-6.73849E-001	-9.10372E-005	0.00000E+000	-6.73000E-001	-8.09272E-004	10	..........a	-327.74
	1834	3.05833	-6.66784E-001	-8.83302E-005	0.00000E+000	-6.66000E-001	-8.29272E-004	10	..........a	-327.74
	1841	3.07	-6.59799E-001	-8.67761E-005	0.00000E+000	-6.59000E-001	-8.29272E-004	10	..........a	-327.74
	1848	3.08167	-6.52819E-001	-8.43699E-005	0.00000E+000	-6.52000E-001	-8.29272E-004	10	..........a	-327.74
	1855	3.09333	-6.45814E-001	-8.19637E-005	0.00000E+000	-6.45000E-001	-7.89272E-004	10	..........a	-327.74
	1862	3.105	-6.38824E-001	-7.90060E-005	0.00000E+000	-6.38000E-001	-8.29272E-004	10	..........a	-327.74
	1869	3.11667	-6.31879E-001	-7.62990E-005	0.00000E+000	-6.31000E-001	-8.09272E-004	10	..........a	-327.74
	1876	3.12833	-6.24854E-001	-7.24391E-005	0.00000E+000	-6.24000E-001	-8.39272E-004	10	..........a	-327.74
	1883	3.14	-6.17914E-001	-6.76767E-005	0.00000E+000	-6.17000E-001	-8.29272E-004	10	..........a	-327.74
	1890	3.15167	-6.10889E-001	-6.33154E-005	0.00000E+000	-6.10000E-001	-8.19272E-004	10	..........a	-327.74
	1897	3.16333	-6.03899E-001	-5.49939E-005	0.00000E+000	-6.03000E-001	-7.99272E-004	10	..........a	-327.74
	1904	3.175	-5.96919E-001	-4.86776E-005	0.00000E+000	-5.96000E-001	-8.29272E-004	10	..........a	-327.74
	1911	3.18667	-5.89869E-001	-4.02057E-005	0.00000E+000	-5.89000E-001	-8.19272E-004	10	..........a	-327.74
	1918	3.19833	-5.82874E-001	-3.22350E-005	0.00000E+000	-5.82000E-001	-8.59272E-004	10	..........a	-327.74
	1925	3.21	-5.75884E-001	-2.05548E-005	0.00000E+000	-5.75000E-001	-7.89272E-004	10	..........a	-327.74
	1932	3.22167	-5.68874E-001	-9.97745E-006	0.00000E+000	-5.68000E-001	-8.19272E-004	10	..........a	-327.74
	1939	3.23333	-5.61904E-001	5.71315E-006	0.00000E+000	-5.61000E-001	-8.19272E-004	10	..........a	-327.74
	1946	3.245	-5.54854E-001	1.91479E-005	0.00000E+000	-5.54000E-001	-8.69272E-004	10	..........a	-327.74
	1953	3.25667	-5.47774E-001	3.25827E-005	0.00000E+000	-5.47000E-001	-7.89272E-004	10	..........a	-327.74
	1960	3.26833	-5.40849E-001	4.67694E-005	0.00000E+000	-5.40000E-001	-8.49272E-004	10	..........a	-327.74
	1967	3.28	-5.33899E-001	6.11065E-005	0.00000E+000	-5.33000E-001	-8.89272E-004	10	..........a	-327.74
	1974	3.29167	-5.26839E-001	7.56441E-005	0.00000E+000	-5.26000E-001	-8.49272E-004	10	..........a	-327.74
	1981	3.30333	-5.19979E-001	8.80261E-005	0.00000E+000	-5.19000E-001	-7.99272E-004	10	..........a	-327.74
	1988	3.315	-5.12879E-001	1.02814E-004	0.00000E+000	-5.12000E-001	-8.39272E-004	10	..........a	-327.74
	1995	3.32667	-5.05939E-001	1.15547E-004	0.00000E+000	-5.05000E-001	-8.49272E-004	10	..........a	-327.74
	2002	3.33833	-4.98854E-001	1.28180E-004	0.00000E+000	-4.98000E-001	-8.49272E-004	10	..........a	-327.74
	2009	3.35	-4.91864E-001	1.40362E-004	0.00000E+000	-4.91000E-001	-8.39272E-004	10	..........a	-327.74
	2016	3.36167	-4.84904E-001	1.51139E-004	0.00000E+000	-4.84000E-001	-9.29272E-004	10	..........a	-327.74
	2023	3.37333	-4.77919E-001	1.61215E-004	0.00000E+000	-4.77000E-001	-8.39272E-004	10	..........a	-327.74
	2030	3.385	-4.70869E-001	1.68484E-004	0.00000E+000	-4.70000E-001	-8.59272E-004	10	..........a	-327.74
	2037	3.39667	-4.63929E-001	1.76605E-004	0.00000E+000	-4.63000E-001	-8.49272E-004	10	..........a	-327.74
	2044	3.40833	-4.56909E-001	1.80365E-004	0.00000E+000	-4.56000E-001	-8.09272E-004	10	..........a	-327.74
	2051	3.42	-4.49919E-001	1.85879E-004	0.00000E+000	-4.49000E-001	-8.79272E-004	10	..........a	-327.74
	2058	3.43167	-4.42959E-001	1.86882E-004	0.00000E+000	-4.42000E-001	-8.29272E-004	10	..........a	-327.74
	2065	3.44333	-4.35879E-001	1.88135E-004	0.00000E+000	-4.35000E-001	-8.29272E-004	10	..........a	-327.74
	2072	3.455	-4.28919E-001	1.86731E-004	0.00000E+000	-4.28000E-001	-8.69272E-004	10	..........a	-327.74
	2079	3.46667	-4.21934E-001	1.84325E-004	0.00000E+000	-4.21000E-001	-7.99272E-004	10	..........a	-327.74
	2086	3.47833	-4.14889E-001	1.81568E-004	0.00000E+000	-4.14000E-001	-8.59272E-004	10	..........a	-327.74
	2093	3.49	-4.07944E-001	1.79012E-004	0.00000E+000	-4.07000E-001	-7.79272E-004	10	..........a	-327.74
	2100	3.50167	-4.00904E-001	1.75603E-004	0.00000E+000	-4.00000E-001	-8.39272E-004	10	..........a	-327.74
	2107	3.51333	-3.93904E-001	1.71492E-004	0.00000E+000	-3.93000E-001	-8.19272E-004	10	..........a	-327.74
	2114	3.525	-3.86944E-001	1.68534E-004	0.00000E+000	-3.86000E-001	-8.19272E-004	10	..........a	-327.74
	2121	3.53667	-3.79919E-001	1.64073E-004	0.00000E+000	-3.79000E-001	-7.99272E-004	10	..........a	-327.74
	2128	3.54833	-3.72914E-001	1.61215E-004	0.00000E+000	-3.72000E-001	-8.39272E-004	10	..........a	-327.74
	2135	3.56	-3.65954E-001	1.56453E-004	0.00000E+000	-3.65000E-001	-8.29272E-004	10	..........a	-327.74
	2142	3.57167	-3.58894E-001	1.54298E-004	0.00000E+000	-3.58000E-001	-8.29272E-004	10	..........a	-327.74
	2149	3.58333	-3.51954E-001	1.50337E-004	0.00000E+000	-3.51000E-001	-8.39272E-004	10	..........a	-327.74
	2156	3.595	-3.45019E-001	1.48733E-004	0.00000E+000	-3.44000E-001	-8.59272E-004	10	..........a	-327.74
	2163	3.60667	-3.37959E-001	1.46177E-004	0.00000E+000	-3.37000E-001	-8.29272E-004	10	..........a	-327.74
	2170	3.61833	-3.30959E-001	1.43620E-004	0.00000E+000	-3.30000E-001	-8.49272E-004	10	..........a	-327.74
	2177	3.63	-3.23919E-001	1.41214E-004	0.00000E+000	-3.23000E-001	-8.39272E-004	10	..........a	-327.74
	2184	3.64167	-3.17014E-001	1.40061E-004	0.00000E+000	-3.16000E-001	-9.09272E-004	10	..........a	-327.74
	2191	3.65333	-3.09954E-001	1.37755E-004	0.00000E+000	-3.09000E-001	-8.29272E-004	10	..........a	-327.74
	2198	3.665	-3.02924E-001	1.35599E-004	0.00000E+000	-3.02000E-001	-7.89272E-004	10	..........a	-327.74
	2205	3.67667	-2.95954E-001	1.34647E-004	0.00000E+000	-2.95000E-001	-7.99272E-004	10	..........a	-327.74
	2212	3.68833	-2.89004E-001	1.32642E-004	0.00000E+000	-2.88000E-001	-8.49272E-004	10	..........a	-327.74
	2219	3.7	-2.81964E-001	1.30486E-004	0.00000E+000	-2.81000E-001	-8.09272E-004	10	..........a	-327.74
	2226	3.71167	-2.74959E-001	1.29433E-004	0.00000E+000	-2.74000E-001	-8.19272E-004	10	..........a	-327.74
	2233	3.72333	-2.67914E-001	1.27629E-004	0.00000E+000	-2.67000E-001	-8.69272E-004	10	..........a	-327.74
	2240	3.735	-2.60984E-001	1.26225E-004	0.00000E+000	-2.60000E-001	-8.69272E-004	10	..........a	-327.74
	2247	3.74667	-2.54029E-001	1.24019E-004	0.00000E+000	-2.53000E-001	-7.99272E-004	10	..........a	-327.74
	2254	3.75833	-2.46979E-001	1.22565E-004	0.00000E+000	-2.46000E-001	-8.19272E-004	10	..........a	-327.74
	2261	3.77	-2.39974E-001	1.20861E-004	0.00000E+000	-2.39000E-001	-8.89272E-004	10	..........a	-327.74
	2268	3.78167	-2.32944E-001	1.19257E-004	0.00000E+000	-2.32000E-001	-8.29272E-004	10	..........a	-327.74
	2275	3.79333	-2.25964E-001	1.16700E-004	0.00000E+000	-2.25000E-001	-8.29272E-004	10	..........a	-327.74
	2282	3.805	-2.18934E-001	1.15547E-004	0.00000E+000	-2.18000E-001	-8.69272E-004	10	..........a	-327.74
	2289	3.81667	-2.11964E-001	1.14294E-004	0.00000E+000	-2.11000E-001	-7.89272E-004	10	..........a	-327.74
	2296	3.82833	-2.04984E-001	1.12640E-004	0.00000E+000	-2.04000E-001	-8.49272E-004	10	..........a	-327.74
	2303	3.84	-1.98019E-001	1.10234E-004	0.00000E+000	-1.97000E-001	-8.89272E-004	10	..........a	-327.74
	2310	3.85167	-1.90964E-001	1.08980E-004	0.00000E+000	-1.90000E-001	-8.59272E-004	10	..........a	-327.74
	2317	3.86333	-1.83999E-001	1.07176E-004	0.00000E+000	-1.83000E-001	-8.29272E-004	10	..........a	-327.74
	2324	3.875	-1.77054E-001	1.05421E-004	0.00000E+000	-1.76000E-001	-8.49272E-004	10	..........a	-327.74
	2331	3.88667	-1.69999E-001	1.03466E-004	0.00000E+000	-1.69000E-001	-8.49272E-004	10	..........a	-327.74
	2338	3.89833	-1.63119E-001	1.01812E-004	0.00000E+000	-1.62000E-001	-8.29272E-004	10	..........a	-327.74
	2345	3.91	-1.56004E-001	1.01912E-004	0.00000E+000	-1.55000E-001	-8.49272E-004	10	..........a	-327.74
	2352	3.92167	-1.49024E-001	9.92050E-005	0.00000E+000	-1.48000E-001	-8.09272E-004	10	..........a	-327.74
	2359	3.93333	-1.42024E-001	9.91549E-005	0.00000E+000	-1.41000E-001	-8.49272E-004	10	..........a	-327.74
	2366	3.945	-1.34969E-001	9.69492E-005	0.00000E+000	-1.34000E-001	-8.39272E-004	10	..........a	-327.74
	2373	3.95667	-1.28034E-001	9.55957E-005	0.00000E+000	-1.27000E-001	-8.39272E-004	10	..........a	-327.74
	2380	3.96833	-1.21089E-001	9.37910E-005	0.00000E+000	-1.20000E-001	-7.89272E-004	10	..........a	-327.74
	2387	3.98	-1.13999E-001	9.21869E-005	0.00000E+000	-1.13000E-001	-8.69272E-004	10	..........a	-327.74
	2394	3.99167	-1.07084E-001	9.14349E-005	0.00000E+000	-1.06000E-001	-8.49272E-004	10	..........a	-327.74
	2401	4.00333	-1.00044E-001	8.97807E-005	0.00000E+000	-9.90000E-002	-8.19272E-004	10	..........a	-327.74
	2408	4.015	-9.30240E-002	8.84272E-005	0.00000E+000	-9.20000E-002	-8.39272E-004	10	..........a	-327.74
	2415	4.02667	-8.60240E-002	8.76251E-005	0.00000E+000	-8.50000E-002	-8.29272E-004	10	..........a	-327.74
	2422	4.03833	-7.89940E-002	8.61713E-005	0.00000E+000	-7.80000E-002	-8.19272E-004	10	..........a	-327.74
	2429	4.05	-7.20890E-002	8.46674E-005	0.00000E+000	-7.10000E-002	-8.29272E-004	10	..........a	-327.74
	2436	4.06167	-6.50690E-002	8.47176E-005	0.00000E+000	-6.40000E-002	-8.09272E-004	10	..........a	-327.74
	2443	4.07333	-5.80390E-002	8.37651E-005	0.00000E+000	-5.70000E-002	-8.19272E-004	10	..........a	-327.74
	2450	4.085	-5.10590E-002	8.26121E-005	0.00000E+000	-5.00000E-002	-8.19272E-004	10	..........a	-327.74
	2457	4.09667	-4.41090E-002	8.21108E-005	0.00000E+000	-4.30000E-002	-8.09272E-004	10	..........a	-327.74
	2464	4.10833	-3.70440E-002	8.09578E-005	0.00000E+000	-3.60000E-002	-8.49272E-004	10	..........a	-327.74
	2471	4.12	-3.00790E-002	7.98048E-005	0.00000E+000	-2.90000E-002	-8.19272E-004	10	..........a	-327.74
	2478	4.13167	-2.30440E-002	8.01056E-005	0.00000E+000	-2.20000E-002	-8.39272E-004	10	..........a	-327.74
	2485	4.14333	-1.60640E-002	7.85516E-005	0.00000E+000	-1.50000E-002	-8.59272E-004	10	..........a	-327.74
	2492	4.155	-9.10400E-003	7.82508E-005	0.00000E+000	-8.00000E-003	-8.89272E-004	10	..........a	-327.74
	2499	4.16667	-2.01900E-003	7.75490E-005	0.00000E+000	-1.00000E-003	-8.19272E-004	10	..........a	-327.74
	2506	4.17833	4.89100E-003	7.58947E-005	0.00000E+000	5.99998E-003	-8.29272E-004	10	..........a	-327.74
	2513	4.19	1.19560E-002	7.70978E-005	0.00000E+000	1.30000E-002	-8.59272E-004	10	..........a	-327.74
	2520	4.20167	1.89260E-002	7.58947E-005	0.00000E+000	2.00000E-002	-8.59272E-004	10	..........a	-327.74
	2527	4.21333	2.58910E-002	7.62456E-005	0.00000E+000	2.70000E-002	-8.69272E-004	10	..........a	-327.74
	2534	4.225	3.29060E-002	7.38895E-005	0.00000E+000	3.40000E-002	-8.39272E-004	10	..........a	-327.74
	2541	4.23667	3.98860E-002	7.47417E-005	0.00000E+000	4.10000E-002	-8.79272E-004	10	..........a	-327.74
	2548	4.24833	4.69510E-002	7.51929E-005	0.00000E+000	4.80000E-002	-8.39272E-004	10	..........a	-327.74
	2555	4.26	5.38910E-002	7.39397E-005	0.00000E+000	5.50000E-002	-8.49272E-004	10	..........a	-327.74
	2562	4.27167	6.09260E-002	7.34384E-005	0.00000E+000	6.20000E-002	-8.49272E-004	10	..........a	-327.74
	2569	4.28333	6.79160E-002	7.28368E-005	0.00000E+000	6.90000E-002	-8.09272E-004	10	..........a	-327.74
	2576	4.295	7.49360E-002	7.37893E-005	0.00000E+000	7.60000E-002	-8.69272E-004	10	..........a	-327.74
	2583	4.30667	8.18610E-002	7.26864E-005	0.00000E+000	8.30000E-002	-8.09272E-004	10	..........a	-327.74
	2590	4.31833	8.88860E-002	7.22854E-005	0.00000E+000	9.00000E-002	-8.29272E-004	10	..........a	-327.74
	2597	4.33	9.59210E-002	7.21851E-005	0.00000E+000	9.70000E-002	-8.09272E-004	10	..........a	-327.74
	2604	4.34167	1.02861E-001	7.23355E-005	0.00000E+000	1.04000E-001	-8.69272E-004	10	..........a	-327.74
	2611	4.35333	1.09881E-001	7.25360E-005	0.00000E+000	1.11000E-001	-8.39272E-004	10	..........a	-327.74
	2618	4.365	1.16811E-001	7.24358E-005	0.00000E+000	1.18000E-001	-8.19272E-004	10	..........a	-327.74
	2625	4.37667	1.23901E-001	7.22353E-005	0.00000E+000	1.25000E-001	-8.59272E-004	10	..........a	-327.74
	2632	4.38833	1.30911E-001	7.19345E-005	0.00000E+000	1.32000E-001	-8.39272E-004	10	..........a	-327.74
	2639	4.4	1.37866E-001	7.29872E-005	0.00000E+000	1.39000E-001	-8.89272E-004	10	..........a	-327.74
	2646	4.41167	1.44911E-001	7.33882E-005	0.00000E+000	1.46000E-001	-8.89272E-004	10	..........a	-327.74
	2653	4.42333	1.51911E-001	7.25360E-005	0.00000E+000	1.53000E-001	-8.39272E-004	10	..........a	-327.74
	2660	4.435	1.58891E-001	7.38394E-005	0.00000E+000	1.60000E-001	-8.29272E-004	10	..........a	-327.74
	2667	4.44667	1.65906E-001	7.44911E-005	0.00000E+000	1.67000E-001	-8.49272E-004	10	..........a	-327.74
	2674	4.45833	1.72831E-001	7.53934E-005	0.00000E+000	1.74000E-001	-8.19272E-004	10	..........a	-327.74
	2681	4.47	1.79796E-001	7.59449E-005	0.00000E+000	1.81000E-001	-8.29272E-004	10	..........a	-327.74
	2688	4.48167	1.86876E-001	7.59449E-005	0.00000E+000	1.88000E-001	-8.49272E-004	10	..........a	-327.74
	2695	4.49333	1.93821E-001	7.60451E-005	0.00000E+000	1.95000E-001	-8.39272E-004	10	..........a	-327.74
	2702	4.505	2.00891E-001	7.71480E-005	0.00000E+000	2.02000E-001	-8.29272E-004	10	..........a	-327.74
	2709	4.51667	2.07841E-001	7.64963E-005	0.00000E+000	2.09000E-001	-8.59272E-004	10	..........a	-327.74
	2716	4.52833	2.14851E-001	7.57945E-005	0.00000E+000	2.16000E-001	-8.29272E-004	10	..........a	-327.74
	2723	4.54	2.21931E-001	7.52430E-005	0.00000E+000	2.23000E-001	-8.89272E-004	10	..........a	-327.74
	2730	4.55167	2.28851E-001	7.51428E-005	0.00000E+000	2.30000E-001	-8.59272E-004	10	..........a	-327.74
	2737	4.56333	2.35796E-001	7.52932E-005	0.00000E+000	2.37000E-001	-8.39272E-004	10	..........a	-327.74
	2744	4.575	2.42811E-001	7.52430E-005	0.00000E+000	2.44000E-001	-8.69272E-004	10	..........a	-327.74
	2751	4.58667	2.49706E-001	7.37391E-005	0.00000E+000	2.51000E-001	-8.39272E-004	10	..........a	-327.74
	2758	4.59833	2.56841E-001	7.41402E-005	0.00000E+000	2.58000E-001	-9.19272E-004	10	..........a	-327.74
	2765	4.61	2.63811E-001	7.34885E-005	0.00000E+000	2.65000E-001	-8.39272E-004	10	..........a	-327.74
	2772	4.62167	2.70806E-001	7.08818E-005	0.00000E+000	2.72000E-001	-8.49272E-004	10	..........a	-327.74
	2779	4.63333	2.77866E-001	7.10321E-005	0.00000E+000	2.79000E-001	-8.29272E-004	10	..........a	-327.74
	2786	4.645	2.84776E-001	6.98792E-005	0.00000E+000	2.86000E-001	-8.69272E-004	10	..........a	-327.74
	2793	4.65667	2.91811E-001	6.99794E-005	0.00000E+000	2.93000E-001	-7.99272E-004	10	..........a	-327.74
	2800	4.66833	2.98826E-001	6.84254E-005	0.00000E+000	3.00000E-001	-8.09272E-004	10	..........a	-327.74
	2807	4.68	3.05756E-001	6.84755E-005	0.00000E+000	3.07000E-001	-8.29272E-004	10	..........a	-327.74
	2814	4.69167	3.12791E-001	6.69716E-005	0.00000E+000	3.14000E-001	-8.49272E-004	10	..........a	-327.74
	2821	4.70333	3.19791E-001	6.67711E-005	0.00000E+000	3.21000E-001	-8.69272E-004	10	..........a	-327.74
	2828	4.715	3.26816E-001	6.52672E-005	0.00000E+000	3.28000E-001	-8.59272E-004	10	..........a	-327.74
	2835	4.72667	3.33851E-001	6.58688E-005	0.00000E+000	3.35000E-001	-8.59272E-004	10	..........a	-327.74
	2842	4.73833	3.40776E-001	6.54677E-005	0.00000E+000	3.42000E-001	-8.39272E-004	10	..........a	-327.74
	2849	4.75	3.47816E-001	6.47158E-005	0.00000E+000	3.49000E-001	-8.69272E-004	10	..........a	-327.74
	2856	4.76167	3.54866E-001	6.41142E-005	0.00000E+000	3.56000E-001	-8.79272E-004	10	..........a	-327.74
	2863	4.77333	3.61786E-001	6.22594E-005	0.00000E+000	3.63000E-001	-8.59272E-004	10	..........a	-327.74
	2870	4.785	3.68781E-001	6.28610E-005	0.00000E+000	3.70000E-001	-8.39272E-004	10	..........a	-327.74
	2877	4.79667	3.75711E-001	6.12067E-005	0.00000E+000	3.77000E-001	-8.69272E-004	10	..........a	-327.74
	2884	4.80833	3.82766E-001	6.08558E-005	0.00000E+000	3.84000E-001	-8.39272E-004	10	..........a	-327.74
	2891	4.82	3.89801E-001	6.15576E-005	0.00000E+000	3.91000E-001	-8.49272E-004	10	..........a	-327.74
	2898	4.83167	3.96756E-001	5.99535E-005	0.00000E+000	3.98000E-001	-8.49272E-004	10	..........a	-327.74
	2905	4.84333	4.03741E-001	6.02543E-005	0.00000E+000	4.05000E-001	-8.59272E-004	10	..........a	-327.74
	2912	4.855	4.10796E-001	5.97028E-005	0.00000E+000	4.12000E-001	-8.99272E-004	10	..........a	-327.74
	2919	4.86667	4.17716E-001	5.92015E-005	0.00000E+000	4.19000E-001	-7.89272E-004	10	..........a	-327.74
	2926	4.87833	4.24711E-001	5.84496E-005	0.00000E+000	4.26000E-001	-8.49272E-004	10	..........a	-327.74
	2933	4.89	4.31746E-001	5.86000E-005	0.00000E+000	4.33000E-001	-8.39272E-004	10	..........a	-327.74
	2940	4.90167	4.38706E-001	5.70460E-005	0.00000E+000	4.40000E-001	-8.69272E-004	10	..........a	-327.74
	2947	4.91333	4.45751E-001	5.70961E-005	0.00000E+000	4.47000E-001	-8.69272E-004	10	..........a	-327.74
	2954	4.925	4.52691E-001	5.68956E-005	0.00000E+000	4.54000E-001	-8.29272E-004	10	..........a	-327.74
	2961	4.93667	4.59791E-001	5.57927E-005	0.00000E+000	4.61000E-001	-8.29272E-004	10	..........a	-327.74
	2968	4.94833	4.66736E-001	5.58428E-005	0.00000E+000	4.68000E-001	-8.19272E-004	10	..........a	-327.74
	2975	4.96	4.73736E-001	5.58930E-005	0.00000E+000	4.75000E-001	-8.79272E-004	10	..........a	-327.74
	2982	4.97167	4.80801E-001	5.54919E-005	0.00000E+000	4.82000E-001	-8.49272E-004	10	..........a	-327.74
	2989	4.98333	4.87741E-001	5.45395E-005	0.00000E+000	4.89000E-001	-8.79272E-004	10	..........a	-327.74
	2996	4.995	4.94686E-001	5.39880E-005	0.00000E+000	4.96000E-001	-8.09272E-004	10	..........a	-327.74
	3000	5.00167	4.98766E-001	5.40883E-005	0.00000E+000	5.00000E-001	-8.29272E-004	10	..........a	-327.74
CURVE2	TABLE
	Pt	T	Vf	Im	Vu	Sig	Ach	IERange	Over	Temp
	#	s	V vs. Ref.	A	V	V	V	#	bits	deg C
	3001	5.00333	4.98771E-001	5.38878E-005	0.00000E+000	5.00000E-001	-8.49272E-004	10	..........a	-327.74