File: data/02-SI/Figures_S9_S11_RDE/15btmapaq-rde/1mkcl-5mmolar15btmapaq-nitrogen-rde2500mvpers-50mvpers.DTA
EXPLAIN
TAG	LSV
TITLE	LABEL	Linear Sweep Voltammetry	Test &Identifier
DATE	LABEL	1/31/2023	Date
TIME	LABEL	18:29:19	Time
NOTES	NOTES	1	&Notes...

PSTAT	PSTAT	REF3000-21108	Potentiostat
VINIT	POTEN	5.00000E-001	F	&Initial E (V)
VFINAL	POTEN	-1.00000E+000	F	&Final E (V)
SCANRATE	QUANT	4.99999E+001	&Scan Rate (mV/s)
STEPSIZE	QUANT	1.00000E-001	St&ep Size (mV)
IMODE	SELECTOR	0	I/E Range &Mode
IRANGE	QUANT	1.00000E+002	&Max Current (mA)
AREA	QUANT	1.00000E+000	Electrode &Area (cm^2)
ELECTRODETYPE	SELECTOR	0	Electrode Type
STRIPPING	TOGGLE	F	Used for Stripping
POLARITY	TOGGLE	F	Signal Polarity
CONDIT	TWOPARAM	F	1.50000E+001	0.00000E+000	Conditionin&g	Time(s)	E(V)
DELAY	TWOPARAM	F	3.00000E+001	0.00000E+000	Init. De&lay	Time(s)	Stab.(mV/s)
EQDELAY	QUANT	0.00000E+000	Equil. &Time (s)
IRCOMP	SELECTOR	0	IRCom&p
PFCOR	QUANT	5.00000E+001	PF Corr. (ohm)
SAMPLINGMODE	SELECTOR	1	Sampling &Mode
EOC	QUANT	0	Open Circuit (V)
PSTATMODEL	IQUANT	5	Pstat Model
PSTATSECTION	LABEL	REF3000-21108	Pstat Section
PSTATSERIALNO	LABEL	21108	Pstat Serial Number
CTRLMODE	IQUANT	1	Control Mode
ELECTROMETER	IQUANT	0	RE=0 or CS=1
IESTAB	IQUANT	2	I/E Stability
CASPEED	IQUANT	4	Control Amp Speed
CONVENTION	IQUANT	1	Current Convention
ICHRANGE	IQUANT	2	Ich Range
ICHRANGEMODE	TOGGLE	F	Ich Auto Range
ICHOFFSETENABLE	TOGGLE	F	Ich Offset Enable
ICHOFFSET	QUANT	0	Ich Offset (V)
ICHFILTER	IQUANT	2	Ich Filter
VCHRANGE	IQUANT	2	Vch Range
VCHRANGEMODE	TOGGLE	T	Vch Auto Range
VCHOFFSETENABLE	TOGGLE	F	Vch Offset Enable
VCHOFFSET	QUANT	0	Vch Offset (V)
VCHFILTER	IQUANT	2	Vch Filter
ACHRANGE	IQUANT	2	Ach Range
ACHOFFSETENABLE	TOGGLE	F	Ach Offset Enable
ACHOFFSET	QUANT	0	Ach Offset (V)
ACHFILTER	IQUANT	0	Ach Filter
IERANGELOWERLIMIT	IQUANT	2	I/E Range Lower Limit
IERANGEMODE	TOGGLE	T	I/E AutoRange
IERANGE	IQUANT	11	I/E Range
POSFEEDENABLE	TOGGLE	F	Positive Feedback IR Comp
POSFEEDRESISTANCE	QUANT	0	Positive Feedback Resistance (ohm)
ACHSELECT	IQUANT	0	Ach Select
SENSECABLEID	IQUANT	14	Sense Cable ID
PWRCABLEID	IQUANT	7	Power Cable ID
DCCALDATE	LABEL	11/9/2022	DC Calibration Date
ACCALDATE	LABEL	11/9/2022	AC Calibration Date
THERMOSELECT	IQUANT	1	Thermo Select
FRAMEWORKVERSION	LABEL	7.8.2	Framework Version
INSTRUMENTVERSION	LABEL	4.40	Instrument Version
COMPLIANCEVOLTAGE	IQUANT	0	Compliance Voltage
CURVE	TABLE	15001
	Pt	T	Vf	Im	Vu	Sig	Ach	IERange	Over	Cycle	Temp
	#	s	V vs. Ref.	A	V	V	V	#	bits	#	deg C
	0	0.002	5.00329E-001	-7.38497E-005	0.00000E+000	5.00000E-001	6.20728E-004	11	..........a	0	-327.74
	32	0.066	4.96127E-001	8.27671E-006	0.00000E+000	4.96800E-001	6.04061E-004	8	..........a	0	-327.74
	64	0.13	4.92910E-001	5.46860E-006	0.00000E+000	4.93600E-001	4.95728E-004	8	..........a	0	-327.74
	96	0.194	4.89693E-001	4.26828E-006	0.00000E+000	4.90400E-001	4.87394E-004	8	..........a	0	-327.74
	128	0.258	4.86452E-001	3.27253E-006	0.00000E+000	4.87200E-001	5.04061E-004	8	..........a	0	-327.74
	160	0.322	4.83406E-001	2.90589E-006	0.00000E+000	4.84000E-001	5.87394E-004	8	..........a	0	-327.74
	192	0.386	4.80127E-001	2.63883E-006	0.00000E+000	4.80800E-001	5.54061E-004	8	..........a	0	-327.74
	224	0.45	4.76939E-001	2.19470E-006	0.00000E+000	4.77600E-001	5.62394E-004	8	..........a	0	-327.74
	256	0.514	4.73710E-001	2.01805E-006	0.00000E+000	4.74400E-001	5.12394E-004	8	..........a	0	-327.74
	288	0.578	4.70547E-001	1.70391E-006	0.00000E+000	4.71200E-001	5.45728E-004	8	..........a	0	-327.74
	320	0.642	4.67302E-001	1.68391E-006	0.00000E+000	4.68000E-001	5.70728E-004	8	..........a	0	-327.74
	352	0.706	4.64114E-001	1.56725E-006	0.00000E+000	4.64800E-001	4.95728E-004	8	..........a	0	-327.74
	384	0.77	4.60893E-001	1.38768E-006	0.00000E+000	4.61600E-001	5.12394E-004	8	..........a	0	-327.74
	416	0.834	4.57747E-001	1.38435E-006	0.00000E+000	4.58400E-001	5.62394E-004	8	..........a	0	-327.74
	448	0.898	4.54472E-001	1.34144E-006	0.00000E+000	4.55200E-001	5.45728E-004	8	..........a	0	-327.74
	480	0.962	4.51289E-001	1.11562E-006	0.00000E+000	4.52000E-001	5.54061E-004	8	..........a	0	-327.74
	512	1.026	4.48168E-001	1.08396E-006	0.00000E+000	4.48800E-001	5.37394E-004	8	..........a	0	-327.74
	544	1.09	4.44981E-001	8.88139E-007	0.00000E+000	4.45600E-001	5.20728E-004	8	..........a	0	-327.74
	576	1.154	4.41764E-001	9.95213E-007	0.00000E+000	4.42400E-001	5.79061E-004	8	..........a	0	-327.74
	608	1.218	4.38531E-001	7.60649E-007	0.00000E+000	4.39200E-001	5.62394E-004	8	..........a	0	-327.74
	640	1.282	4.35322E-001	8.58558E-007	0.00000E+000	4.36000E-001	5.95728E-004	8	..........a	0	-327.74
	672	1.346	4.32118E-001	8.06895E-007	0.00000E+000	4.32800E-001	5.87394E-004	8	..........a	0	-327.74
	704	1.41	4.28935E-001	7.73148E-007	0.00000E+000	4.29600E-001	5.87394E-004	8	..........a	0	-327.74
	736	1.474	4.25710E-001	6.36492E-007	0.00000E+000	4.26400E-001	6.04061E-004	8	..........a	0	-327.74
	768	1.538	4.22527E-001	6.28576E-007	0.00000E+000	4.23200E-001	5.70728E-004	8	..........a	0	-327.74
	800	1.602	4.19322E-001	5.65665E-007	0.00000E+000	4.20000E-001	5.62394E-004	8	..........a	0	-327.74
	832	1.666	4.16127E-001	6.83155E-007	0.00000E+000	4.16800E-001	4.87394E-004	8	..........a	0	-327.74
	864	1.73	4.12935E-001	4.21093E-007	0.00000E+000	4.13600E-001	4.29061E-004	8	..........a	0	-327.74
	896	1.794	4.09743E-001	5.48583E-007	0.00000E+000	4.10400E-001	5.37394E-004	8	..........a	0	-327.74
	928	1.858	4.06593E-001	4.26509E-007	0.00000E+000	4.07200E-001	5.62394E-004	8	..........a	0	-327.74
	960	1.922	4.03297E-001	4.84004E-007	0.00000E+000	4.04000E-001	5.45728E-004	8	..........a	0	-327.74
	992	1.986	4.00093E-001	5.37333E-007	0.00000E+000	4.00800E-001	4.95728E-004	8	..........a	0	-327.74
	1024	2.05	3.97022E-001	3.84429E-007	0.00000E+000	3.97600E-001	5.12394E-004	8	..........a	0	-327.74
	1056	2.114	3.93772E-001	5.53999E-007	0.00000E+000	3.94400E-001	4.95728E-004	8	..........a	0	-327.74
	1088	2.178	3.90593E-001	3.94428E-007	0.00000E+000	3.91200E-001	5.87394E-004	8	..........a	0	-327.74
	1120	2.242	3.87314E-001	2.56106E-007	0.00000E+000	3.88000E-001	5.37394E-004	8	..........a	0	-327.74
	1152	2.306	3.84143E-001	3.10268E-007	0.00000E+000	3.84800E-001	5.29061E-004	8	..........a	0	-327.74
	1184	2.37	3.80981E-001	3.73180E-007	0.00000E+000	3.81600E-001	5.62394E-004	8	..........a	0	-327.74
	1216	2.434	3.77810E-001	3.36933E-007	0.00000E+000	3.78400E-001	5.29061E-004	8	..........a	0	-327.74
	1248	2.498	3.74489E-001	2.71938E-007	0.00000E+000	3.75200E-001	5.62394E-004	8	..........a	0	-327.74
	1280	2.562	3.71368E-001	3.33600E-007	0.00000E+000	3.72000E-001	5.04061E-004	8	..........a	0	-327.74
	1312	2.626	3.68156E-001	2.98603E-007	0.00000E+000	3.68800E-001	5.45728E-004	8	..........a	0	-327.74
	1344	2.69	3.64910E-001	2.14443E-007	0.00000E+000	3.65600E-001	5.37394E-004	8	..........a	0	-327.74
	1376	2.754	3.61722E-001	2.86520E-007	0.00000E+000	3.62400E-001	4.37394E-004	8	..........a	0	-327.74
	1408	2.818	3.58585E-001	2.40691E-007	0.00000E+000	3.59200E-001	5.54061E-004	8	..........a	0	-327.74
	1440	2.882	3.55343E-001	1.83612E-007	0.00000E+000	3.56000E-001	5.04061E-004	8	..........a	0	-327.74
	1472	2.946	3.52143E-001	2.22775E-007	0.00000E+000	3.52800E-001	4.95728E-004	8	..........a	0	-327.74
	1504	3.01	3.48897E-001	2.52356E-007	0.00000E+000	3.49600E-001	4.87394E-004	8	..........a	0	-327.74
	1536	3.074	3.45768E-001	1.14867E-007	0.00000E+000	3.46400E-001	3.12394E-004	8	..........a	0	-327.74
	1568	3.138	3.42556E-001	1.74029E-007	0.00000E+000	3.43200E-001	5.37394E-004	8	..........a	0	-327.74
	1600	3.202	3.39402E-001	1.15284E-007	0.00000E+000	3.40000E-001	5.87394E-004	8	..........a	0	-327.74
	1632	3.266	3.36122E-001	2.29441E-007	0.00000E+000	3.36800E-001	4.12394E-004	8	..........a	0	-327.74
	1664	3.33	3.32977E-001	1.20284E-007	0.00000E+000	3.33600E-001	5.70728E-004	8	..........a	0	-327.74
	1696	3.394	3.29777E-001	2.25275E-007	0.00000E+000	3.30400E-001	5.20728E-004	8	..........a	0	-327.74
	1728	3.458	3.26539E-001	1.11118E-007	0.00000E+000	3.27200E-001	4.29061E-004	8	..........a	0	-327.74
	1760	3.522	3.23360E-001	1.86945E-007	0.00000E+000	3.24000E-001	4.87394E-004	8	..........a	0	-327.74
	1792	3.586	3.20135E-001	1.32366E-007	0.00000E+000	3.20800E-001	5.45728E-004	8	..........a	0	-327.74
	1824	3.65	3.16960E-001	2.35274E-007	0.00000E+000	3.17600E-001	5.04061E-004	8	..........a	0	-327.74
	1856	3.714	3.13735E-001	1.36116E-007	0.00000E+000	3.14400E-001	5.04061E-004	8	..........a	0	-327.74
	1888	3.778	3.10514E-001	8.90361E-008	0.00000E+000	3.11200E-001	4.37394E-004	8	..........a	0	-327.74
	1920	3.842	3.07356E-001	9.07026E-008	0.00000E+000	3.08000E-001	3.54061E-004	8	..........a	0	-327.74
	1952	3.906	3.04135E-001	1.19034E-007	0.00000E+000	3.04800E-001	4.20728E-004	8	..........a	0	-327.74
	1984	3.97	3.00935E-001	1.11951E-007	0.00000E+000	3.01600E-001	3.54061E-004	8	..........a	0	-327.74
	2016	4.034	2.97739E-001	1.41115E-007	0.00000E+000	2.98400E-001	4.20728E-004	8	..........a	0	-327.74
	2048	4.098	2.94543E-001	9.57022E-008	0.00000E+000	2.95200E-001	4.54061E-004	8	..........a	0	-327.74
	2080	4.162	2.91414E-001	4.27898E-008	0.00000E+000	2.92000E-001	5.12394E-004	8	..........a	0	-327.74
	2112	4.226	2.88160E-001	7.27874E-008	0.00000E+000	2.88800E-001	5.12394E-004	8	..........a	0	-327.74
	2144	4.29	2.84935E-001	-3.88703E-008	0.00000E+000	2.85600E-001	5.70728E-004	8	..........a	0	-327.74
	2176	4.354	2.81752E-001	5.19557E-008	0.00000E+000	2.82400E-001	3.79061E-004	8	..........a	0	-327.74
	2208	4.418	2.78552E-001	-3.87310E-009	0.00000E+000	2.79200E-001	5.37394E-004	8	..........a	0	-327.74
	2240	4.482	2.75347E-001	-8.87270E-009	0.00000E+000	2.76000E-001	3.95728E-004	8	..........a	0	-327.74
	2272	4.546	2.72181E-001	-3.97036E-008	0.00000E+000	2.72800E-001	5.87394E-004	8	..........a	0	-327.74
	2304	4.61	2.69006E-001	-1.76220E-008	0.00000E+000	2.69600E-001	3.62394E-004	8	..........a	0	-327.74
	2336	4.674	2.65677E-001	-1.05532E-007	0.00000E+000	2.66400E-001	3.79061E-004	8	..........a	0	-327.74
	2368	4.738	2.62585E-001	1.23756E-008	0.00000E+000	2.63200E-001	4.54061E-004	8	..........a	0	-327.74
	2400	4.802	2.59364E-001	8.86195E-008	0.00000E+000	2.60000E-001	3.79061E-004	8	..........a	0	-327.74
	2432	4.866	2.56143E-001	9.69521E-008	0.00000E+000	2.56800E-001	4.45728E-004	8	..........a	0	-327.74
	2464	4.93	2.53006E-001	-8.76164E-008	0.00000E+000	2.53600E-001	4.62394E-004	8	..........a	0	-327.74
	2496	4.994	2.49797E-001	-6.76180E-008	0.00000E+000	2.50400E-001	5.95728E-004	8	..........a	0	-327.74
	2528	5.058	2.46614E-001	6.54273E-009	0.00000E+000	2.47200E-001	5.37394E-004	8	..........a	0	-327.74
	2560	5.122	2.43418E-001	-2.34549E-008	0.00000E+000	2.44000E-001	4.62394E-004	8	..........a	0	-327.74
	2592	5.186	2.39628E-001	-9.59490E-008	0.00000E+000	2.40800E-001	4.62394E-004	8	..........a	0	-327.74
	2624	5.25	2.36436E-001	-8.05336E-008	0.00000E+000	2.37600E-001	4.45728E-004	8	..........a	0	-327.74
	2656	5.314	2.33245E-001	-1.10948E-007	0.00000E+000	2.34400E-001	5.62394E-004	8	..........a	0	-327.74
	2688	5.378	2.30036E-001	-1.17614E-007	0.00000E+000	2.31200E-001	5.04061E-004	8	..........a	0	-327.74
	2720	5.442	2.26842E-001	-5.53964E-009	0.00000E+000	2.28000E-001	2.95728E-004	8	..........a	0	-327.74
	2752	5.506	2.23645E-001	-2.59547E-008	0.00000E+000	2.24800E-001	4.79061E-004	8	..........a	0	-327.74
	2784	5.57	2.20445E-001	-1.28030E-007	0.00000E+000	2.21600E-001	4.70728E-004	8	..........a	0	-327.74
	2816	5.634	2.17254E-001	-2.76212E-008	0.00000E+000	2.18400E-001	4.79061E-004	8	..........a	0	-327.74
	2848	5.698	2.14048E-001	-1.29696E-007	0.00000E+000	2.15200E-001	4.20728E-004	8	..........a	0	-327.74
	2880	5.762	2.10843E-001	-1.34279E-007	0.00000E+000	2.12000E-001	4.29061E-004	8	..........a	0	-327.74
	2912	5.826	2.07653E-001	-6.17851E-008	0.00000E+000	2.08800E-001	4.45728E-004	8	..........a	0	-327.74
	2944	5.89	2.04453E-001	-9.96987E-008	0.00000E+000	2.05600E-001	4.54061E-004	8	..........a	0	-327.74
	2976	5.954	2.01265E-001	-1.80942E-007	0.00000E+000	2.02400E-001	4.45728E-004	8	..........a	0	-327.74
	3008	6.018	1.98055E-001	-1.39696E-007	0.00000E+000	1.99200E-001	5.95728E-004	8	..........a	0	-327.74
	3040	6.082	1.94856E-001	-2.08023E-007	0.00000E+000	1.96000E-001	5.29061E-004	8	..........a	0	-327.74
	3072	6.146	1.91654E-001	-7.30342E-008	0.00000E+000	1.92800E-001	5.12394E-004	8	..........a	0	-327.74
	3104	6.21	1.88446E-001	-1.80109E-007	0.00000E+000	1.89600E-001	3.70728E-004	8	..........a	0	-327.74
	3136	6.274	1.85263E-001	-2.80378E-008	0.00000E+000	1.86400E-001	4.04061E-004	8	..........a	0	-327.74
	3168	6.338	1.82066E-001	-1.38862E-007	0.00000E+000	1.83200E-001	4.04061E-004	8	..........a	0	-327.74
	3200	6.402	1.78868E-001	-1.51361E-007	0.00000E+000	1.80000E-001	4.95728E-004	8	..........a	0	-327.74
	3232	6.466	1.75668E-001	-1.76220E-008	0.00000E+000	1.76800E-001	4.54061E-004	8	..........a	0	-327.74
	3264	6.53	1.72466E-001	-1.92608E-007	0.00000E+000	1.73600E-001	4.12394E-004	8	..........a	0	-327.74
	3296	6.594	1.69268E-001	-1.70526E-007	0.00000E+000	1.70400E-001	3.79061E-004	8	..........a	0	-327.74
	3328	6.658	1.66073E-001	-1.65943E-007	0.00000E+000	1.67200E-001	4.37394E-004	8	..........a	0	-327.74
	3360	6.722	1.62874E-001	-2.41354E-007	0.00000E+000	1.64000E-001	5.54061E-004	8	..........a	0	-327.74
	3392	6.786	1.59670E-001	-1.62610E-007	0.00000E+000	1.60800E-001	5.04061E-004	8	..........a	0	-327.74
	3424	6.85	1.56477E-001	-8.76164E-008	0.00000E+000	1.57600E-001	4.37394E-004	8	..........a	0	-327.74
	3456	6.914	1.53268E-001	-2.29688E-007	0.00000E+000	1.54400E-001	3.37394E-004	8	..........a	0	-327.74
	3488	6.978	1.50074E-001	-2.69268E-007	0.00000E+000	1.51200E-001	5.45728E-004	8	..........a	0	-327.74
	3520	7.042	1.46881E-001	-1.57611E-007	0.00000E+000	1.48000E-001	5.20728E-004	8	..........a	0	-327.74
	3552	7.106	1.43676E-001	-1.53028E-007	0.00000E+000	1.44800E-001	6.04061E-004	8	..........a	0	-327.74
	3584	7.17	1.40483E-001	-1.68027E-007	0.00000E+000	1.41600E-001	5.04061E-004	8	..........a	0	-327.74
	3616	7.234	1.37278E-001	-2.44687E-007	0.00000E+000	1.38400E-001	4.95728E-004	8	..........a	0	-327.74
	3648	7.298	1.34086E-001	-2.30105E-007	0.00000E+000	1.35200E-001	4.70728E-004	8	..........a	0	-327.74
	3680	7.362	1.30888E-001	-9.26160E-008	0.00000E+000	1.32000E-001	5.12394E-004	8	..........a	0	-327.74
	3712	7.426	1.27685E-001	-1.97191E-007	0.00000E+000	1.28800E-001	5.87394E-004	8	..........a	0	-327.74
	3744	7.49	1.24489E-001	-2.09273E-007	0.00000E+000	1.25600E-001	5.29061E-004	8	..........a	0	-327.74
	3776	7.554	1.21291E-001	-2.48020E-007	0.00000E+000	1.22400E-001	5.04061E-004	8	..........a	0	-327.74
	3808	7.618	1.18085E-001	-1.76776E-007	0.00000E+000	1.19200E-001	5.45728E-004	8	..........a	0	-327.74
	3840	7.682	1.14900E-001	-2.08440E-007	0.00000E+000	1.16000E-001	4.95728E-004	8	..........a	0	-327.74
	3872	7.746	1.11694E-001	-1.98024E-007	0.00000E+000	1.12800E-001	6.04061E-004	8	..........a	0	-327.74
	3904	7.81	1.08496E-001	-2.33021E-007	0.00000E+000	1.09600E-001	5.20728E-004	8	..........a	0	-327.74
	3936	7.874	1.05307E-001	-2.25939E-007	0.00000E+000	1.06400E-001	5.62394E-004	8	..........a	0	-327.74
	3968	7.938	1.02117E-001	-1.92191E-007	0.00000E+000	1.03200E-001	5.54061E-004	8	..........a	0	-327.74
	4000	8.002	9.89110E-002	-2.40104E-007	0.00000E+000	1.00000E-001	5.45728E-004	8	..........a	0	-327.74
	4032	8.066	9.57097E-002	-1.63444E-007	0.00000E+000	9.68000E-002	5.70728E-004	8	..........a	0	-327.74
	4064	8.13	9.25114E-002	-2.15523E-007	0.00000E+000	9.36000E-002	5.95728E-004	8	..........a	0	-327.74
	4096	8.194	8.92989E-002	-2.59269E-007	0.00000E+000	9.04000E-002	4.37394E-004	8	..........a	0	-327.74
	4128	8.258	8.61172E-002	-2.25105E-007	0.00000E+000	8.72000E-002	5.79061E-004	8	..........a	0	-327.74
	4160	8.322	8.29060E-002	-2.05107E-007	0.00000E+000	8.40000E-002	5.95728E-004	8	..........a	0	-327.74
	4192	8.386	7.97256E-002	-1.66360E-007	0.00000E+000	8.08000E-002	5.95728E-004	8	..........a	0	-327.74
	4224	8.45	7.65176E-002	-2.05524E-007	0.00000E+000	7.76000E-002	5.95728E-004	8	..........a	0	-327.74
	4256	8.514	7.33218E-002	-2.41771E-007	0.00000E+000	7.44000E-002	5.54061E-004	8	..........a	0	-327.74
	4288	8.578	7.01131E-002	-2.54686E-007	0.00000E+000	7.12000E-002	6.12394E-004	8	..........a	0	-327.74
	4320	8.642	6.69226E-002	-2.99266E-007	0.00000E+000	6.80000E-002	5.54061E-004	8	..........a	0	-327.74
	4352	8.706	6.37276E-002	-1.37196E-007	0.00000E+000	6.48000E-002	5.20728E-004	8	..........a	0	-327.74
	4384	8.77	6.05289E-002	-2.32188E-007	0.00000E+000	6.16000E-002	4.79061E-004	8	..........a	0	-327.74
	4416	8.834	5.73331E-002	-3.51762E-007	0.00000E+000	5.84000E-002	6.12394E-004	8	..........a	0	-327.74
	4448	8.898	5.41364E-002	-2.35521E-007	0.00000E+000	5.52000E-002	5.37394E-004	8	..........a	0	-327.74
	4480	8.962	5.09376E-002	-2.47604E-007	0.00000E+000	5.20000E-002	5.04061E-004	8	..........a	0	-327.74
	4512	9.026	4.77226E-002	-2.47187E-007	0.00000E+000	4.88000E-002	5.45728E-004	8	..........a	0	-327.74
	4544	9.09	4.45460E-002	-2.49687E-007	0.00000E+000	4.56000E-002	5.70728E-004	8	..........a	0	-327.74
	4576	9.154	4.13335E-002	-3.50929E-007	0.00000E+000	4.24000E-002	5.70728E-004	8	..........a	0	-327.74
	4608	9.218	3.81385E-002	-3.28014E-007	0.00000E+000	3.92000E-002	5.62394E-004	8	..........a	0	-327.74
	4640	9.282	3.49401E-002	-2.47187E-007	0.00000E+000	3.60000E-002	6.04061E-004	8	..........a	0	-327.74
	4672	9.346	3.17556E-002	-2.28438E-007	0.00000E+000	3.28000E-002	5.87394E-004	8	..........a	0	-327.74
	4704	9.41	2.85481E-002	-2.50103E-007	0.00000E+000	2.96000E-002	5.45728E-004	8	..........a	0	-327.74
	4736	9.474	2.53531E-002	-3.82176E-007	0.00000E+000	2.64000E-002	6.04061E-004	8	..........a	0	-327.74
	4768	9.538	2.20765E-002	-3.26764E-007	0.00000E+000	2.32000E-002	6.12394E-004	8	..........a	0	-327.74
	4800	9.602	1.88862E-002	-3.00516E-007	0.00000E+000	2.00000E-002	5.79061E-004	8	..........a	0	-327.74
	4832	9.666	1.56948E-002	-3.91342E-007	0.00000E+000	1.68000E-002	4.62394E-004	8	..........a	0	-327.74
	4864	9.73	1.24859E-002	-3.05099E-007	0.00000E+000	1.36000E-002	5.20728E-004	8	..........a	0	-327.74
	4896	9.794	9.28843E-003	-2.70935E-007	0.00000E+000	1.04000E-002	5.45728E-004	8	..........a	0	-327.74
	4928	9.858	6.08285E-003	-5.16332E-007	0.00000E+000	7.20000E-003	6.20728E-004	8	..........a	0	-327.74
	4960	9.922	2.90306E-003	-2.20106E-007	0.00000E+000	4.00001E-003	6.04061E-004	8	..........a	0	-327.74
	4992	9.986	-2.85193E-004	-2.38854E-007	0.00000E+000	7.99984E-004	5.29061E-004	8	..........a	0	-327.74
	5024	10.05	-3.50261E-003	-3.67177E-007	0.00000E+000	-2.40001E-003	5.20728E-004	8	..........a	0	-327.74
	5056	10.114	-6.69294E-003	-3.05932E-007	0.00000E+000	-5.60001E-003	5.95728E-004	8	..........a	0	-327.74
	5088	10.178	-9.88803E-003	-3.00516E-007	0.00000E+000	-8.80000E-003	5.54061E-004	8	..........a	0	-327.74
	5120	10.242	-1.30938E-002	-4.01341E-007	0.00000E+000	-1.20000E-002	5.70728E-004	8	..........a	0	-327.74
	5152	10.306	-1.62886E-002	-3.28430E-007	0.00000E+000	-1.52000E-002	5.54061E-004	8	..........a	0	-327.74
	5184	10.37	-1.94947E-002	-3.96758E-007	0.00000E+000	-1.84000E-002	5.37394E-004	8	..........a	0	-327.74
	5216	10.434	-2.26842E-002	-4.23006E-007	0.00000E+000	-2.16000E-002	5.79061E-004	8	..........a	0	-327.74
	5248	10.498	-2.58803E-002	-5.04250E-007	0.00000E+000	-2.48000E-002	5.70728E-004	8	..........a	0	-327.74
	5280	10.562	-2.90240E-002	-3.94675E-007	0.00000E+000	-2.80000E-002	5.29061E-004	8	..........a	0	-327.74
	5312	10.626	-3.22382E-002	-5.29248E-007	0.00000E+000	-3.12000E-002	5.29061E-004	8	..........a	0	-327.74
	5344	10.69	-3.54078E-002	-3.92592E-007	0.00000E+000	-3.44000E-002	5.95728E-004	8	..........a	0	-327.74
	5376	10.754	-3.86136E-002	-4.18840E-007	0.00000E+000	-3.76000E-002	5.79061E-004	8	..........a	0	-327.74
	5408	10.818	-4.18315E-002	-3.92592E-007	0.00000E+000	-4.08000E-002	5.20728E-004	8	..........a	0	-327.74
	5440	10.882	-4.50282E-002	-3.83843E-007	0.00000E+000	-4.40000E-002	5.95728E-004	8	..........a	0	-327.74
	5472	10.946	-4.82319E-002	-4.72169E-007	0.00000E+000	-4.72000E-002	5.54061E-004	8	..........a	0	-327.74
	5504	11.01	-5.14182E-002	-3.90509E-007	0.00000E+000	-5.04000E-002	5.87394E-004	8	..........a	0	-327.74
	5536	11.074	-5.46124E-002	-4.56337E-007	0.00000E+000	-5.36000E-002	5.95728E-004	8	..........a	0	-327.74
	5568	11.138	-5.78115E-002	-3.98008E-007	0.00000E+000	-5.68000E-002	5.87394E-004	8	..........a	0	-327.74
	5600	11.202	-6.10303E-002	-4.72585E-007	0.00000E+000	-6.00000E-002	5.79061E-004	8	..........a	0	-327.74
	5632	11.266	-6.42165E-002	-4.70919E-007	0.00000E+000	-6.32000E-002	5.29061E-004	8	..........a	0	-327.74
	5664	11.33	-6.74228E-002	-4.93417E-007	0.00000E+000	-6.64000E-002	5.37394E-004	8	..........a	0	-327.74
	5696	11.394	-7.06049E-002	-5.13832E-007	0.00000E+000	-6.96000E-002	6.37394E-004	8	..........a	0	-327.74
	5728	11.458	-7.38182E-002	-5.08416E-007	0.00000E+000	-7.28000E-002	5.62394E-004	8	..........a	0	-327.74
	5760	11.522	-7.70003E-002	-4.74669E-007	0.00000E+000	-7.60000E-002	4.87394E-004	8	..........a	0	-327.74
	5792	11.586	-8.02140E-002	-6.48821E-007	0.00000E+000	-7.92000E-002	6.37394E-004	8	..........a	0	-327.74
	5824	11.65	-8.34057E-002	-5.75494E-007	0.00000E+000	-8.24000E-002	6.37394E-004	8	..........a	0	-327.74
	5856	11.714	-8.66069E-002	-6.50071E-007	0.00000E+000	-8.56000E-002	4.62394E-004	8	..........a	0	-327.74
	5888	11.778	-8.97974E-002	-6.86318E-007	0.00000E+000	-8.88000E-002	5.95728E-004	8	..........a	0	-327.74
	5920	11.842	-9.30032E-002	-7.60896E-007	0.00000E+000	-9.20000E-002	5.62394E-004	8	..........a	0	-327.74
	5952	11.906	-9.61936E-002	-6.50488E-007	0.00000E+000	-9.52000E-002	5.54061E-004	8	..........a	0	-327.74
	5984	11.97	-9.93803E-002	-7.13816E-007	0.00000E+000	-9.84000E-002	5.29061E-004	8	..........a	0	-327.74
	6016	12.034	-1.02589E-001	-8.17141E-007	0.00000E+000	-1.01600E-001	5.12394E-004	8	..........a	0	-327.74
	6048	12.098	-1.05800E-001	-8.43389E-007	0.00000E+000	-1.04800E-001	4.54061E-004	8	..........a	0	-327.74
	6080	12.162	-1.08990E-001	-8.17974E-007	0.00000E+000	-1.08000E-001	5.37394E-004	8	..........a	0	-327.74
	6112	12.226	-1.12180E-001	-9.15883E-007	0.00000E+000	-1.11200E-001	5.87394E-004	8	..........a	0	-327.74
	6144	12.29	-1.15380E-001	-8.50055E-007	0.00000E+000	-1.14400E-001	5.54061E-004	8	..........a	0	-327.74
	6176	12.354	-1.18584E-001	-9.62129E-007	0.00000E+000	-1.17600E-001	5.20728E-004	8	..........a	0	-327.74
	6208	12.418	-1.21798E-001	-1.10462E-006	0.00000E+000	-1.20800E-001	5.04061E-004	8	..........a	0	-327.74
	6240	12.482	-1.24992E-001	-1.03087E-006	0.00000E+000	-1.24000E-001	5.54061E-004	8	..........a	0	-327.74
	6272	12.546	-1.28182E-001	-1.16711E-006	0.00000E+000	-1.27200E-001	5.87394E-004	8	..........a	0	-327.74
	6304	12.61	-1.31376E-001	-1.13003E-006	0.00000E+000	-1.30400E-001	5.20728E-004	8	..........a	0	-327.74
	6336	12.674	-1.34590E-001	-1.27335E-006	0.00000E+000	-1.33600E-001	4.79061E-004	8	..........a	0	-327.74
	6368	12.738	-1.37785E-001	-1.43917E-006	0.00000E+000	-1.36800E-001	5.95728E-004	8	..........a	0	-327.74
	6400	12.802	-1.40978E-001	-1.50000E-006	0.00000E+000	-1.40000E-001	5.79061E-004	8	..........a	0	-327.74
	6432	12.866	-1.44184E-001	-1.55625E-006	0.00000E+000	-1.43200E-001	5.54061E-004	8	..........a	0	-327.74
	6464	12.93	-1.47377E-001	-1.63833E-006	0.00000E+000	-1.46400E-001	5.29061E-004	8	..........a	0	-327.74
	6496	12.994	-1.50576E-001	-1.78623E-006	0.00000E+000	-1.49600E-001	5.12394E-004	8	..........a	0	-327.74
	6528	13.058	-1.53771E-001	-1.87622E-006	0.00000E+000	-1.52800E-001	5.62394E-004	8	..........a	0	-327.74
	6560	13.122	-1.56982E-001	-2.04038E-006	0.00000E+000	-1.56000E-001	4.70728E-004	8	..........a	0	-327.74
	6592	13.186	-1.60170E-001	-2.12912E-006	0.00000E+000	-1.59200E-001	4.54061E-004	8	..........a	0	-327.74
	6624	13.25	-1.63358E-001	-2.33244E-006	0.00000E+000	-1.62400E-001	6.12394E-004	8	..........a	0	-327.74
	6656	13.314	-1.66570E-001	-2.43493E-006	0.00000E+000	-1.65600E-001	6.04061E-004	8	..........a	0	-327.74
	6688	13.378	-1.69763E-001	-2.53784E-006	0.00000E+000	-1.68800E-001	5.79061E-004	8	..........a	0	-327.74
	6720	13.442	-1.72959E-001	-2.69491E-006	0.00000E+000	-1.72000E-001	5.45728E-004	8	..........a	0	-327.74
	6752	13.506	-1.76162E-001	-2.96530E-006	0.00000E+000	-1.75200E-001	5.29061E-004	8	..........a	0	-327.74
	6784	13.57	-1.79352E-001	-3.12529E-006	0.00000E+000	-1.78400E-001	5.29061E-004	8	..........a	0	-327.74
	6816	13.634	-1.82552E-001	-3.37194E-006	0.00000E+000	-1.81600E-001	5.54061E-004	8	..........a	0	-327.74
	6848	13.698	-1.85759E-001	-3.70566E-006	0.00000E+000	-1.84800E-001	5.79061E-004	8	..........a	0	-327.74
	6880	13.762	-1.88947E-001	-3.93272E-006	0.00000E+000	-1.88000E-001	5.79061E-004	8	..........a	0	-327.74
	6912	13.826	-1.92149E-001	-4.17437E-006	0.00000E+000	-1.91200E-001	5.20728E-004	8	..........a	0	-327.74
	6944	13.89	-1.95359E-001	-4.39477E-006	0.00000E+000	-1.94400E-001	4.87394E-004	8	..........a	0	-327.74
	6976	13.954	-1.98555E-001	-4.77307E-006	0.00000E+000	-1.97600E-001	4.70728E-004	8	..........a	0	-327.74
	7008	14.018	-2.01744E-001	-5.11471E-006	0.00000E+000	-2.00800E-001	5.70728E-004	8	..........a	0	-327.74
	7040	14.082	-2.04944E-001	-5.63759E-006	0.00000E+000	-2.04000E-001	6.04061E-004	8	..........a	0	-327.74
	7072	14.146	-2.08137E-001	-5.80632E-006	0.00000E+000	-2.07200E-001	6.12394E-004	8	..........a	0	-327.74
	7104	14.21	-2.11340E-001	-6.23212E-006	0.00000E+000	-2.10400E-001	5.20728E-004	8	..........a	0	-327.74
	7136	14.274	-2.14539E-001	-6.64209E-006	0.00000E+000	-2.13600E-001	6.45728E-004	8	..........a	0	-327.74
	7168	14.338	-2.17732E-001	-7.10205E-006	0.00000E+000	-2.16800E-001	6.20728E-004	8	..........a	0	-327.74
	7200	14.402	-2.20933E-001	-7.62493E-006	0.00000E+000	-2.20000E-001	5.37394E-004	8	..........a	0	-327.74
	7232	14.466	-2.24134E-001	-8.09864E-006	0.00000E+000	-2.23200E-001	6.04061E-004	8	..........a	0	-327.74
	7264	14.53	-2.27325E-001	-8.58193E-006	0.00000E+000	-2.26400E-001	6.04061E-004	8	..........a	0	-327.74
	7296	14.594	-2.30522E-001	-9.17105E-006	0.00000E+000	-2.29600E-001	5.87394E-004	8	..........a	0	-327.74
	7328	14.658	-2.33717E-001	-9.86975E-006	0.00000E+000	-2.32800E-001	6.20728E-004	8	..........a	0	-327.74
	7360	14.722	-2.36924E-001	-1.02847E-005	0.00000E+000	-2.36000E-001	5.79061E-004	8	..........a	0	-327.74
	7392	14.786	-2.40123E-001	-1.08755E-005	0.00000E+000	-2.39200E-001	5.04061E-004	8	..........a	0	-327.74
	7424	14.85	-2.43322E-001	-1.15429E-005	0.00000E+000	-2.42400E-001	5.37394E-004	8	..........a	0	-327.74
	7456	14.914	-2.46515E-001	-1.23062E-005	0.00000E+000	-2.45600E-001	5.62394E-004	8	..........a	0	-327.74
	7488	14.978	-2.49714E-001	-1.29266E-005	0.00000E+000	-2.48800E-001	6.29061E-004	8	..........a	0	-327.74
	7520	15.042	-2.52919E-001	-1.35599E-005	0.00000E+000	-2.52000E-001	6.12394E-004	8	..........a	0	-327.74
	7552	15.106	-2.56114E-001	-1.41802E-005	0.00000E+000	-2.55200E-001	5.87394E-004	8	..........a	0	-327.74
	7584	15.17	-2.59321E-001	-1.48877E-005	0.00000E+000	-2.58400E-001	5.87394E-004	8	..........a	0	-327.74
	7616	15.234	-2.62512E-001	-1.55243E-005	0.00000E+000	-2.61600E-001	6.12394E-004	8	..........a	0	-327.74
	7648	15.298	-2.65713E-001	-1.62846E-005	0.00000E+000	-2.64800E-001	5.70728E-004	8	..........a	0	-327.74
	7680	15.362	-2.68340E-001	-1.70904E-005	0.00000E+000	-2.68000E-001	6.04061E-004	8	..........a	0	-327.74
	7712	15.426	-2.71573E-001	-1.76129E-005	0.00000E+000	-2.71200E-001	4.87394E-004	8	..........a	0	-327.74
	7744	15.49	-2.74748E-001	-1.83828E-005	0.00000E+000	-2.74400E-001	6.79061E-004	8	..........a	0	-327.74
	7776	15.554	-2.77936E-001	-1.90882E-005	0.00000E+000	-2.77600E-001	6.04061E-004	8	..........a	0	-327.74
	7808	15.618	-2.81140E-001	-1.98677E-005	0.00000E+000	-2.80800E-001	6.04061E-004	8	..........a	0	-327.74
	7840	15.682	-2.84298E-001	-2.05860E-005	0.00000E+000	-2.84000E-001	5.70728E-004	8	..........a	0	-327.74
	7872	15.746	-2.87598E-001	-2.12476E-005	0.00000E+000	-2.87200E-001	5.12394E-004	8	..........a	0	-327.74
	7904	15.81	-2.90769E-001	-2.18775E-005	0.00000E+000	-2.90400E-001	5.45728E-004	8	..........a	0	-327.74
	7936	15.874	-2.93948E-001	-2.27254E-005	0.00000E+000	-2.93600E-001	6.29061E-004	8	..........a	0	-327.74
	7968	15.938	-2.97098E-001	-2.33437E-005	0.00000E+000	-2.96800E-001	5.87394E-004	8	..........a	0	-327.74
	8000	16.002	-3.00353E-001	-2.39753E-005	0.00000E+000	-3.00000E-001	5.29061E-004	8	..........a	0	-327.74
	8032	16.066	-3.03540E-001	-2.47152E-005	0.00000E+000	-3.03200E-001	4.70728E-004	8	..........a	0	-327.74
	8064	16.13	-3.06761E-001	-2.53843E-005	0.00000E+000	-3.06400E-001	4.95728E-004	8	..........a	0	-327.74
	8096	16.194	-3.09903E-001	-2.60447E-005	0.00000E+000	-3.09600E-001	6.29061E-004	8	..........a	0	-327.74
	8128	16.258	-3.13178E-001	-2.67180E-005	0.00000E+000	-3.12800E-001	4.62394E-004	8	..........a	0	-327.74
	8160	16.322	-3.16390E-001	-2.74013E-005	0.00000E+000	-3.16000E-001	5.70728E-004	8	..........a	0	-327.74
	8192	16.386	-3.19490E-001	-2.80033E-005	0.00000E+000	-3.19200E-001	5.37394E-004	8	..........a	0	-327.74
	8224	16.45	-3.22748E-001	-2.87332E-005	0.00000E+000	-3.22400E-001	5.87394E-004	8	..........a	0	-327.74
	8256	16.514	-3.25994E-001	-2.94340E-005	0.00000E+000	-3.25600E-001	5.20728E-004	8	..........a	0	-327.74
	8288	16.578	-3.29153E-001	-2.99873E-005	0.00000E+000	-3.28800E-001	4.95728E-004	8	..........a	0	-327.74
	8320	16.642	-3.32390E-001	-3.08027E-005	0.00000E+000	-3.32000E-001	5.54061E-004	8	..........a	0	-327.74
	8352	16.706	-3.35557E-001	-3.14022E-005	0.00000E+000	-3.35200E-001	5.62394E-004	8	..........a	0	-327.74
	8384	16.77	-3.38732E-001	-3.20780E-005	0.00000E+000	-3.38400E-001	5.70728E-004	8	..........a	0	-327.74
	8416	16.834	-3.41953E-001	-3.27583E-005	0.00000E+000	-3.41600E-001	5.54061E-004	8	..........a	0	-327.74
	8448	16.898	-3.45107E-001	-3.33591E-005	0.00000E+000	-3.44800E-001	5.20728E-004	8	..........a	0	-327.74
	8480	16.962	-3.48361E-001	-3.40470E-005	0.00000E+000	-3.48000E-001	4.87394E-004	8	..........a	0	-327.74
	8512	17.026	-3.51557E-001	-3.46548E-005	0.00000E+000	-3.51200E-001	5.45728E-004	8	..........a	0	-327.74
	8544	17.09	-3.54711E-001	-3.54081E-005	0.00000E+000	-3.54400E-001	5.37394E-004	8	..........a	0	-327.74
	8576	17.154	-3.57965E-001	-3.59502E-005	0.00000E+000	-3.57600E-001	5.20728E-004	8	..........a	0	-327.74
	8608	17.218	-3.61132E-001	-3.66830E-005	0.00000E+000	-3.60800E-001	5.29061E-004	8	..........a	0	-327.74
	8640	17.282	-3.64298E-001	-3.75063E-005	0.00000E+000	-3.64000E-001	5.12394E-004	8	..........a	0	-327.74
	8672	17.346	-3.67482E-001	-3.81037E-005	0.00000E+000	-3.67200E-001	5.04061E-004	8	..........a	0	-327.74
	8704	17.41	-3.70728E-001	-3.88937E-005	0.00000E+000	-3.70400E-001	4.54061E-004	8	..........a	0	-327.74
	8736	17.474	-3.73865E-001	-3.97782E-005	0.00000E+000	-3.73600E-001	5.37394E-004	8	..........a	0	-327.74
	8768	17.538	-3.77128E-001	-4.06389E-005	0.00000E+000	-3.76800E-001	4.62394E-004	8	..........a	0	-327.74
	8800	17.602	-3.80353E-001	-4.13385E-005	0.00000E+000	-3.80000E-001	5.12394E-004	8	..........a	0	-327.74
	8832	17.666	-3.83565E-001	-4.24180E-005	0.00000E+000	-3.83200E-001	4.95728E-004	8	..........a	0	-327.74
	8864	17.73	-3.86623E-001	-4.33104E-005	0.00000E+000	-3.86400E-001	4.79061E-004	8	..........a	0	-327.74
	8896	17.794	-3.89878E-001	-4.45545E-005	0.00000E+000	-3.89600E-001	5.54061E-004	8	..........a	0	-327.74
	8928	17.858	-3.93090E-001	-4.59444E-005	0.00000E+000	-3.92800E-001	6.12394E-004	8	..........a	0	-327.74
	8960	17.922	-3.96282E-001	-4.71738E-005	0.00000E+000	-3.96000E-001	5.79061E-004	8	..........a	0	-327.74
	8992	17.986	-3.99511E-001	-4.87075E-005	0.00000E+000	-3.99200E-001	5.29061E-004	8	..........a	0	-327.74
	9024	18.05	-4.02690E-001	-5.02240E-005	0.00000E+000	-4.02400E-001	4.79061E-004	8	..........a	0	-327.74
	9056	18.114	-4.05903E-001	-5.20134E-005	0.00000E+000	-4.05600E-001	5.12394E-004	8	..........a	0	-327.74
	9088	18.178	-4.09128E-001	-5.38816E-005	0.00000E+000	-4.08800E-001	4.37394E-004	8	..........a	0	-327.74
	9120	18.242	-4.12298E-001	-5.58986E-005	0.00000E+000	-4.12000E-001	6.12394E-004	8	..........a	0	-327.74
	9152	18.306	-4.15490E-001	-5.80492E-005	0.00000E+000	-4.15200E-001	5.04061E-004	8	..........a	0	-327.74
	9184	18.37	-4.18703E-001	-6.02690E-005	0.00000E+000	-4.18400E-001	4.37394E-004	8	..........a	0	-327.74
	9216	18.434	-4.21886E-001	-6.30751E-005	0.00000E+000	-4.21600E-001	5.12394E-004	8	..........a	0	-327.74
	9248	18.498	-4.25111E-001	-6.55290E-005	0.00000E+000	-4.24800E-001	4.62394E-004	8	..........a	0	-327.74
	9280	18.562	-4.28286E-001	-6.84788E-005	0.00000E+000	-4.28000E-001	5.12394E-004	8	..........a	0	-327.74
	9312	18.626	-4.31440E-001	-7.11252E-005	0.00000E+000	-4.31200E-001	6.12394E-004	8	..........a	0	-327.74
	9344	18.69	-4.34690E-001	-7.42125E-005	0.00000E+000	-4.34400E-001	5.20728E-004	8	..........a	0	-327.74
	9376	18.754	-4.37878E-001	-7.74464E-005	0.00000E+000	-4.37600E-001	4.54061E-004	8	..........a	0	-327.74
	9408	18.818	-4.41123E-001	-8.07370E-005	0.00000E+000	-4.40800E-001	3.95728E-004	8	..........a	0	-327.74
	9440	18.882	-4.44311E-001	-8.38767E-005	0.00000E+000	-4.44000E-001	5.45728E-004	8	..........a	0	-327.74
	9472	18.946	-4.47415E-001	-8.73094E-005	0.00000E+000	-4.47200E-001	5.04061E-004	8	..........a	0	-327.74
	9504	19.01	-4.50619E-001	-9.07270E-005	0.00000E+000	-4.50400E-001	5.37394E-004	8	..........a	0	-327.74
	9536	19.074	-4.53890E-001	-9.41746E-005	0.00000E+000	-4.53600E-001	3.45728E-004	8	..........a	0	-327.74
	9568	19.138	-4.57086E-001	-9.85051E-005	0.00000E+000	-4.56800E-001	3.37394E-004	8	..........a	0	-327.74
	9600	19.202	-4.60282E-001	-1.01909E-004	0.00000E+000	-4.60000E-001	4.87394E-004	8	..........a	0	-327.74
	9632	19.266	-4.63432E-001	-1.05390E-004	0.00000E+000	-4.63200E-001	4.54061E-004	8	..........a	0	-327.74
	9664	19.33	-4.66644E-001	-1.09308E-004	0.00000E+000	-4.66400E-001	4.95728E-004	8	..........a	0	-327.74
	9696	19.394	-4.69773E-001	-1.13578E-004	0.00000E+000	-4.69600E-001	5.45728E-004	8	..........a	0	-327.74
	9728	19.458	-4.73065E-001	-1.17022E-004	0.00000E+000	-4.72800E-001	4.12394E-004	8	..........a	0	-327.74
	9760	19.522	-4.76173E-001	-1.20902E-004	0.00000E+000	-4.76000E-001	4.45728E-004	8	..........a	0	-327.74
	9792	19.586	-4.79365E-001	-1.25305E-004	0.00000E+000	-4.79200E-001	5.45728E-004	8	..........a	0	-327.74
	9824	19.65	-4.82598E-001	-1.29369E-004	0.00000E+000	-4.82400E-001	5.20728E-004	8	..........a	0	-327.74
	9856	19.714	-4.85832E-001	-1.33886E-004	0.00000E+000	-4.85600E-001	3.79061E-004	8	..........a	0	-327.74
	9888	19.778	-4.88982E-001	-1.38189E-004	0.00000E+000	-4.88800E-001	4.62394E-004	8	..........a	0	-327.74
	9920	19.842	-4.92273E-001	-1.42656E-004	0.00000E+000	-4.92000E-001	4.12394E-004	8	..........a	0	-327.74
	9952	19.906	-4.95369E-001	-1.48122E-004	0.00000E+000	-4.95200E-001	4.20728E-004	8	..........a	0	-327.74
	9984	19.97	-4.98523E-001	-1.53187E-004	0.00000E+000	-4.98400E-001	5.20728E-004	8	..........a	0	-327.74
	10016	20.034	-5.01744E-001	-1.58525E-004	0.00000E+000	-5.01600E-001	5.45728E-004	8	..........a	0	-327.74
	10048	20.098	-5.05028E-001	-1.64400E-004	0.00000E+000	-5.04800E-001	4.12394E-004	8	..........a	0	-327.74
	10080	20.162	-5.08228E-001	-1.70955E-004	0.00000E+000	-5.08000E-001	3.87394E-004	8	..........a	0	-327.74
	10112	20.226	-5.11336E-001	-1.77409E-004	0.00000E+000	-5.11200E-001	5.79061E-004	8	..........a	0	-327.74
	10144	20.29	-5.14486E-001	-1.84812E-004	0.00000E+000	-5.14400E-001	4.79061E-004	8	..........a	0	-327.74
	10176	20.354	-5.17669E-001	-1.92398E-004	0.00000E+000	-5.17600E-001	5.20728E-004	8	..........a	0	-327.74
	10208	20.418	-5.20948E-001	-2.01171E-004	0.00000E+000	-5.20800E-001	4.62394E-004	8	..........a	0	-327.74
	10240	20.482	-5.24082E-001	-2.09278E-004	0.00000E+000	-5.24000E-001	4.20728E-004	8	..........a	0	-327.74
	10272	20.546	-5.27303E-001	-2.18682E-004	0.00000E+000	-5.27200E-001	4.29061E-004	8	..........a	0	-327.74
	10304	20.61	-5.30394E-001	-2.29173E-004	0.00000E+000	-5.30400E-001	4.87394E-004	8	..........a	0	-327.74
	10336	20.674	-5.33661E-001	-2.39074E-004	0.00000E+000	-5.33600E-001	4.62394E-004	8	..........a	0	-327.74
	10368	20.738	-5.36778E-001	-2.49219E-004	0.00000E+000	-5.36800E-001	5.54061E-004	8	..........a	0	-327.74
	10400	20.802	-5.39944E-001	-2.59793E-004	0.00000E+000	-5.40000E-001	4.95728E-004	8	..........a	0	-327.74
	10432	20.866	-5.43387E-001	-2.73525E-004	0.00000E+000	-5.43200E-001	5.79061E-004	9	..........a	0	-327.74
	10464	20.93	-5.46592E-001	-2.84628E-004	0.00000E+000	-5.46400E-001	5.70728E-004	9	..........a	0	-327.74
	10496	20.994	-5.49842E-001	-2.95844E-004	0.00000E+000	-5.49600E-001	6.04061E-004	9	..........a	0	-327.74
	10528	21.058	-5.53033E-001	-3.07891E-004	0.00000E+000	-5.52800E-001	4.87394E-004	9	..........a	0	-327.74
	10560	21.122	-5.56237E-001	-3.19692E-004	0.00000E+000	-5.56000E-001	5.95728E-004	9	..........a	0	-327.74
	10592	21.186	-5.59425E-001	-3.30865E-004	0.00000E+000	-5.59200E-001	5.45728E-004	9	..........a	0	-327.74
	10624	21.25	-5.62575E-001	-3.42729E-004	0.00000E+000	-5.62400E-001	5.79061E-004	9	..........a	0	-327.74
	10656	21.314	-5.65737E-001	-3.53965E-004	0.00000E+000	-5.65600E-001	5.87394E-004	9	..........a	0	-327.74
	10688	21.378	-5.68904E-001	-3.64972E-004	0.00000E+000	-5.68800E-001	6.12394E-004	9	..........a	0	-327.74
	10720	21.442	-5.72171E-001	-3.76208E-004	0.00000E+000	-5.72000E-001	5.20728E-004	9	..........a	0	-327.74
	10752	21.506	-5.75458E-001	-3.86216E-004	0.00000E+000	-5.75200E-001	5.95728E-004	9	..........a	0	-327.74
	10784	21.57	-5.78562E-001	-3.95464E-004	0.00000E+000	-5.78400E-001	5.70728E-004	9	..........a	0	-327.74
	10816	21.634	-5.81804E-001	-4.05651E-004	0.00000E+000	-5.81600E-001	6.29061E-004	9	..........a	0	-327.74
	10848	21.698	-5.85000E-001	-4.13532E-004	0.00000E+000	-5.84800E-001	5.62394E-004	9	..........a	0	-327.74
	10880	21.762	-5.88200E-001	-4.22525E-004	0.00000E+000	-5.88000E-001	6.62394E-004	9	..........a	0	-327.74
	10912	21.826	-5.91333E-001	-4.31701E-004	0.00000E+000	-5.91200E-001	6.29061E-004	9	..........a	0	-327.74
	10944	21.89	-5.94504E-001	-4.38889E-004	0.00000E+000	-5.94400E-001	5.95728E-004	9	..........a	0	-327.74
	10976	21.954	-5.97833E-001	-4.46707E-004	0.00000E+000	-5.97600E-001	5.70728E-004	9	..........a	0	-327.74
	11008	22.018	-6.00971E-001	-4.53644E-004	0.00000E+000	-6.00800E-001	5.62394E-004	9	..........a	0	-327.74
	11040	22.082	-6.04187E-001	-4.60409E-004	0.00000E+000	-6.04000E-001	6.54061E-004	9	..........a	0	-327.74
	11072	22.146	-6.07346E-001	-4.66765E-004	0.00000E+000	-6.07200E-001	5.37394E-004	9	..........a	0	-327.74
	11104	22.21	-6.10575E-001	-4.73538E-004	0.00000E+000	-6.10400E-001	6.04061E-004	9	..........a	0	-327.74
	11136	22.274	-6.13787E-001	-4.77700E-004	0.00000E+000	-6.13600E-001	5.95728E-004	9	..........a	0	-327.74
	11168	22.338	-6.16900E-001	-4.80492E-004	0.00000E+000	-6.16800E-001	5.95728E-004	9	..........a	0	-327.74
	11200	22.402	-6.20158E-001	-4.85811E-004	0.00000E+000	-6.20000E-001	6.04061E-004	9	..........a	0	-327.74
	11232	22.466	-6.23254E-001	-4.90328E-004	0.00000E+000	-6.23200E-001	5.04061E-004	9	..........a	0	-327.74
	11264	22.53	-6.26479E-001	-4.94198E-004	0.00000E+000	-6.26400E-001	6.12394E-004	9	..........a	0	-327.74
	11296	22.594	-6.29721E-001	-4.98978E-004	0.00000E+000	-6.29600E-001	5.62394E-004	9	..........a	0	-327.74
	11328	22.658	-6.32942E-001	-5.01765E-004	0.00000E+000	-6.32800E-001	5.20728E-004	9	..........a	0	-327.74
	11360	22.722	-6.36117E-001	-5.02881E-004	0.00000E+000	-6.36000E-001	5.70728E-004	9	..........a	0	-327.74
	11392	22.786	-6.39379E-001	-5.06767E-004	0.00000E+000	-6.39200E-001	5.45728E-004	9	..........a	0	-327.74
	11424	22.85	-6.42537E-001	-5.08894E-004	0.00000E+000	-6.42400E-001	4.87394E-004	9	..........a	0	-327.74
	11456	22.914	-6.45696E-001	-5.12237E-004	0.00000E+000	-6.45600E-001	5.62394E-004	9	..........a	0	-327.74
	11488	22.978	-6.49042E-001	-5.15446E-004	0.00000E+000	-6.48800E-001	5.79061E-004	9	..........a	0	-327.74
	11520	23.042	-6.52125E-001	-5.16052E-004	0.00000E+000	-6.52000E-001	6.12394E-004	9	..........a	0	-327.74
	11552	23.106	-6.55267E-001	-5.19211E-004	0.00000E+000	-6.55200E-001	6.29061E-004	9	..........a	0	-327.74
	11584	23.17	-6.58492E-001	-5.22237E-004	0.00000E+000	-6.58400E-001	5.12394E-004	9	..........a	0	-327.74
	11616	23.234	-6.61737E-001	-5.23052E-004	0.00000E+000	-6.61600E-001	5.54061E-004	9	..........a	0	-327.74
	11648	23.298	-6.64917E-001	-5.23143E-004	0.00000E+000	-6.64800E-001	6.12394E-004	9	..........a	0	-327.74
	11680	23.362	-6.68062E-001	-5.23912E-004	0.00000E+000	-6.68000E-001	6.12394E-004	9	..........a	0	-327.74
	11712	23.426	-6.71321E-001	-5.24439E-004	0.00000E+000	-6.71200E-001	5.70728E-004	9	..........a	0	-327.74
	11744	23.49	-6.74479E-001	-5.26378E-004	0.00000E+000	-6.74400E-001	5.87394E-004	9	..........a	0	-327.74
	11776	23.554	-6.77767E-001	-5.29190E-004	0.00000E+000	-6.77600E-001	5.79061E-004	9	..........a	0	-327.74
	11808	23.618	-6.80908E-001	-5.30673E-004	0.00000E+000	-6.80800E-001	5.12394E-004	9	..........a	0	-327.74
	11840	23.682	-6.84108E-001	-5.30268E-004	0.00000E+000	-6.84000E-001	5.29061E-004	9	..........a	0	-327.74
	11872	23.746	-6.87333E-001	-5.32015E-004	0.00000E+000	-6.87200E-001	5.54061E-004	9	..........a	0	-327.74
	11904	23.81	-6.90492E-001	-5.34455E-004	0.00000E+000	-6.90400E-001	5.79061E-004	9	..........a	0	-327.74
	11936	23.874	-6.93696E-001	-5.34656E-004	0.00000E+000	-6.93600E-001	5.70728E-004	9	..........a	0	-327.74
	11968	23.938	-6.96896E-001	-5.35408E-004	0.00000E+000	-6.96800E-001	5.12394E-004	9	..........a	0	-327.74
	12000	24.002	-7.00129E-001	-5.33866E-004	0.00000E+000	-7.00000E-001	6.37394E-004	9	..........a	0	-327.74
	12032	24.066	-7.03242E-001	-5.35847E-004	0.00000E+000	-7.03200E-001	5.95728E-004	9	..........a	0	-327.74
	12064	24.13	-7.06458E-001	-5.37589E-004	0.00000E+000	-7.06400E-001	6.20728E-004	9	..........a	0	-327.74
	12096	24.194	-7.09679E-001	-5.35316E-004	0.00000E+000	-7.09600E-001	5.54061E-004	9	..........a	0	-327.74
	12128	24.258	-7.12933E-001	-5.36377E-004	0.00000E+000	-7.12800E-001	5.95728E-004	9	..........a	0	-327.74
	12160	24.322	-7.16117E-001	-5.37806E-004	0.00000E+000	-7.16000E-001	5.95728E-004	9	..........a	0	-327.74
	12192	24.386	-7.19242E-001	-5.38383E-004	0.00000E+000	-7.19200E-001	5.54061E-004	9	..........a	0	-327.74
	12224	24.45	-7.22446E-001	-5.37802E-004	0.00000E+000	-7.22400E-001	6.37394E-004	9	..........a	0	-327.74
	12256	24.514	-7.25667E-001	-5.37531E-004	0.00000E+000	-7.25600E-001	5.87394E-004	9	..........a	0	-327.74
	12288	24.578	-7.28862E-001	-5.37476E-004	0.00000E+000	-7.28800E-001	6.12394E-004	9	..........a	0	-327.74
	12320	24.642	-7.32067E-001	-5.40134E-004	0.00000E+000	-7.32000E-001	6.37394E-004	9	..........a	0	-327.74
	12352	24.706	-7.35287E-001	-5.42796E-004	0.00000E+000	-7.35200E-001	6.20728E-004	9	..........a	0	-327.74
	12384	24.77	-7.38492E-001	-5.42888E-004	0.00000E+000	-7.38400E-001	6.04061E-004	9	..........a	0	-327.74
	12416	24.834	-7.41692E-001	-5.40849E-004	0.00000E+000	-7.41600E-001	5.79061E-004	9	..........a	0	-327.74
	12448	24.898	-7.44875E-001	-5.42946E-004	0.00000E+000	-7.44800E-001	6.20728E-004	9	..........a	0	-327.74
	12480	24.962	-7.48096E-001	-5.42992E-004	0.00000E+000	-7.48000E-001	5.87394E-004	9	..........a	0	-327.74
	12512	25.026	-7.51287E-001	-5.43260E-004	0.00000E+000	-7.51200E-001	5.54061E-004	9	..........a	0	-327.74
	12544	25.09	-7.54500E-001	-5.45412E-004	0.00000E+000	-7.54400E-001	5.87394E-004	9	..........a	0	-327.74
	12576	25.154	-7.57692E-001	-5.43870E-004	0.00000E+000	-7.57600E-001	6.29061E-004	9	..........a	0	-327.74
	12608	25.218	-7.60850E-001	-5.43874E-004	0.00000E+000	-7.60800E-001	6.12394E-004	9	..........a	0	-327.74
	12640	25.282	-7.64092E-001	-5.45161E-004	0.00000E+000	-7.64000E-001	6.04061E-004	9	..........a	0	-327.74
	12672	25.346	-7.67300E-001	-5.45838E-004	0.00000E+000	-7.67200E-001	6.37394E-004	9	..........a	0	-327.74
	12704	25.41	-7.70442E-001	-5.44589E-004	0.00000E+000	-7.70400E-001	5.70728E-004	9	..........a	0	-327.74
	12736	25.474	-7.73679E-001	-5.44960E-004	0.00000E+000	-7.73600E-001	5.87394E-004	9	..........a	0	-327.74
	12768	25.538	-7.76879E-001	-5.45667E-004	0.00000E+000	-7.76800E-001	5.87394E-004	9	..........a	0	-327.74
	12800	25.602	-7.80175E-001	-5.47555E-004	0.00000E+000	-7.80000E-001	5.54061E-004	9	..........a	0	-327.74
	12832	25.666	-7.83242E-001	-5.47936E-004	0.00000E+000	-7.83200E-001	5.37394E-004	9	..........a	0	-327.74
	12864	25.73	-7.86446E-001	-5.45993E-004	0.00000E+000	-7.86400E-001	6.04061E-004	9	..........a	0	-327.74
	12896	25.794	-7.89733E-001	-5.45984E-004	0.00000E+000	-7.89600E-001	5.29061E-004	9	..........a	0	-327.74
	12928	25.858	-7.92846E-001	-5.47865E-004	0.00000E+000	-7.92800E-001	6.29061E-004	9	..........a	0	-327.74
	12960	25.922	-7.96058E-001	-5.47280E-004	0.00000E+000	-7.96000E-001	5.29061E-004	9	..........a	0	-327.74
	12992	25.986	-7.99237E-001	-5.45763E-004	0.00000E+000	-7.99200E-001	6.12394E-004	9	..........a	0	-327.74
	13024	26.05	-8.02496E-001	-5.46674E-004	0.00000E+000	-8.02400E-001	5.54061E-004	9	..........a	0	-327.74
	13056	26.114	-8.05658E-001	-5.47280E-004	0.00000E+000	-8.05600E-001	5.70728E-004	9	..........a	0	-327.74
	13088	26.178	-8.08871E-001	-5.48730E-004	0.00000E+000	-8.08800E-001	6.12394E-004	9	..........a	0	-327.74
	13120	26.242	-8.12062E-001	-5.48671E-004	0.00000E+000	-8.12000E-001	5.70728E-004	9	..........a	0	-327.74
	13152	26.306	-8.15237E-001	-5.48153E-004	0.00000E+000	-8.15200E-001	5.70728E-004	9	..........a	0	-327.74
	13184	26.37	-8.18487E-001	-5.49386E-004	0.00000E+000	-8.18400E-001	5.62394E-004	9	..........a	0	-327.74
	13216	26.434	-8.21596E-001	-5.49992E-004	0.00000E+000	-8.21600E-001	5.04061E-004	9	..........a	0	-327.74
	13248	26.498	-8.24854E-001	-5.50439E-004	0.00000E+000	-8.24800E-001	4.79061E-004	9	..........a	0	-327.74
	13280	26.562	-8.28033E-001	-5.50869E-004	0.00000E+000	-8.28000E-001	5.29061E-004	9	..........a	0	-327.74
	13312	26.626	-8.31200E-001	-5.51333E-004	0.00000E+000	-8.31200E-001	5.70728E-004	9	..........a	0	-327.74
	13344	26.69	-8.34429E-001	-5.50259E-004	0.00000E+000	-8.34400E-001	5.12394E-004	9	..........a	0	-327.74
	13376	26.754	-8.37604E-001	-5.49770E-004	0.00000E+000	-8.37600E-001	5.87394E-004	9	..........a	0	-327.74
	13408	26.818	-8.40846E-001	-5.49356E-004	0.00000E+000	-8.40800E-001	4.20728E-004	9	..........a	0	-327.74
	13440	26.882	-8.43975E-001	-5.49047E-004	0.00000E+000	-8.44000E-001	5.87394E-004	9	..........a	0	-327.74
	13472	26.946	-8.47146E-001	-5.49515E-004	0.00000E+000	-8.47200E-001	5.45728E-004	9	..........a	0	-327.74
	13504	27.01	-8.50425E-001	-5.52925E-004	0.00000E+000	-8.50400E-001	5.12394E-004	9	..........a	0	-327.74
	13536	27.074	-8.53629E-001	-5.52929E-004	0.00000E+000	-8.53600E-001	4.70728E-004	9	..........a	0	-327.74
	13568	27.138	-8.56792E-001	-5.52708E-004	0.00000E+000	-8.56800E-001	5.79061E-004	9	..........a	0	-327.74
	13600	27.202	-8.60012E-001	-5.53481E-004	0.00000E+000	-8.60000E-001	5.45728E-004	9	..........a	0	-327.74
	13632	27.266	-8.63183E-001	-5.51053E-004	0.00000E+000	-8.63200E-001	5.54061E-004	9	..........a	0	-327.74
	13664	27.33	-8.66417E-001	-5.52378E-004	0.00000E+000	-8.66400E-001	4.95728E-004	9	..........a	0	-327.74
	13696	27.394	-8.69712E-001	-5.52240E-004	0.00000E+000	-8.69600E-001	4.70728E-004	9	..........a	0	-327.74
	13728	27.458	-8.72750E-001	-5.52958E-004	0.00000E+000	-8.72800E-001	6.12394E-004	9	..........a	0	-327.74
	13760	27.522	-8.75937E-001	-5.50460E-004	0.00000E+000	-8.76000E-001	4.95728E-004	9	..........a	0	-327.74
	13792	27.586	-8.79179E-001	-5.49607E-004	0.00000E+000	-8.79200E-001	5.79061E-004	9	..........a	0	-327.74
	13824	27.65	-8.82479E-001	-5.52490E-004	0.00000E+000	-8.82400E-001	5.37394E-004	9	..........a	0	-327.74
	13856	27.714	-8.85617E-001	-5.51830E-004	0.00000E+000	-8.85600E-001	5.45728E-004	9	..........a	0	-327.74
	13888	27.778	-8.88796E-001	-5.53640E-004	0.00000E+000	-8.88800E-001	5.29061E-004	9	..........a	0	-327.74
	13920	27.842	-8.92037E-001	-5.53071E-004	0.00000E+000	-8.92000E-001	5.20728E-004	9	..........a	0	-327.74
	13952	27.906	-8.95229E-001	-5.52323E-004	0.00000E+000	-8.95200E-001	5.79061E-004	9	..........a	0	-327.74
	13984	27.97	-8.98358E-001	-5.51834E-004	0.00000E+000	-8.98400E-001	5.29061E-004	9	..........a	0	-327.74
	14016	28.034	-9.01625E-001	-5.51429E-004	0.00000E+000	-9.01600E-001	5.62394E-004	9	..........a	0	-327.74
	14048	28.098	-9.04783E-001	-5.51417E-004	0.00000E+000	-9.04800E-001	5.54061E-004	9	..........a	0	-327.74
	14080	28.162	-9.08092E-001	-5.53915E-004	0.00000E+000	-9.08000E-001	5.37394E-004	9	..........a	0	-327.74
	14112	28.226	-9.11204E-001	-5.54287E-004	0.00000E+000	-9.11200E-001	5.62394E-004	9	..........a	0	-327.74
	14144	28.29	-9.14412E-001	-5.54137E-004	0.00000E+000	-9.14400E-001	5.70728E-004	9	..........a	0	-327.74
	14176	28.354	-9.17571E-001	-5.55395E-004	0.00000E+000	-9.17600E-001	5.79061E-004	9	..........a	0	-327.74
	14208	28.418	-9.20808E-001	-5.54538E-004	0.00000E+000	-9.20800E-001	5.87394E-004	9	..........a	0	-327.74
	14240	28.482	-9.23992E-001	-5.55645E-004	0.00000E+000	-9.24000E-001	5.87394E-004	9	..........a	0	-327.74
	14272	28.546	-9.27217E-001	-5.54793E-004	0.00000E+000	-9.27200E-001	5.70728E-004	9	..........a	0	-327.74
	14304	28.61	-9.30412E-001	-5.53251E-004	0.00000E+000	-9.30400E-001	5.45728E-004	9	..........a	0	-327.74
	14336	28.674	-9.33679E-001	-5.53832E-004	0.00000E+000	-9.33600E-001	4.95728E-004	9	..........a	0	-327.74
	14368	28.738	-9.36829E-001	-5.55825E-004	0.00000E+000	-9.36800E-001	4.45728E-004	9	..........a	0	-327.74
	14400	28.802	-9.40008E-001	-5.57108E-004	0.00000E+000	-9.40000E-001	5.62394E-004	9	..........a	0	-327.74
	14432	28.866	-9.43204E-001	-5.54872E-004	0.00000E+000	-9.43200E-001	5.45728E-004	9	..........a	0	-327.74
	14464	28.93	-9.46383E-001	-5.53109E-004	0.00000E+000	-9.46400E-001	5.12394E-004	9	..........a	0	-327.74
	14496	28.994	-9.49554E-001	-5.56402E-004	0.00000E+000	-9.49600E-001	5.62394E-004	9	..........a	0	-327.74
	14528	29.058	-9.52708E-001	-5.57388E-004	0.00000E+000	-9.52800E-001	5.87394E-004	9	..........a	0	-327.74
	14560	29.122	-9.56000E-001	-5.57087E-004	0.00000E+000	-9.56000E-001	4.87394E-004	9	..........a	0	-327.74
	14592	29.186	-9.59183E-001	-5.55980E-004	0.00000E+000	-9.59200E-001	5.62394E-004	9	..........a	0	-327.74
	14624	29.25	-9.62362E-001	-5.57359E-004	0.00000E+000	-9.62400E-001	5.12394E-004	9	..........a	0	-327.74
	14656	29.314	-9.65562E-001	-5.57563E-004	0.00000E+000	-9.65600E-001	5.62394E-004	9	..........a	0	-327.74
	14688	29.378	-9.68725E-001	-5.55106E-004	0.00000E+000	-9.68800E-001	6.12394E-004	9	..........a	0	-327.74
	14720	29.442	-9.72008E-001	-5.56368E-004	0.00000E+000	-9.72000E-001	5.95728E-004	9	..........a	0	-327.74
	14752	29.506	-9.75167E-001	-5.56498E-004	0.00000E+000	-9.75200E-001	5.70728E-004	9	..........a	0	-327.74
	14784	29.57	-9.78392E-001	-5.57279E-004	0.00000E+000	-9.78400E-001	5.37394E-004	9	..........a	0	-327.74
	14816	29.634	-9.81500E-001	-5.58102E-004	0.00000E+000	-9.81600E-001	5.95728E-004	9	..........a	0	-327.74
	14848	29.698	-9.84817E-001	-5.58165E-004	0.00000E+000	-9.84800E-001	5.29061E-004	9	..........a	0	-327.74
	14880	29.762	-9.87983E-001	-5.57187E-004	0.00000E+000	-9.88000E-001	5.87394E-004	9	..........a	0	-327.74
	14912	29.826	-9.91179E-001	-5.56983E-004	0.00000E+000	-9.91200E-001	5.37394E-004	9	..........a	0	-327.74
	14944	29.89	-9.94408E-001	-5.57501E-004	0.00000E+000	-9.94400E-001	5.79061E-004	9	..........a	0	-327.74
	14976	29.954	-9.97604E-001	-5.58583E-004	0.00000E+000	-9.97600E-001	4.70728E-004	9	..........a	0	-327.74
	15000	30.002	-9.99983E-001	-5.58742E-004	0.00000E+000	-1.00000E+000	4.87394E-004	9	..........a	0	-327.74