File: data/02-SI/Figures_S9_S11_RDE/15btmapaq-rde/1mkcl-5mmolar15btmapaq-nitrogen-rde1200mvpers-50mvpers.DTA
EXPLAIN
TAG	LSV
TITLE	LABEL	Linear Sweep Voltammetry	Test &Identifier
DATE	LABEL	1/31/2023	Date
TIME	LABEL	18:27:22	Time
NOTES	NOTES	1	&Notes...

PSTAT	PSTAT	REF3000-21108	Potentiostat
VINIT	POTEN	5.00000E-001	F	&Initial E (V)
VFINAL	POTEN	-1.00000E+000	F	&Final E (V)
SCANRATE	QUANT	4.99999E+001	&Scan Rate (mV/s)
STEPSIZE	QUANT	1.00000E-001	St&ep Size (mV)
IMODE	SELECTOR	0	I/E Range &Mode
IRANGE	QUANT	1.00000E+002	&Max Current (mA)
AREA	QUANT	1.00000E+000	Electrode &Area (cm^2)
ELECTRODETYPE	SELECTOR	0	Electrode Type
STRIPPING	TOGGLE	F	Used for Stripping
POLARITY	TOGGLE	F	Signal Polarity
CONDIT	TWOPARAM	F	1.50000E+001	0.00000E+000	Conditionin&g	Time(s)	E(V)
DELAY	TWOPARAM	F	3.00000E+001	0.00000E+000	Init. De&lay	Time(s)	Stab.(mV/s)
EQDELAY	QUANT	0.00000E+000	Equil. &Time (s)
IRCOMP	SELECTOR	0	IRCom&p
PFCOR	QUANT	5.00000E+001	PF Corr. (ohm)
SAMPLINGMODE	SELECTOR	1	Sampling &Mode
EOC	QUANT	0	Open Circuit (V)
PSTATMODEL	IQUANT	5	Pstat Model
PSTATSECTION	LABEL	REF3000-21108	Pstat Section
PSTATSERIALNO	LABEL	21108	Pstat Serial Number
CTRLMODE	IQUANT	1	Control Mode
ELECTROMETER	IQUANT	0	RE=0 or CS=1
IESTAB	IQUANT	2	I/E Stability
CASPEED	IQUANT	4	Control Amp Speed
CONVENTION	IQUANT	1	Current Convention
ICHRANGE	IQUANT	2	Ich Range
ICHRANGEMODE	TOGGLE	F	Ich Auto Range
ICHOFFSETENABLE	TOGGLE	F	Ich Offset Enable
ICHOFFSET	QUANT	0	Ich Offset (V)
ICHFILTER	IQUANT	2	Ich Filter
VCHRANGE	IQUANT	2	Vch Range
VCHRANGEMODE	TOGGLE	T	Vch Auto Range
VCHOFFSETENABLE	TOGGLE	F	Vch Offset Enable
VCHOFFSET	QUANT	0	Vch Offset (V)
VCHFILTER	IQUANT	2	Vch Filter
ACHRANGE	IQUANT	2	Ach Range
ACHOFFSETENABLE	TOGGLE	F	Ach Offset Enable
ACHOFFSET	QUANT	0	Ach Offset (V)
ACHFILTER	IQUANT	0	Ach Filter
IERANGELOWERLIMIT	IQUANT	2	I/E Range Lower Limit
IERANGEMODE	TOGGLE	T	I/E AutoRange
IERANGE	IQUANT	11	I/E Range
POSFEEDENABLE	TOGGLE	F	Positive Feedback IR Comp
POSFEEDRESISTANCE	QUANT	0	Positive Feedback Resistance (ohm)
ACHSELECT	IQUANT	0	Ach Select
SENSECABLEID	IQUANT	14	Sense Cable ID
PWRCABLEID	IQUANT	7	Power Cable ID
DCCALDATE	LABEL	11/9/2022	DC Calibration Date
ACCALDATE	LABEL	11/9/2022	AC Calibration Date
THERMOSELECT	IQUANT	1	Thermo Select
FRAMEWORKVERSION	LABEL	7.8.2	Framework Version
INSTRUMENTVERSION	LABEL	4.40	Instrument Version
COMPLIANCEVOLTAGE	IQUANT	0	Compliance Voltage
CURVE	TABLE	15001
	Pt	T	Vf	Im	Vu	Sig	Ach	IERange	Over	Cycle	Temp
	#	s	V vs. Ref.	A	V	V	V	#	bits	#	deg C
	0	0.002	4.99733E-001	-3.21237E-005	0.00000E+000	5.00000E-001	-7.20939E-004	11	..........a	0	-327.74
	32	0.066	4.95572E-001	7.73259E-006	0.00000E+000	4.96800E-001	-9.20939E-004	8	..........a	0	-327.74
	64	0.13	4.92439E-001	5.24154E-006	0.00000E+000	4.93600E-001	-9.04272E-004	8	..........a	0	-327.74
	96	0.194	4.89327E-001	3.94831E-006	0.00000E+000	4.90400E-001	-9.62605E-004	8	..........a	0	-327.74
	128	0.258	4.86152E-001	3.12338E-006	0.00000E+000	4.87200E-001	-9.12605E-004	8	..........a	0	-327.74
	160	0.322	4.82956E-001	2.58634E-006	0.00000E+000	4.84000E-001	-8.54272E-004	8	..........a	0	-327.74
	192	0.386	4.79789E-001	2.36177E-006	0.00000E+000	4.80800E-001	-8.54272E-004	8	..........a	0	-327.74
	224	0.45	4.76506E-001	2.07013E-006	0.00000E+000	4.77600E-001	-9.20939E-004	8	..........a	0	-327.74
	256	0.514	4.73202E-001	1.81723E-006	0.00000E+000	4.74400E-001	-8.54272E-004	8	..........a	0	-327.74
	288	0.578	4.70047E-001	1.70807E-006	0.00000E+000	4.71200E-001	-9.20939E-004	8	..........a	0	-327.74
	320	0.642	4.66847E-001	1.54850E-006	0.00000E+000	4.68000E-001	-9.12605E-004	8	..........a	0	-327.74
	352	0.706	4.63718E-001	1.45226E-006	0.00000E+000	4.64800E-001	-8.79272E-004	8	..........a	0	-327.74
	384	0.77	4.60560E-001	1.26811E-006	0.00000E+000	4.61600E-001	-8.62605E-004	8	..........a	0	-327.74
	416	0.834	4.57389E-001	1.25436E-006	0.00000E+000	4.58400E-001	-8.87605E-004	8	..........a	0	-327.74
	448	0.898	4.54172E-001	1.12812E-006	0.00000E+000	4.55200E-001	-8.87605E-004	8	..........a	0	-327.74
	480	0.962	4.50947E-001	9.51883E-007	0.00000E+000	4.52000E-001	-8.95939E-004	8	..........a	0	-327.74
	512	1.026	4.47635E-001	9.73548E-007	0.00000E+000	4.48800E-001	-8.87605E-004	8	..........a	0	-327.74
	544	1.09	4.44410E-001	8.78556E-007	0.00000E+000	4.45600E-001	-8.62605E-004	8	..........a	0	-327.74
	576	1.154	4.41327E-001	7.75648E-007	0.00000E+000	4.42400E-001	-8.95939E-004	8	..........a	0	-327.74
	608	1.218	4.38156E-001	7.50233E-007	0.00000E+000	4.39200E-001	-8.79272E-004	8	..........a	0	-327.74
	640	1.282	4.34968E-001	6.74406E-007	0.00000E+000	4.36000E-001	-9.12605E-004	8	..........a	0	-327.74
	672	1.346	4.31802E-001	7.30235E-007	0.00000E+000	4.32800E-001	-8.37606E-004	8	..........a	0	-327.74
	704	1.41	4.28593E-001	6.39825E-007	0.00000E+000	4.29600E-001	-9.29272E-004	8	..........a	0	-327.74
	736	1.474	4.25402E-001	5.95662E-007	0.00000E+000	4.26400E-001	-9.04272E-004	8	..........a	0	-327.74
	768	1.538	4.22039E-001	5.97745E-007	0.00000E+000	4.23200E-001	-8.45939E-004	8	..........a	0	-327.74
	800	1.602	4.18843E-001	4.87754E-007	0.00000E+000	4.20000E-001	-8.95939E-004	8	..........a	0	-327.74
	832	1.666	4.15689E-001	4.12760E-007	0.00000E+000	4.16800E-001	-9.04272E-004	8	..........a	0	-327.74
	864	1.73	4.12514E-001	5.16085E-007	0.00000E+000	4.13600E-001	-9.04272E-004	8	..........a	0	-327.74
	896	1.794	4.09360E-001	5.01920E-007	0.00000E+000	4.10400E-001	-9.37606E-004	8	..........a	0	-327.74
	928	1.858	4.06156E-001	4.85671E-007	0.00000E+000	4.07200E-001	-8.87605E-004	8	..........a	0	-327.74
	960	1.922	4.02952E-001	3.65681E-007	0.00000E+000	4.04000E-001	-8.87605E-004	8	..........a	0	-327.74
	992	1.986	3.99806E-001	4.23593E-007	0.00000E+000	4.00800E-001	-8.87605E-004	8	..........a	0	-327.74
	1024	2.05	3.96460E-001	2.65272E-007	0.00000E+000	3.97600E-001	-9.04272E-004	8	..........a	0	-327.74
	1056	2.114	3.93260E-001	3.81096E-007	0.00000E+000	3.94400E-001	-8.79272E-004	8	..........a	0	-327.74
	1088	2.178	3.90102E-001	3.32350E-007	0.00000E+000	3.91200E-001	-8.95939E-004	8	..........a	0	-327.74
	1120	2.242	3.86952E-001	3.35683E-007	0.00000E+000	3.88000E-001	-8.95939E-004	8	..........a	0	-327.74
	1152	2.306	3.83802E-001	2.89437E-007	0.00000E+000	3.84800E-001	-9.45939E-004	8	..........a	0	-327.74
	1184	2.37	3.80589E-001	2.69855E-007	0.00000E+000	3.81600E-001	-9.12605E-004	8	..........a	0	-327.74
	1216	2.434	3.77402E-001	3.19018E-007	0.00000E+000	3.78400E-001	-8.70939E-004	8	..........a	0	-327.74
	1248	2.498	3.74189E-001	3.59848E-007	0.00000E+000	3.75200E-001	-8.37606E-004	8	..........a	0	-327.74
	1280	2.562	3.70835E-001	2.40274E-007	0.00000E+000	3.72000E-001	-9.04272E-004	8	..........a	0	-327.74
	1312	2.626	3.67656E-001	1.99444E-007	0.00000E+000	3.68800E-001	-8.79272E-004	8	..........a	0	-327.74
	1344	2.69	3.64518E-001	2.21942E-007	0.00000E+000	3.65600E-001	-8.87605E-004	8	..........a	0	-327.74
	1376	2.754	3.61368E-001	2.52356E-007	0.00000E+000	3.62400E-001	-8.79272E-004	8	..........a	0	-327.74
	1408	2.818	3.58156E-001	2.32358E-007	0.00000E+000	3.59200E-001	-8.79272E-004	8	..........a	0	-327.74
	1440	2.882	3.54977E-001	1.58614E-007	0.00000E+000	3.56000E-001	-8.79272E-004	8	..........a	0	-327.74
	1472	2.946	3.51818E-001	2.76521E-007	0.00000E+000	3.52800E-001	-9.12605E-004	8	..........a	0	-327.74
	1504	3.01	3.48652E-001	2.01110E-007	0.00000E+000	3.49600E-001	-9.29272E-004	8	..........a	0	-327.74
	1536	3.074	3.45268E-001	9.27858E-008	0.00000E+000	3.46400E-001	-8.79272E-004	8	..........a	0	-327.74
	1568	3.138	3.42072E-001	1.05701E-007	0.00000E+000	3.43200E-001	-8.87605E-004	8	..........a	0	-327.74
	1600	3.202	3.38952E-001	2.21525E-007	0.00000E+000	3.40000E-001	-9.04272E-004	8	..........a	0	-327.74
	1632	3.266	3.35802E-001	1.66530E-007	0.00000E+000	3.36800E-001	-9.29272E-004	8	..........a	0	-327.74
	1664	3.33	3.32577E-001	1.41949E-007	0.00000E+000	3.33600E-001	-8.37606E-004	8	..........a	0	-327.74
	1696	3.394	3.29393E-001	1.34032E-007	0.00000E+000	3.30400E-001	-8.87605E-004	8	..........a	0	-327.74
	1728	3.458	3.26189E-001	9.23692E-008	0.00000E+000	3.27200E-001	-9.12605E-004	8	..........a	0	-327.74
	1760	3.522	3.22989E-001	6.98710E-008	0.00000E+000	3.24000E-001	-9.12605E-004	8	..........a	0	-327.74
	1792	3.586	3.19689E-001	1.34449E-007	0.00000E+000	3.20800E-001	-8.95939E-004	8	..........a	0	-327.74
	1824	3.65	3.16497E-001	2.40413E-008	0.00000E+000	3.17600E-001	-8.87605E-004	8	..........a	0	-327.74
	1856	3.714	3.13364E-001	6.48714E-008	0.00000E+000	3.14400E-001	-8.87605E-004	8	..........a	0	-327.74
	1888	3.778	3.10143E-001	8.32032E-008	0.00000E+000	3.11200E-001	-8.87605E-004	8	..........a	0	-327.74
	1920	3.842	3.07027E-001	6.52880E-008	0.00000E+000	3.08000E-001	-9.62605E-004	8	..........a	0	-327.74
	1952	3.906	3.03797E-001	2.44580E-008	0.00000E+000	3.04800E-001	-9.04272E-004	8	..........a	0	-327.74
	1984	3.97	3.00618E-001	1.73752E-008	0.00000E+000	3.01600E-001	-8.95939E-004	8	..........a	0	-327.74
	2016	4.034	2.97481E-001	1.94584E-008	0.00000E+000	2.98400E-001	-9.37606E-004	8	..........a	0	-327.74
	2048	4.098	2.94068E-001	1.28616E-007	0.00000E+000	2.95200E-001	-8.70939E-004	8	..........a	0	-327.74
	2080	4.162	2.90939E-001	-9.51158E-008	0.00000E+000	2.92000E-001	-8.87605E-004	8	..........a	0	-327.74
	2112	4.226	2.87764E-001	8.65363E-008	0.00000E+000	2.88800E-001	-9.04272E-004	8	..........a	0	-327.74
	2144	4.29	2.84589E-001	5.69553E-008	0.00000E+000	2.85600E-001	-8.37606E-004	8	..........a	0	-327.74
	2176	4.354	2.81397E-001	-5.72022E-008	0.00000E+000	2.82400E-001	-9.12605E-004	8	..........a	0	-327.74
	2208	4.418	2.78197E-001	-5.51190E-008	0.00000E+000	2.79200E-001	-8.87605E-004	8	..........a	0	-327.74
	2240	4.482	2.75081E-001	4.52896E-008	0.00000E+000	2.76000E-001	-8.95939E-004	8	..........a	0	-327.74
	2272	4.546	2.71843E-001	-4.92861E-008	0.00000E+000	2.72800E-001	-8.37606E-004	8	..........a	0	-327.74
	2304	4.61	2.68510E-001	-5.53964E-009	0.00000E+000	2.69600E-001	-8.95939E-004	8	..........a	0	-327.74
	2336	4.674	2.65339E-001	-4.55364E-008	0.00000E+000	2.66400E-001	-8.54272E-004	8	..........a	0	-327.74
	2368	4.738	2.62156E-001	-6.59515E-008	0.00000E+000	2.63200E-001	-8.45939E-004	8	..........a	0	-327.74
	2400	4.802	2.58952E-001	3.69569E-008	0.00000E+000	2.60000E-001	-8.70939E-004	8	..........a	0	-327.74
	2432	4.866	2.55789E-001	-8.63665E-008	0.00000E+000	2.56800E-001	-8.95939E-004	8	..........a	0	-327.74
	2464	4.93	2.52606E-001	-1.00949E-007	0.00000E+000	2.53600E-001	-9.29272E-004	8	..........a	0	-327.74
	2496	4.994	2.49431E-001	-3.03984E-009	0.00000E+000	2.50400E-001	-9.54272E-004	8	..........a	0	-327.74
	2528	5.058	2.46260E-001	-2.72046E-008	0.00000E+000	2.47200E-001	-8.54272E-004	8	..........a	0	-327.74
	2560	5.122	2.42773E-001	-5.22026E-008	0.00000E+000	2.44000E-001	-9.37606E-004	8	......s...a	0	-327.74
	2592	5.186	2.39575E-001	-1.26780E-007	0.00000E+000	2.40800E-001	-8.95939E-004	8	..........a	0	-327.74
	2624	5.25	2.36377E-001	-1.35113E-007	0.00000E+000	2.37600E-001	-9.54272E-004	8	..........a	0	-327.74
	2656	5.314	2.33176E-001	-1.30946E-007	0.00000E+000	2.34400E-001	-9.54272E-004	8	..........a	0	-327.74
	2688	5.378	2.29996E-001	-1.55388E-008	0.00000E+000	2.31200E-001	-9.37606E-004	8	..........a	0	-327.74
	2720	5.442	2.26804E-001	-9.30326E-008	0.00000E+000	2.28000E-001	-8.79272E-004	8	..........a	0	-327.74
	2752	5.506	2.23592E-001	-8.05336E-008	0.00000E+000	2.24800E-001	-9.37606E-004	8	..........a	0	-327.74
	2784	5.57	2.20397E-001	-1.28446E-007	0.00000E+000	2.21600E-001	-9.70939E-004	8	..........a	0	-327.74
	2816	5.634	2.17196E-001	-1.41362E-007	0.00000E+000	2.18400E-001	-9.37606E-004	8	..........a	0	-327.74
	2848	5.698	2.14010E-001	-6.13685E-008	0.00000E+000	2.15200E-001	-8.79272E-004	8	..........a	0	-327.74
	2880	5.762	2.10792E-001	-1.08865E-007	0.00000E+000	2.12000E-001	-9.45939E-004	8	..........a	0	-327.74
	2912	5.826	2.07603E-001	-3.51206E-008	0.00000E+000	2.08800E-001	-9.37606E-004	8	..........a	0	-327.74
	2944	5.89	2.04408E-001	-1.22058E-008	0.00000E+000	2.05600E-001	-8.54272E-004	8	..........a	0	-327.74
	2976	5.954	2.01203E-001	-1.09281E-007	0.00000E+000	2.02400E-001	-9.45939E-004	8	..........a	0	-327.74
	3008	6.018	1.98007E-001	-1.63444E-007	0.00000E+000	1.99200E-001	-9.54272E-004	8	..........a	0	-327.74
	3040	6.082	1.94807E-001	-1.42195E-007	0.00000E+000	1.96000E-001	-8.87605E-004	8	..........a	0	-327.74
	3072	6.146	1.91614E-001	-7.38675E-008	0.00000E+000	1.92800E-001	-8.95939E-004	8	..........a	0	-327.74
	3104	6.21	1.88414E-001	-1.65527E-007	0.00000E+000	1.89600E-001	-8.95939E-004	8	..........a	0	-327.74
	3136	6.274	1.85214E-001	-5.67855E-008	0.00000E+000	1.86400E-001	-8.87605E-004	8	..........a	0	-327.74
	3168	6.338	1.82013E-001	-1.13448E-007	0.00000E+000	1.83200E-001	-9.04272E-004	8	..........a	0	-327.74
	3200	6.402	1.78829E-001	-1.05115E-007	0.00000E+000	1.80000E-001	-8.95939E-004	8	..........a	0	-327.74
	3232	6.466	1.75619E-001	-9.38659E-008	0.00000E+000	1.76800E-001	-8.70939E-004	8	..........a	0	-327.74
	3264	6.53	1.72423E-001	-1.01365E-007	0.00000E+000	1.73600E-001	-8.62605E-004	8	..........a	0	-327.74
	3296	6.594	1.69226E-001	-1.58027E-007	0.00000E+000	1.70400E-001	-8.62605E-004	8	..........a	0	-327.74
	3328	6.658	1.66025E-001	-1.84692E-007	0.00000E+000	1.67200E-001	-8.12605E-004	8	..........a	0	-327.74
	3360	6.722	1.62839E-001	-1.13448E-007	0.00000E+000	1.64000E-001	-9.12605E-004	8	..........a	0	-327.74
	3392	6.786	1.59623E-001	-9.59490E-008	0.00000E+000	1.60800E-001	-9.12605E-004	8	..........a	0	-327.74
	3424	6.85	1.56423E-001	-1.12198E-007	0.00000E+000	1.57600E-001	-8.62605E-004	8	..........a	0	-327.74
	3456	6.914	1.53236E-001	-1.18031E-007	0.00000E+000	1.54400E-001	-9.70939E-004	8	..........a	0	-327.74
	3488	6.978	1.50050E-001	-5.22026E-008	0.00000E+000	1.51200E-001	-9.12605E-004	8	..........a	0	-327.74
	3520	7.042	1.46833E-001	-1.50945E-007	0.00000E+000	1.48000E-001	-8.62605E-004	8	..........a	0	-327.74
	3552	7.106	1.43614E-001	-2.11356E-007	0.00000E+000	1.44800E-001	-9.29272E-004	8	..........a	0	-327.74
	3584	7.17	1.40439E-001	-1.65110E-007	0.00000E+000	1.41600E-001	-9.12605E-004	8	..........a	0	-327.74
	3616	7.234	1.37250E-001	-1.85942E-007	0.00000E+000	1.38400E-001	-8.95939E-004	8	..........a	0	-327.74
	3648	7.298	1.34040E-001	-7.88671E-008	0.00000E+000	1.35200E-001	-9.37606E-004	8	..........a	0	-327.74
	3680	7.362	1.30844E-001	-1.78026E-007	0.00000E+000	1.32000E-001	-8.79272E-004	8	..........a	0	-327.74
	3712	7.426	1.27651E-001	-1.45945E-007	0.00000E+000	1.28800E-001	-8.37606E-004	8	..........a	0	-327.74
	3744	7.49	1.24460E-001	-2.71352E-007	0.00000E+000	1.25600E-001	-8.29272E-004	8	..........a	0	-327.74
	3776	7.554	1.21244E-001	-1.63860E-007	0.00000E+000	1.22400E-001	-8.70939E-004	8	..........a	0	-327.74
	3808	7.618	1.18038E-001	-1.13031E-007	0.00000E+000	1.19200E-001	-9.20939E-004	8	..........a	0	-327.74
	3840	7.682	1.14845E-001	-1.04698E-007	0.00000E+000	1.16000E-001	-8.87605E-004	8	..........a	0	-327.74
	3872	7.746	1.11656E-001	-1.58027E-007	0.00000E+000	1.12800E-001	-8.70939E-004	8	..........a	0	-327.74
	3904	7.81	1.08450E-001	-2.40937E-007	0.00000E+000	1.09600E-001	-8.12605E-004	8	..........a	0	-327.74
	3936	7.874	1.05255E-001	-1.62194E-007	0.00000E+000	1.06400E-001	-8.87605E-004	8	..........a	0	-327.74
	3968	7.938	1.02057E-001	-1.71776E-007	0.00000E+000	1.03200E-001	-8.20939E-004	8	..........a	0	-327.74
	4000	8.002	9.88643E-002	-1.50111E-007	0.00000E+000	1.00000E-001	-8.95939E-004	8	..........a	0	-327.74
	4032	8.066	9.56564E-002	-1.39279E-007	0.00000E+000	9.68000E-002	-9.12605E-004	8	..........a	0	-327.74
	4064	8.13	9.24647E-002	-1.77193E-007	0.00000E+000	9.36000E-002	-8.45939E-004	8	..........a	0	-327.74
	4096	8.194	8.92739E-002	-1.40945E-007	0.00000E+000	9.04000E-002	-8.95939E-004	8	..........a	0	-327.74
	4128	8.258	8.60635E-002	-9.34492E-008	0.00000E+000	8.72000E-002	-8.37606E-004	8	..........a	0	-327.74
	4160	8.322	8.28622E-002	-2.13023E-007	0.00000E+000	8.40000E-002	-8.54272E-004	8	..........a	0	-327.74
	4192	8.386	7.96710E-002	-1.36779E-007	0.00000E+000	8.08000E-002	-9.04272E-004	8	..........a	0	-327.74
	4224	8.45	7.64743E-002	-1.90108E-007	0.00000E+000	7.76000E-002	-8.70939E-004	8	..........a	0	-327.74
	4256	8.514	7.32760E-002	-1.50111E-007	0.00000E+000	7.44000E-002	-8.87605E-004	8	..........a	0	-327.74
	4288	8.578	7.00668E-002	-2.50520E-007	0.00000E+000	7.12000E-002	-8.87605E-004	8	..........a	0	-327.74
	4320	8.642	6.68797E-002	-1.66360E-007	0.00000E+000	6.80000E-002	-8.70939E-004	8	..........a	0	-327.74
	4352	8.706	6.36918E-002	-2.19272E-007	0.00000E+000	6.48000E-002	-8.12605E-004	8	..........a	0	-327.74
	4384	8.77	6.04901E-002	-2.20522E-007	0.00000E+000	6.16000E-002	-9.04272E-004	8	..........a	0	-327.74
	4416	8.834	5.72781E-002	-2.26772E-007	0.00000E+000	5.84000E-002	-8.95939E-004	8	..........a	0	-327.74
	4448	8.898	5.40801E-002	-1.61777E-007	0.00000E+000	5.52000E-002	-8.95939E-004	8	..........a	0	-327.74
	4480	8.962	5.08881E-002	-2.25939E-007	0.00000E+000	5.20000E-002	-8.62605E-004	8	..........a	0	-327.74
	4512	9.026	4.76901E-002	-2.44270E-007	0.00000E+000	4.88000E-002	-8.87605E-004	8	..........a	0	-327.74
	4544	9.09	4.44856E-002	-2.13440E-007	0.00000E+000	4.56000E-002	-8.95939E-004	8	..........a	0	-327.74
	4576	9.154	4.12851E-002	-2.49270E-007	0.00000E+000	4.24000E-002	-8.62605E-004	8	..........a	0	-327.74
	4608	9.218	3.80881E-002	-2.65935E-007	0.00000E+000	3.92000E-002	-8.45939E-004	8	..........a	0	-327.74
	4640	9.282	3.48931E-002	-2.40521E-007	0.00000E+000	3.60000E-002	-8.79272E-004	8	..........a	0	-327.74
	4672	9.346	3.16789E-002	-2.76351E-007	0.00000E+000	3.28000E-002	-9.20939E-004	8	..........a	0	-327.74
	4704	9.41	2.84893E-002	-1.92608E-007	0.00000E+000	2.96000E-002	-9.37606E-004	8	..........a	0	-327.74
	4736	9.474	2.52926E-002	-3.41346E-007	0.00000E+000	2.64000E-002	-8.62605E-004	8	..........a	0	-327.74
	4768	9.538	2.20730E-002	-2.70518E-007	0.00000E+000	2.32000E-002	-8.87605E-004	8	..........a	0	-327.74
	4800	9.602	1.88775E-002	-2.56353E-007	0.00000E+000	2.00000E-002	-8.70939E-004	8	..........a	0	-327.74
	4832	9.666	1.56762E-002	-3.13015E-007	0.00000E+000	1.68000E-002	-8.70939E-004	8	..........a	0	-327.74
	4864	9.73	1.24841E-002	-2.65935E-007	0.00000E+000	1.36000E-002	-8.79272E-004	8	..........a	0	-327.74
	4896	9.794	9.27797E-003	-2.63852E-007	0.00000E+000	1.04000E-002	-8.45939E-004	8	..........a	0	-327.74
	4928	9.858	6.08456E-003	-3.02599E-007	0.00000E+000	7.20000E-003	-8.95939E-004	8	..........a	0	-327.74
	4960	9.922	2.87214E-003	-3.45096E-007	0.00000E+000	4.00001E-003	-9.04272E-004	8	..........a	0	-327.74
	4992	9.986	-2.99443E-004	-2.80518E-007	0.00000E+000	7.99984E-004	-8.87605E-004	8	..........a	0	-327.74
	5024	10.05	-3.51519E-003	-3.70094E-007	0.00000E+000	-2.40001E-003	-9.12605E-004	8	..........a	0	-327.74
	5056	10.114	-6.70753E-003	-2.03857E-007	0.00000E+000	-5.60001E-003	-8.45939E-004	8	..........a	0	-327.74
	5088	10.178	-9.90394E-003	-3.51345E-007	0.00000E+000	-8.80000E-003	-9.04272E-004	8	..........a	0	-327.74
	5120	10.242	-1.31044E-002	-2.68019E-007	0.00000E+000	-1.20000E-002	-8.79272E-004	8	..........a	0	-327.74
	5152	10.306	-1.62978E-002	-3.17181E-007	0.00000E+000	-1.52000E-002	-8.54272E-004	8	..........a	0	-327.74
	5184	10.37	-1.94959E-002	-3.12598E-007	0.00000E+000	-1.84000E-002	-8.87605E-004	8	..........a	0	-327.74
	5216	10.434	-2.26951E-002	-2.86350E-007	0.00000E+000	-2.16000E-002	-8.95939E-004	8	..........a	0	-327.74
	5248	10.498	-2.58959E-002	-3.51345E-007	0.00000E+000	-2.48000E-002	-8.87605E-004	8	..........a	0	-327.74
	5280	10.562	-2.90878E-002	-4.28839E-007	0.00000E+000	-2.80000E-002	-9.04272E-004	8	..........a	0	-327.74
	5312	10.626	-3.22899E-002	-3.44679E-007	0.00000E+000	-3.12000E-002	-8.79272E-004	8	..........a	0	-327.74
	5344	10.69	-3.54874E-002	-3.26347E-007	0.00000E+000	-3.44000E-002	-8.54272E-004	8	..........a	0	-327.74
	5376	10.754	-3.86882E-002	-4.36338E-007	0.00000E+000	-3.76000E-002	-9.29272E-004	8	..........a	0	-327.74
	5408	10.818	-4.18753E-002	-3.23014E-007	0.00000E+000	-4.08000E-002	-8.45939E-004	8	..........a	0	-327.74
	5440	10.882	-4.50874E-002	-2.59686E-007	0.00000E+000	-4.40000E-002	-8.54272E-004	8	..........a	0	-327.74
	5472	10.946	-4.82815E-002	-4.10091E-007	0.00000E+000	-4.72000E-002	-8.79272E-004	8	..........a	0	-327.74
	5504	11.01	-5.14790E-002	-3.48429E-007	0.00000E+000	-5.04000E-002	-8.45939E-004	8	..........a	0	-327.74
	5536	11.074	-5.46728E-002	-4.45921E-007	0.00000E+000	-5.36000E-002	-9.04272E-004	8	..........a	0	-327.74
	5568	11.138	-5.78832E-002	-4.38005E-007	0.00000E+000	-5.68000E-002	-8.95939E-004	8	..........a	0	-327.74
	5600	11.202	-6.10861E-002	-5.40913E-007	0.00000E+000	-6.00000E-002	-9.62605E-004	8	..........a	0	-327.74
	5632	11.266	-6.42740E-002	-4.82168E-007	0.00000E+000	-6.32000E-002	-8.79272E-004	8	..........a	0	-327.74
	5664	11.33	-6.74740E-002	-3.78426E-007	0.00000E+000	-6.64000E-002	-8.54272E-004	8	..........a	0	-327.74
	5696	11.394	-7.06782E-002	-4.08007E-007	0.00000E+000	-6.96000E-002	-8.45939E-004	8	..........a	0	-327.74
	5728	11.458	-7.38686E-002	-4.19673E-007	0.00000E+000	-7.28000E-002	-8.95939E-004	8	..........a	0	-327.74
	5760	11.522	-7.70661E-002	-5.01333E-007	0.00000E+000	-7.60000E-002	-8.62605E-004	8	..........a	0	-327.74
	5792	11.586	-8.02690E-002	-4.92167E-007	0.00000E+000	-7.92000E-002	-8.45939E-004	8	..........a	0	-327.74
	5824	11.65	-8.34669E-002	-5.34664E-007	0.00000E+000	-8.24000E-002	-8.45939E-004	8	..........a	0	-327.74
	5856	11.714	-8.66511E-002	-6.15074E-007	0.00000E+000	-8.56000E-002	-9.12605E-004	8	..........a	0	-327.74
	5888	11.778	-8.98399E-002	-5.97159E-007	0.00000E+000	-8.88000E-002	-7.79272E-004	8	..........a	0	-327.74
	5920	11.842	-9.30436E-002	-5.67994E-007	0.00000E+000	-9.20000E-002	-8.54272E-004	8	..........a	0	-327.74
	5952	11.906	-9.62644E-002	-5.54662E-007	0.00000E+000	-9.52000E-002	-9.12605E-004	8	..........a	0	-327.74
	5984	11.97	-9.94382E-002	-6.57571E-007	0.00000E+000	-9.84000E-002	-9.04272E-004	8	..........a	0	-327.74
	6016	12.034	-1.02637E-001	-6.53404E-007	0.00000E+000	-1.01600E-001	-8.54272E-004	8	..........a	0	-327.74
	6048	12.098	-1.05827E-001	-8.15475E-007	0.00000E+000	-1.04800E-001	-8.45939E-004	8	..........a	0	-327.74
	6080	12.162	-1.09057E-001	-6.90901E-007	0.00000E+000	-1.08000E-001	-8.70939E-004	8	..........a	0	-327.74
	6112	12.226	-1.12234E-001	-7.54646E-007	0.00000E+000	-1.11200E-001	-8.95939E-004	8	..........a	0	-327.74
	6144	12.29	-1.15431E-001	-9.03384E-007	0.00000E+000	-1.14400E-001	-8.62605E-004	8	..........a	0	-327.74
	6176	12.354	-1.18638E-001	-8.99218E-007	0.00000E+000	-1.17600E-001	-7.95939E-004	8	..........a	0	-327.74
	6208	12.418	-1.21841E-001	-9.22549E-007	0.00000E+000	-1.20800E-001	-8.70939E-004	8	..........a	0	-327.74
	6240	12.482	-1.25033E-001	-9.31715E-007	0.00000E+000	-1.24000E-001	-8.70939E-004	8	..........a	0	-327.74
	6272	12.546	-1.28232E-001	-1.07295E-006	0.00000E+000	-1.27200E-001	-8.45939E-004	8	..........a	0	-327.74
	6304	12.61	-1.31421E-001	-1.07170E-006	0.00000E+000	-1.30400E-001	-9.12605E-004	8	..........a	0	-327.74
	6336	12.674	-1.34637E-001	-1.19628E-006	0.00000E+000	-1.33600E-001	-8.70939E-004	8	..........a	0	-327.74
	6368	12.738	-1.37826E-001	-1.22253E-006	0.00000E+000	-1.36800E-001	-8.70939E-004	8	..........a	0	-327.74
	6400	12.802	-1.41031E-001	-1.36251E-006	0.00000E+000	-1.40000E-001	-9.20939E-004	8	..........a	0	-327.74
	6432	12.866	-1.44223E-001	-1.40501E-006	0.00000E+000	-1.43200E-001	-8.79272E-004	8	..........a	0	-327.74
	6464	12.93	-1.47426E-001	-1.45876E-006	0.00000E+000	-1.46400E-001	-7.79272E-004	8	..........a	0	-327.74
	6496	12.994	-1.50632E-001	-1.54958E-006	0.00000E+000	-1.49600E-001	-8.29272E-004	8	..........a	0	-327.74
	6528	13.058	-1.53821E-001	-1.71415E-006	0.00000E+000	-1.52800E-001	-8.79272E-004	8	..........a	0	-327.74
	6560	13.122	-1.57017E-001	-1.81873E-006	0.00000E+000	-1.56000E-001	-8.95939E-004	8	..........a	0	-327.74
	6592	13.186	-1.60231E-001	-1.90872E-006	0.00000E+000	-1.59200E-001	-8.62605E-004	8	..........a	0	-327.74
	6624	13.25	-1.63429E-001	-2.04829E-006	0.00000E+000	-1.62400E-001	-8.54272E-004	8	..........a	0	-327.74
	6656	13.314	-1.66624E-001	-2.25411E-006	0.00000E+000	-1.65600E-001	-8.95939E-004	8	..........a	0	-327.74
	6688	13.378	-1.69821E-001	-2.35118E-006	0.00000E+000	-1.68800E-001	-8.87605E-004	8	..........a	0	-327.74
	6720	13.442	-1.73033E-001	-2.52784E-006	0.00000E+000	-1.72000E-001	-8.79272E-004	8	..........a	0	-327.74
	6752	13.506	-1.76209E-001	-2.68616E-006	0.00000E+000	-1.75200E-001	-8.87605E-004	8	..........a	0	-327.74
	6784	13.57	-1.79408E-001	-2.74032E-006	0.00000E+000	-1.78400E-001	-9.12605E-004	8	..........a	0	-327.74
	6816	13.634	-1.82618E-001	-2.97238E-006	0.00000E+000	-1.81600E-001	-8.54272E-004	8	..........a	0	-327.74
	6848	13.698	-1.85822E-001	-3.30569E-006	0.00000E+000	-1.84800E-001	-9.04272E-004	8	..........a	0	-327.74
	6880	13.762	-1.89020E-001	-3.48943E-006	0.00000E+000	-1.88000E-001	-8.45939E-004	8	..........a	0	-327.74
	6912	13.826	-1.92205E-001	-3.71691E-006	0.00000E+000	-1.91200E-001	-8.62605E-004	8	..........a	0	-327.74
	6944	13.89	-1.95423E-001	-3.86940E-006	0.00000E+000	-1.94400E-001	-8.95939E-004	8	..........a	0	-327.74
	6976	13.954	-1.98610E-001	-4.19812E-006	0.00000E+000	-1.97600E-001	-8.79272E-004	8	..........a	0	-327.74
	7008	14.018	-2.01799E-001	-4.52726E-006	0.00000E+000	-2.00800E-001	-8.70939E-004	8	..........a	0	-327.74
	7040	14.082	-2.04994E-001	-4.76224E-006	0.00000E+000	-2.04000E-001	-8.29272E-004	8	..........a	0	-327.74
	7072	14.146	-2.08195E-001	-5.12304E-006	0.00000E+000	-2.07200E-001	-8.62605E-004	8	..........a	0	-327.74
	7104	14.21	-2.11407E-001	-5.46843E-006	0.00000E+000	-2.10400E-001	-9.12605E-004	8	..........a	0	-327.74
	7136	14.274	-2.14594E-001	-5.88340E-006	0.00000E+000	-2.13600E-001	-8.79272E-004	8	..........a	0	-327.74
	7168	14.338	-2.17799E-001	-6.28587E-006	0.00000E+000	-2.16800E-001	-8.87605E-004	8	..........a	0	-327.74
	7200	14.402	-2.21007E-001	-6.65334E-006	0.00000E+000	-2.20000E-001	-8.95939E-004	8	..........a	0	-327.74
	7232	14.466	-2.24201E-001	-7.02498E-006	0.00000E+000	-2.23200E-001	-8.45939E-004	8	..........a	0	-327.74
	7264	14.53	-2.27399E-001	-7.41744E-006	0.00000E+000	-2.26400E-001	-8.79272E-004	8	..........a	0	-327.74
	7296	14.594	-2.30595E-001	-7.84574E-006	0.00000E+000	-2.29600E-001	-9.12605E-004	8	..........a	0	-327.74
	7328	14.658	-2.33785E-001	-8.32237E-006	0.00000E+000	-2.32800E-001	-9.12605E-004	8	..........a	0	-327.74
	7360	14.722	-2.36994E-001	-8.86483E-006	0.00000E+000	-2.36000E-001	-8.79272E-004	8	..........a	0	-327.74
	7392	14.786	-2.40193E-001	-9.34771E-006	0.00000E+000	-2.39200E-001	-8.70939E-004	8	..........a	0	-327.74
	7424	14.85	-2.43376E-001	-9.78642E-006	0.00000E+000	-2.42400E-001	-9.12605E-004	8	..........a	0	-327.74
	7456	14.914	-2.46573E-001	-1.02597E-005	0.00000E+000	-2.45600E-001	-8.70939E-004	8	..........a	0	-327.74
	7488	14.978	-2.49787E-001	-1.07401E-005	0.00000E+000	-2.48800E-001	-8.87605E-004	8	..........a	0	-327.74
	7520	15.042	-2.52972E-001	-1.13121E-005	0.00000E+000	-2.52000E-001	-8.95939E-004	8	..........a	0	-327.74
	7552	15.106	-2.56169E-001	-1.17408E-005	0.00000E+000	-2.55200E-001	-8.87605E-004	8	..........a	0	-327.74
	7584	15.17	-2.59368E-001	-1.23321E-005	0.00000E+000	-2.58400E-001	-9.12605E-004	8	..........a	0	-327.74
	7616	15.234	-2.62579E-001	-1.28074E-005	0.00000E+000	-2.61600E-001	-8.62605E-004	8	..........a	0	-327.74
	7648	15.298	-2.65770E-001	-1.33711E-005	0.00000E+000	-2.64800E-001	-9.04272E-004	8	..........a	0	-327.74
	7680	15.362	-2.68936E-001	-1.38978E-005	0.00000E+000	-2.68000E-001	-9.12605E-004	8	..........a	0	-327.74
	7712	15.426	-2.72094E-001	-1.44760E-005	0.00000E+000	-2.71200E-001	-8.95939E-004	8	..........a	0	-327.74
	7744	15.49	-2.75257E-001	-1.50339E-005	0.00000E+000	-2.74400E-001	-8.87605E-004	8	..........a	0	-327.74
	7776	15.554	-2.78444E-001	-1.54555E-005	0.00000E+000	-2.77600E-001	-8.37606E-004	8	..........a	0	-327.74
	7808	15.618	-2.81619E-001	-1.60118E-005	0.00000E+000	-2.80800E-001	-9.20939E-004	8	..........a	0	-327.74
	7840	15.682	-2.84840E-001	-1.65355E-005	0.00000E+000	-2.84000E-001	-8.95939E-004	8	..........a	0	-327.74
	7872	15.746	-2.88019E-001	-1.68613E-005	0.00000E+000	-2.87200E-001	-8.87605E-004	8	..........a	0	-327.74
	7904	15.81	-2.91211E-001	-1.74804E-005	0.00000E+000	-2.90400E-001	-9.20939E-004	8	..........a	0	-327.74
	7936	15.874	-2.94461E-001	-1.78449E-005	0.00000E+000	-2.93600E-001	-8.70939E-004	8	..........a	0	-327.74
	7968	15.938	-2.97698E-001	-1.85216E-005	0.00000E+000	-2.96800E-001	-9.29272E-004	8	..........a	0	-327.74
	8000	16.002	-3.00882E-001	-1.90419E-005	0.00000E+000	-3.00000E-001	-8.54272E-004	8	..........a	0	-327.74
	8032	16.066	-3.04057E-001	-1.94036E-005	0.00000E+000	-3.03200E-001	-8.54272E-004	8	..........a	0	-327.74
	8064	16.13	-3.07215E-001	-1.99356E-005	0.00000E+000	-3.06400E-001	-9.29272E-004	8	..........a	0	-327.74
	8096	16.194	-3.10419E-001	-2.02743E-005	0.00000E+000	-3.09600E-001	-8.87605E-004	8	..........a	0	-327.74
	8128	16.258	-3.13619E-001	-2.07897E-005	0.00000E+000	-3.12800E-001	-8.87605E-004	8	..........a	0	-327.74
	8160	16.322	-3.16815E-001	-2.11280E-005	0.00000E+000	-3.16000E-001	-9.29272E-004	8	..........a	0	-327.74
	8192	16.386	-3.20078E-001	-2.16930E-005	0.00000E+000	-3.19200E-001	-9.20939E-004	8	..........a	0	-327.74
	8224	16.45	-3.23307E-001	-2.21479E-005	0.00000E+000	-3.22400E-001	-9.29272E-004	8	..........a	0	-327.74
	8256	16.514	-3.26428E-001	-2.25362E-005	0.00000E+000	-3.25600E-001	-7.95939E-004	8	..........a	0	-327.74
	8288	16.578	-3.29628E-001	-2.29820E-005	0.00000E+000	-3.28800E-001	-9.45939E-004	8	..........a	0	-327.74
	8320	16.642	-3.32840E-001	-2.34295E-005	0.00000E+000	-3.32000E-001	-8.54272E-004	8	..........a	0	-327.74
	8352	16.706	-3.36032E-001	-2.39669E-005	0.00000E+000	-3.35200E-001	-9.12605E-004	8	..........a	0	-327.74
	8384	16.77	-3.39211E-001	-2.42765E-005	0.00000E+000	-3.38400E-001	-8.87605E-004	8	..........a	0	-327.74
	8416	16.834	-3.42407E-001	-2.47136E-005	0.00000E+000	-3.41600E-001	-9.20939E-004	8	..........a	0	-327.74
	8448	16.898	-3.45640E-001	-2.52481E-005	0.00000E+000	-3.44800E-001	-8.95939E-004	8	..........a	0	-327.74
	8480	16.962	-3.48861E-001	-2.56247E-005	0.00000E+000	-3.48000E-001	-8.95939E-004	8	..........a	0	-327.74
	8512	17.026	-3.52065E-001	-2.59260E-005	0.00000E+000	-3.51200E-001	-8.20939E-004	8	..........a	0	-327.74
	8544	17.09	-3.55240E-001	-2.65401E-005	0.00000E+000	-3.54400E-001	-8.87605E-004	8	..........a	0	-327.74
	8576	17.154	-3.58407E-001	-2.67905E-005	0.00000E+000	-3.57600E-001	-8.79272E-004	8	..........a	0	-327.74
	8608	17.218	-3.61619E-001	-2.71959E-005	0.00000E+000	-3.60800E-001	-8.62605E-004	8	..........a	0	-327.74
	8640	17.282	-3.64807E-001	-2.77871E-005	0.00000E+000	-3.64000E-001	-9.12605E-004	8	..........a	0	-327.74
	8672	17.346	-3.68003E-001	-2.81408E-005	0.00000E+000	-3.67200E-001	-9.20939E-004	8	..........a	0	-327.74
	8704	17.41	-3.71223E-001	-2.87220E-005	0.00000E+000	-3.70400E-001	-9.20939E-004	8	..........a	0	-327.74
	8736	17.474	-3.74444E-001	-2.92949E-005	0.00000E+000	-3.73600E-001	-9.20939E-004	8	..........a	0	-327.74
	8768	17.538	-3.77678E-001	-2.99602E-005	0.00000E+000	-3.76800E-001	-8.87605E-004	8	..........a	0	-327.74
	8800	17.602	-3.80840E-001	-3.05231E-005	0.00000E+000	-3.80000E-001	-9.12605E-004	8	..........a	0	-327.74
	8832	17.666	-3.83990E-001	-3.11572E-005	0.00000E+000	-3.83200E-001	-9.12605E-004	8	..........a	0	-327.74
	8864	17.73	-3.87186E-001	-3.19734E-005	0.00000E+000	-3.86400E-001	-9.20939E-004	8	..........a	0	-327.74
	8896	17.794	-3.90407E-001	-3.27892E-005	0.00000E+000	-3.89600E-001	-9.04272E-004	8	..........a	0	-327.74
	8928	17.858	-3.93603E-001	-3.36891E-005	0.00000E+000	-3.92800E-001	-9.20939E-004	8	..........a	0	-327.74
	8960	17.922	-3.96836E-001	-3.45573E-005	0.00000E+000	-3.96000E-001	-8.87605E-004	8	..........a	0	-327.74
	8992	17.986	-4.00003E-001	-3.58493E-005	0.00000E+000	-3.99200E-001	-8.95939E-004	8	..........a	0	-327.74
	9024	18.05	-4.03223E-001	-3.70067E-005	0.00000E+000	-4.02400E-001	-8.62605E-004	8	..........a	0	-327.74
	9056	18.114	-4.06419E-001	-3.83045E-005	0.00000E+000	-4.05600E-001	-9.20939E-004	8	..........a	0	-327.74
	9088	18.178	-4.09582E-001	-3.97823E-005	0.00000E+000	-4.08800E-001	-9.29272E-004	8	..........a	0	-327.74
	9120	18.242	-4.12790E-001	-4.13547E-005	0.00000E+000	-4.12000E-001	-9.04272E-004	8	..........a	0	-327.74
	9152	18.306	-4.15994E-001	-4.30013E-005	0.00000E+000	-4.15200E-001	-8.95939E-004	8	..........a	0	-327.74
	9184	18.37	-4.19190E-001	-4.48419E-005	0.00000E+000	-4.18400E-001	-8.54272E-004	8	..........a	0	-327.74
	9216	18.434	-4.22394E-001	-4.67218E-005	0.00000E+000	-4.21600E-001	-9.29272E-004	8	..........a	0	-327.74
	9248	18.498	-4.25607E-001	-4.89033E-005	0.00000E+000	-4.24800E-001	-8.62605E-004	8	..........a	0	-327.74
	9280	18.562	-4.28823E-001	-5.10706E-005	0.00000E+000	-4.28000E-001	-8.87605E-004	8	..........a	0	-327.74
	9312	18.626	-4.32011E-001	-5.31813E-005	0.00000E+000	-4.31200E-001	-9.12605E-004	8	..........a	0	-327.74
	9344	18.69	-4.35190E-001	-5.55227E-005	0.00000E+000	-4.34400E-001	-8.54272E-004	8	..........a	0	-327.74
	9376	18.754	-4.38386E-001	-5.77347E-005	0.00000E+000	-4.37600E-001	-9.20939E-004	8	..........a	0	-327.74
	9408	18.818	-4.41598E-001	-6.03132E-005	0.00000E+000	-4.40800E-001	-9.37606E-004	8	..........a	0	-327.74
	9440	18.882	-4.44761E-001	-6.26718E-005	0.00000E+000	-4.44000E-001	-9.20939E-004	8	..........a	0	-327.74
	9472	18.946	-4.47998E-001	-6.50895E-005	0.00000E+000	-4.47200E-001	-9.29272E-004	8	..........a	0	-327.74
	9504	19.01	-4.51203E-001	-6.76659E-005	0.00000E+000	-4.50400E-001	-9.04272E-004	8	..........a	0	-327.74
	9536	19.074	-4.54369E-001	-7.03420E-005	0.00000E+000	-4.53600E-001	-8.62605E-004	8	..........a	0	-327.74
	9568	19.138	-4.57590E-001	-7.33030E-005	0.00000E+000	-4.56800E-001	-9.45939E-004	8	..........a	0	-327.74
	9600	19.202	-4.60765E-001	-7.60923E-005	0.00000E+000	-4.60000E-001	-9.20939E-004	8	..........a	0	-327.74
	9632	19.266	-4.63953E-001	-7.91067E-005	0.00000E+000	-4.63200E-001	-8.87605E-004	8	..........a	0	-327.74
	9664	19.33	-4.67157E-001	-8.18519E-005	0.00000E+000	-4.66400E-001	-8.45939E-004	8	..........a	0	-327.74
	9696	19.394	-4.70357E-001	-8.47871E-005	0.00000E+000	-4.69600E-001	-8.95939E-004	8	..........a	0	-327.74
	9728	19.458	-4.73569E-001	-8.77081E-005	0.00000E+000	-4.72800E-001	-9.29272E-004	8	..........a	0	-327.74
	9760	19.522	-4.76765E-001	-9.13924E-005	0.00000E+000	-4.76000E-001	-9.29272E-004	8	..........a	0	-327.74
	9792	19.586	-4.79973E-001	-9.47250E-005	0.00000E+000	-4.79200E-001	-9.04272E-004	8	..........a	0	-327.74
	9824	19.65	-4.83178E-001	-9.82906E-005	0.00000E+000	-4.82400E-001	-9.29272E-004	8	..........a	0	-327.74
	9856	19.714	-4.86336E-001	-1.01954E-004	0.00000E+000	-4.85600E-001	-8.79272E-004	8	..........a	0	-327.74
	9888	19.778	-4.89569E-001	-1.05440E-004	0.00000E+000	-4.88800E-001	-8.95939E-004	8	..........a	0	-327.74
	9920	19.842	-4.92736E-001	-1.09509E-004	0.00000E+000	-4.92000E-001	-9.04272E-004	8	..........a	0	-327.74
	9952	19.906	-4.95940E-001	-1.14042E-004	0.00000E+000	-4.95200E-001	-9.37606E-004	8	..........a	0	-327.74
	9984	19.97	-4.99086E-001	-1.18348E-004	0.00000E+000	-4.98400E-001	-8.95939E-004	8	..........a	0	-327.74
	10016	20.034	-5.02340E-001	-1.23324E-004	0.00000E+000	-5.01600E-001	-8.62605E-004	8	..........a	0	-327.74
	10048	20.098	-5.05503E-001	-1.28395E-004	0.00000E+000	-5.04800E-001	-9.12605E-004	8	..........a	0	-327.74
	10080	20.162	-5.08728E-001	-1.33860E-004	0.00000E+000	-5.08000E-001	-9.29272E-004	8	..........a	0	-327.74
	10112	20.226	-5.11923E-001	-1.39910E-004	0.00000E+000	-5.11200E-001	-8.95939E-004	8	..........a	0	-327.74
	10144	20.29	-5.15078E-001	-1.45899E-004	0.00000E+000	-5.14400E-001	-8.79272E-004	8	..........a	0	-327.74
	10176	20.354	-5.18298E-001	-1.52451E-004	0.00000E+000	-5.17600E-001	-8.79272E-004	8	..........a	0	-327.74
	10208	20.418	-5.21511E-001	-1.59059E-004	0.00000E+000	-5.20800E-001	-9.12605E-004	8	..........a	0	-327.74
	10240	20.482	-5.24490E-001	-1.66283E-004	0.00000E+000	-5.24000E-001	-9.29272E-004	8	..........a	0	-327.74
	10272	20.546	-5.27828E-001	-1.73595E-004	0.00000E+000	-5.27200E-001	-9.29272E-004	8	..........a	0	-327.74
	10304	20.61	-5.31019E-001	-1.81164E-004	0.00000E+000	-5.30400E-001	-9.29272E-004	8	..........a	0	-327.74
	10336	20.674	-5.34244E-001	-1.88835E-004	0.00000E+000	-5.33600E-001	-9.45939E-004	8	..........a	0	-327.74
	10368	20.738	-5.37340E-001	-1.96927E-004	0.00000E+000	-5.36800E-001	-9.12605E-004	8	..........a	0	-327.74
	10400	20.802	-5.40528E-001	-2.05457E-004	0.00000E+000	-5.40000E-001	-9.29272E-004	8	..........a	0	-327.74
	10432	20.866	-5.43669E-001	-2.13967E-004	0.00000E+000	-5.43200E-001	-8.95939E-004	8	..........a	0	-327.74
	10464	20.93	-5.47090E-001	-2.22578E-004	0.00000E+000	-5.46400E-001	-8.54272E-004	8	..........a	0	-327.74
	10496	20.994	-5.49919E-001	-2.31449E-004	0.00000E+000	-5.49600E-001	-8.87605E-004	8	..........a	0	-327.74
	10528	21.058	-5.53328E-001	-2.39851E-004	0.00000E+000	-5.52800E-001	-8.87605E-004	8	..........a	0	-327.74
	10560	21.122	-5.56511E-001	-2.47536E-004	0.00000E+000	-5.56000E-001	-8.95939E-004	8	..........a	0	-327.74
	10592	21.186	-5.59678E-001	-2.55693E-004	0.00000E+000	-5.59200E-001	-9.12605E-004	8	..........a	0	-327.74
	10624	21.25	-5.62807E-001	-2.63769E-004	0.00000E+000	-5.62400E-001	-9.37606E-004	8	..........a	0	-327.74
	10656	21.314	-5.66342E-001	-2.72263E-004	0.00000E+000	-5.65600E-001	-8.79272E-004	9	..........a	0	-327.74
	10688	21.378	-5.69558E-001	-2.79288E-004	0.00000E+000	-5.68800E-001	-8.95939E-004	9	..........a	0	-327.74
	10720	21.442	-5.72750E-001	-2.86392E-004	0.00000E+000	-5.72000E-001	-8.12605E-004	9	..........a	0	-327.74
	10752	21.506	-5.75912E-001	-2.93479E-004	0.00000E+000	-5.75200E-001	-8.62605E-004	9	..........a	0	-327.74
	10784	21.57	-5.79154E-001	-2.99575E-004	0.00000E+000	-5.78400E-001	-8.54272E-004	9	..........a	0	-327.74
	10816	21.634	-5.82342E-001	-3.05016E-004	0.00000E+000	-5.81600E-001	-8.54272E-004	9	..........a	0	-327.74
	10848	21.698	-5.85537E-001	-3.11146E-004	0.00000E+000	-5.84800E-001	-8.62605E-004	9	..........a	0	-327.74
	10880	21.762	-5.88742E-001	-3.16340E-004	0.00000E+000	-5.88000E-001	-8.70939E-004	9	..........a	0	-327.74
	10912	21.826	-5.91950E-001	-3.21259E-004	0.00000E+000	-5.91200E-001	-8.62605E-004	9	..........a	0	-327.74
	10944	21.89	-5.95158E-001	-3.25792E-004	0.00000E+000	-5.94400E-001	-8.95939E-004	9	..........a	0	-327.74
	10976	21.954	-5.98371E-001	-3.29754E-004	0.00000E+000	-5.97600E-001	-8.20939E-004	9	..........a	0	-327.74
	11008	22.018	-6.01558E-001	-3.32846E-004	0.00000E+000	-6.00800E-001	-9.12605E-004	9	..........a	0	-327.74
	11040	22.082	-6.04771E-001	-3.36256E-004	0.00000E+000	-6.04000E-001	-9.20939E-004	9	..........a	0	-327.74
	11072	22.146	-6.07958E-001	-3.39896E-004	0.00000E+000	-6.07200E-001	-8.12605E-004	9	..........a	0	-327.74
	11104	22.21	-6.11167E-001	-3.43134E-004	0.00000E+000	-6.10400E-001	-8.62605E-004	9	..........a	0	-327.74
	11136	22.274	-6.14329E-001	-3.45696E-004	0.00000E+000	-6.13600E-001	-9.29272E-004	9	..........a	0	-327.74
	11168	22.338	-6.17546E-001	-3.49122E-004	0.00000E+000	-6.16800E-001	-8.87605E-004	9	..........a	0	-327.74
	11200	22.402	-6.20708E-001	-3.51282E-004	0.00000E+000	-6.20000E-001	-8.87605E-004	9	..........a	0	-327.74
	11232	22.466	-6.23937E-001	-3.53004E-004	0.00000E+000	-6.23200E-001	-8.87605E-004	9	..........a	0	-327.74
	11264	22.53	-6.27079E-001	-3.55762E-004	0.00000E+000	-6.26400E-001	-9.54272E-004	9	..........a	0	-327.74
	11296	22.594	-6.30321E-001	-3.57734E-004	0.00000E+000	-6.29600E-001	-9.37606E-004	9	..........a	0	-327.74
	11328	22.658	-6.33546E-001	-3.59544E-004	0.00000E+000	-6.32800E-001	-8.62605E-004	9	..........a	0	-327.74
	11360	22.722	-6.36712E-001	-3.61027E-004	0.00000E+000	-6.36000E-001	-8.87605E-004	9	..........a	0	-327.74
	11392	22.786	-6.39925E-001	-3.62824E-004	0.00000E+000	-6.39200E-001	-8.87605E-004	9	..........a	0	-327.74
	11424	22.85	-6.43117E-001	-3.64220E-004	0.00000E+000	-6.42400E-001	-9.12605E-004	9	..........a	0	-327.74
	11456	22.914	-6.46342E-001	-3.65302E-004	0.00000E+000	-6.45600E-001	-9.29272E-004	9	..........a	0	-327.74
	11488	22.978	-6.49546E-001	-3.66965E-004	0.00000E+000	-6.48800E-001	-8.95939E-004	9	..........a	0	-327.74
	11520	23.042	-6.52717E-001	-3.68603E-004	0.00000E+000	-6.52000E-001	-9.12605E-004	9	..........a	0	-327.74
	11552	23.106	-6.55925E-001	-3.69493E-004	0.00000E+000	-6.55200E-001	-8.54272E-004	9	..........a	0	-327.74
	11584	23.17	-6.59129E-001	-3.69631E-004	0.00000E+000	-6.58400E-001	-9.12605E-004	9	..........a	0	-327.74
	11616	23.234	-6.62325E-001	-3.69995E-004	0.00000E+000	-6.61600E-001	-9.12605E-004	9	..........a	0	-327.74
	11648	23.298	-6.65496E-001	-3.70504E-004	0.00000E+000	-6.64800E-001	-9.29272E-004	9	..........a	0	-327.74
	11680	23.362	-6.68712E-001	-3.70709E-004	0.00000E+000	-6.68000E-001	-8.79272E-004	9	..........a	0	-327.74
	11712	23.426	-6.71921E-001	-3.71394E-004	0.00000E+000	-6.71200E-001	-9.12605E-004	9	..........a	0	-327.74
	11744	23.49	-6.75137E-001	-3.72786E-004	0.00000E+000	-6.74400E-001	-8.95939E-004	9	..........a	0	-327.74
	11776	23.554	-6.78275E-001	-3.74194E-004	0.00000E+000	-6.77600E-001	-8.79272E-004	9	..........a	0	-327.74
	11808	23.618	-6.81512E-001	-3.73701E-004	0.00000E+000	-6.80800E-001	-8.79272E-004	9	..........a	0	-327.74
	11840	23.682	-6.84721E-001	-3.74249E-004	0.00000E+000	-6.84000E-001	-8.87605E-004	9	..........a	0	-327.74
	11872	23.746	-6.87950E-001	-3.74558E-004	0.00000E+000	-6.87200E-001	-8.12605E-004	9	..........a	0	-327.74
	11904	23.81	-6.91133E-001	-3.74796E-004	0.00000E+000	-6.90400E-001	-8.54272E-004	9	..........a	0	-327.74
	11936	23.874	-6.94333E-001	-3.74198E-004	0.00000E+000	-6.93600E-001	-8.79272E-004	9	..........a	0	-327.74
	11968	23.938	-6.97517E-001	-3.74345E-004	0.00000E+000	-6.96800E-001	-8.87605E-004	9	..........a	0	-327.74
	12000	24.002	-7.00725E-001	-3.76083E-004	0.00000E+000	-7.00000E-001	-8.29272E-004	9	..........a	0	-327.74
	12032	24.066	-7.03808E-001	-3.76902E-004	0.00000E+000	-7.03200E-001	-8.37606E-004	9	..........a	0	-327.74
	12064	24.13	-7.07062E-001	-3.78419E-004	0.00000E+000	-7.06400E-001	-8.79272E-004	9	..........a	0	-327.74
	12096	24.194	-7.10292E-001	-3.78156E-004	0.00000E+000	-7.09600E-001	-8.87605E-004	9	..........a	0	-327.74
	12128	24.258	-7.13529E-001	-3.75970E-004	0.00000E+000	-7.12800E-001	-8.62605E-004	9	..........a	0	-327.74
	12160	24.322	-7.16704E-001	-3.75736E-004	0.00000E+000	-7.16000E-001	-8.62605E-004	9	..........a	0	-327.74
	12192	24.386	-7.19908E-001	-3.76463E-004	0.00000E+000	-7.19200E-001	-9.04272E-004	9	..........a	0	-327.74
	12224	24.45	-7.23104E-001	-3.77274E-004	0.00000E+000	-7.22400E-001	-8.95939E-004	9	..........a	0	-327.74
	12256	24.514	-7.26333E-001	-3.77182E-004	0.00000E+000	-7.25600E-001	-8.79272E-004	9	..........a	0	-327.74
	12288	24.578	-7.29425E-001	-3.77897E-004	0.00000E+000	-7.28800E-001	-8.70939E-004	9	..........a	0	-327.74
	12320	24.642	-7.32687E-001	-3.78707E-004	0.00000E+000	-7.32000E-001	-9.04272E-004	9	..........a	0	-327.74
	12352	24.706	-7.35896E-001	-3.79225E-004	0.00000E+000	-7.35200E-001	-8.87605E-004	9	..........a	0	-327.74
	12384	24.77	-7.39129E-001	-3.79480E-004	0.00000E+000	-7.38400E-001	-9.04272E-004	9	..........a	0	-327.74
	12416	24.834	-7.42275E-001	-3.80069E-004	0.00000E+000	-7.41600E-001	-9.29272E-004	9	..........a	0	-327.74
	12448	24.898	-7.45537E-001	-3.80345E-004	0.00000E+000	-7.44800E-001	-8.62605E-004	9	..........a	0	-327.74
	12480	24.962	-7.48633E-001	-3.79664E-004	0.00000E+000	-7.48000E-001	-8.37606E-004	9	..........a	0	-327.74
	12512	25.026	-7.51921E-001	-3.79639E-004	0.00000E+000	-7.51200E-001	-8.79272E-004	9	..........a	0	-327.74
	12544	25.09	-7.55017E-001	-3.80496E-004	0.00000E+000	-7.54400E-001	-8.79272E-004	9	..........a	0	-327.74
	12576	25.154	-7.58300E-001	-3.79317E-004	0.00000E+000	-7.57600E-001	-9.12605E-004	9	..........a	0	-327.74
	12608	25.218	-7.61500E-001	-3.78398E-004	0.00000E+000	-7.60800E-001	-9.04272E-004	9	..........a	0	-327.74
	12640	25.282	-7.64717E-001	-3.79271E-004	0.00000E+000	-7.64000E-001	-8.79272E-004	9	..........a	0	-327.74
	12672	25.346	-7.67846E-001	-3.79923E-004	0.00000E+000	-7.67200E-001	-8.29272E-004	9	..........a	0	-327.74
	12704	25.41	-7.71083E-001	-3.80211E-004	0.00000E+000	-7.70400E-001	-8.79272E-004	9	..........a	0	-327.74
	12736	25.474	-7.74342E-001	-3.80926E-004	0.00000E+000	-7.73600E-001	-8.95939E-004	9	..........a	0	-327.74
	12768	25.538	-7.77517E-001	-3.81536E-004	0.00000E+000	-7.76800E-001	-8.62605E-004	9	..........a	0	-327.74
	12800	25.602	-7.80692E-001	-3.82000E-004	0.00000E+000	-7.80000E-001	-8.79272E-004	9	..........a	0	-327.74
	12832	25.666	-7.83850E-001	-3.81682E-004	0.00000E+000	-7.83200E-001	-9.04272E-004	9	..........a	0	-327.74
	12864	25.73	-7.87075E-001	-3.82489E-004	0.00000E+000	-7.86400E-001	-9.04272E-004	9	..........a	0	-327.74
	12896	25.794	-7.90342E-001	-3.82602E-004	0.00000E+000	-7.89600E-001	-8.45939E-004	9	..........a	0	-327.74
	12928	25.858	-7.93517E-001	-3.80830E-004	0.00000E+000	-7.92800E-001	-8.79272E-004	9	..........a	0	-327.74
	12960	25.922	-7.96717E-001	-3.81210E-004	0.00000E+000	-7.96000E-001	-8.87605E-004	9	..........a	0	-327.74
	12992	25.986	-7.99925E-001	-3.82163E-004	0.00000E+000	-7.99200E-001	-8.12605E-004	9	..........a	0	-327.74
	13024	26.05	-8.03125E-001	-3.82447E-004	0.00000E+000	-8.02400E-001	-8.54272E-004	9	..........a	0	-327.74
	13056	26.114	-8.06221E-001	-3.82384E-004	0.00000E+000	-8.05600E-001	-8.29272E-004	9	..........a	0	-327.74
	13088	26.178	-8.09479E-001	-3.82054E-004	0.00000E+000	-8.08800E-001	-8.79272E-004	9	..........a	0	-327.74
	13120	26.242	-8.12667E-001	-3.82038E-004	0.00000E+000	-8.12000E-001	-9.12605E-004	9	..........a	0	-327.74
	13152	26.306	-8.15908E-001	-3.82481E-004	0.00000E+000	-8.15200E-001	-8.79272E-004	9	..........a	0	-327.74
	13184	26.37	-8.18954E-001	-3.83020E-004	0.00000E+000	-8.18400E-001	-8.29272E-004	9	..........a	0	-327.74
	13216	26.434	-8.22179E-001	-3.83195E-004	0.00000E+000	-8.21600E-001	-9.20939E-004	9	..........a	0	-327.74
	13248	26.498	-8.25371E-001	-3.83655E-004	0.00000E+000	-8.24800E-001	-8.70939E-004	9	..........a	0	-327.74
	13280	26.562	-8.28512E-001	-3.83178E-004	0.00000E+000	-8.28000E-001	-8.79272E-004	9	..........a	0	-327.74
	13312	26.626	-8.31579E-001	-3.84520E-004	0.00000E+000	-8.31200E-001	-8.20939E-004	9	..........a	0	-327.74
	13344	26.69	-8.34983E-001	-3.83747E-004	0.00000E+000	-8.34400E-001	-8.54272E-004	9	..........a	0	-327.74
	13376	26.754	-8.38158E-001	-3.83738E-004	0.00000E+000	-8.37600E-001	-8.37606E-004	9	..........a	0	-327.74
	13408	26.818	-8.41425E-001	-3.84879E-004	0.00000E+000	-8.40800E-001	-8.04272E-004	9	..........a	0	-327.74
	13440	26.882	-8.44587E-001	-3.84841E-004	0.00000E+000	-8.44000E-001	-8.37606E-004	9	..........a	0	-327.74
	13472	26.946	-8.47733E-001	-3.85297E-004	0.00000E+000	-8.47200E-001	-7.95939E-004	9	..........a	0	-327.74
	13504	27.01	-8.51008E-001	-3.82359E-004	0.00000E+000	-8.50400E-001	-8.45939E-004	9	..........a	0	-327.74
	13536	27.074	-8.54125E-001	-3.81950E-004	0.00000E+000	-8.53600E-001	-8.04272E-004	9	..........a	0	-327.74
	13568	27.138	-8.57225E-001	-3.82656E-004	0.00000E+000	-8.56800E-001	-8.79272E-004	9	..........a	0	-327.74
	13600	27.202	-8.60596E-001	-3.82903E-004	0.00000E+000	-8.60000E-001	-8.62605E-004	9	..........a	0	-327.74
	13632	27.266	-8.63754E-001	-3.83020E-004	0.00000E+000	-8.63200E-001	-8.62605E-004	9	..........a	0	-327.74
	13664	27.33	-8.66958E-001	-3.83926E-004	0.00000E+000	-8.66400E-001	-9.04272E-004	9	..........a	0	-327.74
	13696	27.394	-8.70158E-001	-3.84424E-004	0.00000E+000	-8.69600E-001	-8.79272E-004	9	..........a	0	-327.74
	13728	27.458	-8.73292E-001	-3.83889E-004	0.00000E+000	-8.72800E-001	-8.37606E-004	9	..........a	0	-327.74
	13760	27.522	-8.76600E-001	-3.84298E-004	0.00000E+000	-8.76000E-001	-8.20939E-004	9	..........a	0	-327.74
	13792	27.586	-8.79829E-001	-3.85335E-004	0.00000E+000	-8.79200E-001	-8.20939E-004	9	..........a	0	-327.74
	13824	27.65	-8.82821E-001	-3.85564E-004	0.00000E+000	-8.82400E-001	-8.29272E-004	9	..........a	0	-327.74
	13856	27.714	-8.86212E-001	-3.85991E-004	0.00000E+000	-8.85600E-001	-8.54272E-004	9	..........a	0	-327.74
	13888	27.778	-8.89371E-001	-3.86141E-004	0.00000E+000	-8.88800E-001	-8.12605E-004	9	..........a	0	-327.74
	13920	27.842	-8.92579E-001	-3.86333E-004	0.00000E+000	-8.92000E-001	-8.70939E-004	9	..........a	0	-327.74
	13952	27.906	-8.95750E-001	-3.86220E-004	0.00000E+000	-8.95200E-001	-8.70939E-004	9	..........a	0	-327.74
	13984	27.97	-8.99008E-001	-3.87294E-004	0.00000E+000	-8.98400E-001	-8.37606E-004	9	..........a	0	-327.74
	14016	28.034	-9.02025E-001	-3.87888E-004	0.00000E+000	-9.01600E-001	-8.62605E-004	9	..........a	0	-327.74
	14048	28.098	-9.05467E-001	-3.86037E-004	0.00000E+000	-9.04800E-001	-8.54272E-004	9	..........a	0	-327.74
	14080	28.162	-9.08471E-001	-3.86693E-004	0.00000E+000	-9.08000E-001	-8.29272E-004	9	..........a	0	-327.74
	14112	28.226	-9.11758E-001	-3.85665E-004	0.00000E+000	-9.11200E-001	-8.62605E-004	9	..........a	0	-327.74
	14144	28.29	-9.14950E-001	-3.86066E-004	0.00000E+000	-9.14400E-001	-8.45939E-004	9	..........a	0	-327.74
	14176	28.354	-9.18071E-001	-3.84724E-004	0.00000E+000	-9.17600E-001	-8.54272E-004	9	..........a	0	-327.74
	14208	28.418	-9.21375E-001	-3.85389E-004	0.00000E+000	-9.20800E-001	-8.54272E-004	9	..........a	0	-327.74
	14240	28.482	-9.24442E-001	-3.86166E-004	0.00000E+000	-9.24000E-001	-8.29272E-004	9	..........a	0	-327.74
	14272	28.546	-9.27771E-001	-3.85410E-004	0.00000E+000	-9.27200E-001	-7.79272E-004	9	..........a	0	-327.74
	14304	28.61	-9.30904E-001	-3.85234E-004	0.00000E+000	-9.30400E-001	-7.87605E-004	9	..........a	0	-327.74
	14336	28.674	-9.33921E-001	-3.86897E-004	0.00000E+000	-9.33600E-001	-8.95939E-004	9	..........a	0	-327.74
	14368	28.738	-9.37325E-001	-3.88093E-004	0.00000E+000	-9.36800E-001	-8.95939E-004	9	..........a	0	-327.74
	14400	28.802	-9.40529E-001	-3.87173E-004	0.00000E+000	-9.40000E-001	-9.04272E-004	9	..........a	0	-327.74
	14432	28.866	-9.43750E-001	-3.87332E-004	0.00000E+000	-9.43200E-001	-8.20939E-004	9	..........a	0	-327.74
	14464	28.93	-9.46958E-001	-3.87194E-004	0.00000E+000	-9.46400E-001	-8.62605E-004	9	..........a	0	-327.74
	14496	28.994	-9.50000E-001	-3.87248E-004	0.00000E+000	-9.49600E-001	-7.70939E-004	9	..........a	0	-327.74
	14528	29.058	-9.53187E-001	-3.86220E-004	0.00000E+000	-9.52800E-001	-8.54272E-004	9	..........a	0	-327.74
	14560	29.122	-9.56471E-001	-3.86751E-004	0.00000E+000	-9.56000E-001	-8.45939E-004	9	..........a	0	-327.74
	14592	29.186	-9.59512E-001	-3.86684E-004	0.00000E+000	-9.59200E-001	-8.54272E-004	9	..........a	0	-327.74
	14624	29.25	-9.62925E-001	-3.86346E-004	0.00000E+000	-9.62400E-001	-7.79272E-004	9	..........a	0	-327.74
	14656	29.314	-9.66129E-001	-3.86998E-004	0.00000E+000	-9.65600E-001	-8.62605E-004	9	..........a	0	-327.74
	14688	29.378	-9.69354E-001	-3.86755E-004	0.00000E+000	-9.68800E-001	-8.62605E-004	9	..........a	0	-327.74
	14720	29.442	-9.72362E-001	-3.86931E-004	0.00000E+000	-9.72000E-001	-8.95939E-004	9	..........a	0	-327.74
	14752	29.506	-9.75575E-001	-3.86133E-004	0.00000E+000	-9.75200E-001	-8.20939E-004	9	..........a	0	-327.74
	14784	29.57	-9.78967E-001	-3.87445E-004	0.00000E+000	-9.78400E-001	-8.04272E-004	9	..........a	0	-327.74
	14816	29.634	-9.82079E-001	-3.87708E-004	0.00000E+000	-9.81600E-001	-8.04272E-004	9	..........a	0	-327.74
	14848	29.698	-9.85150E-001	-3.86517E-004	0.00000E+000	-9.84800E-001	-8.70939E-004	9	..........a	0	-327.74
	14880	29.762	-9.88575E-001	-3.87925E-004	0.00000E+000	-9.88000E-001	-8.29272E-004	9	..........a	0	-327.74
	14912	29.826	-9.91708E-001	-3.88598E-004	0.00000E+000	-9.91200E-001	-8.79272E-004	9	..........a	0	-327.74
	14944	29.89	-9.94850E-001	-3.88398E-004	0.00000E+000	-9.94400E-001	-8.79272E-004	9	..........a	0	-327.74
	14976	29.954	-9.98050E-001	-3.87913E-004	0.00000E+000	-9.97600E-001	-7.62605E-004	9	..........a	0	-327.74
	15000	30.002	-1.00025E+000	-3.87867E-004	0.00000E+000	-1.00000E+000	-8.54272E-004	9	..........a	0	-327.74