File: data/02-SI/Figures_S9_S11_RDE/15btmapaq-rde/1mkcl-15btmapaq-nitrogen-5000mvpers.DTA
EXPLAIN
TAG	CV
TITLE	LABEL	Cyclic Voltammetry	Test &Identifier
DATE	LABEL	1/31/2023	Date
TIME	LABEL	18:21:46	Time
NOTES	NOTES	1	&Notes...

PSTAT	PSTAT	REF3000-21108	Potentiostat
VINIT	POTEN	5.00000E-001	F	Initial &E (V)
VLIMIT1	POTEN	-1.00000E+000	F	Scan Limit &1 (V)
VLIMIT2	POTEN	5.00000E-001	F	Scan Limit &2 (V)
VFINAL	POTEN	5.00000E-001	F	Final &E (V)
SCANRATE	QUANT	4.99999E+003	&Scan Rate (mV/s)
STEPSIZE	QUANT	1.00000E+000	St&ep Size (mV)
CYCLES	IQUANT	1	C&ycles (#)
IMODE	SELECTOR	1	I/E Range &Mode
IRANGE	QUANT	1.00000E+001	&Max Current (mA)
AREA	QUANT	1.00000E+000	Electrode &Area (cm^2)
ELECTRODETYPE	SELECTOR	0	Electrode Type
STRIPPING	TOGGLE	F	Used for Stripping
POLARITY	TOGGLE	F	Signal Polarity
CONDIT	TWOPARAM	F	1.50000E+001	0.00000E+000	Conditionin&g	Time(s)	E(V)
DELAY	TWOPARAM	F	5.00000E+000	0.00000E+000	Init. De&lay	Time(s)	Stab.(mV/s)
EQDELAY	QUANT	0.00000E+000	Equil. &Time (s)
IRCOMP	SELECTOR	0	IRCom&p
PFCOR	QUANT	5.00000E+001	PF Corr. (ohm)
SAMPLINGMODE	SELECTOR	1	Sampling &Mode
EOC	QUANT	0	Open Circuit (V)
PSTATMODEL	IQUANT	5	Pstat Model
PSTATSECTION	LABEL	REF3000-21108	Pstat Section
PSTATSERIALNO	LABEL	21108	Pstat Serial Number
CTRLMODE	IQUANT	1	Control Mode
ELECTROMETER	IQUANT	0	RE=0 or CS=1
IESTAB	IQUANT	2	I/E Stability
CASPEED	IQUANT	4	Control Amp Speed
CONVENTION	IQUANT	1	Current Convention
ICHRANGE	IQUANT	2	Ich Range
ICHRANGEMODE	TOGGLE	F	Ich Auto Range
ICHOFFSETENABLE	TOGGLE	F	Ich Offset Enable
ICHOFFSET	QUANT	0	Ich Offset (V)
ICHFILTER	IQUANT	1	Ich Filter
VCHRANGE	IQUANT	2	Vch Range
VCHRANGEMODE	TOGGLE	F	Vch Auto Range
VCHOFFSETENABLE	TOGGLE	F	Vch Offset Enable
VCHOFFSET	QUANT	0	Vch Offset (V)
VCHFILTER	IQUANT	1	Vch Filter
ACHRANGE	IQUANT	2	Ach Range
ACHOFFSETENABLE	TOGGLE	F	Ach Offset Enable
ACHOFFSET	QUANT	0	Ach Offset (V)
ACHFILTER	IQUANT	0	Ach Filter
IERANGELOWERLIMIT	IQUANT	2	I/E Range Lower Limit
IERANGEMODE	TOGGLE	F	I/E AutoRange
IERANGE	IQUANT	10	I/E Range
POSFEEDENABLE	TOGGLE	F	Positive Feedback IR Comp
POSFEEDRESISTANCE	QUANT	0	Positive Feedback Resistance (ohm)
ACHSELECT	IQUANT	0	Ach Select
SENSECABLEID	IQUANT	14	Sense Cable ID
PWRCABLEID	IQUANT	7	Power Cable ID
DCCALDATE	LABEL	11/9/2022	DC Calibration Date
ACCALDATE	LABEL	11/9/2022	AC Calibration Date
THERMOSELECT	IQUANT	1	Thermo Select
FRAMEWORKVERSION	LABEL	7.8.2	Framework Version
INSTRUMENTVERSION	LABEL	4.40	Instrument Version
COMPLIANCEVOLTAGE	IQUANT	0	Compliance Voltage
CURVE1	TABLE
	Pt	T	Vf	Im	Vu	Sig	Ach	IERange	Over	Temp
	#	s	V vs. Ref.	A	V	V	V	#	bits	deg C
	0	0.0002	4.98741E-001	4.21574E-005	0.00000E+000	5.00000E-001	-1.12927E-003	10	..........a	-327.74
	7	0.0016	4.91791E-001	2.96250E-005	0.00000E+000	4.93000E-001	-1.12927E-003	10	..........a	-327.74
	14	0.003	4.84841E-001	2.21056E-005	0.00000E+000	4.86000E-001	-1.12927E-003	10	..........a	-327.74
	21	0.0044	4.77991E-001	1.75939E-005	0.00000E+000	4.79000E-001	-1.12927E-003	10	..........a	-327.74
	28	0.0058	4.70741E-001	1.20796E-005	0.00000E+000	4.72000E-001	-6.29272E-004	10	..........a	-327.74
	35	0.0072	4.63641E-001	1.00744E-005	0.00000E+000	4.65000E-001	-1.02927E-003	10	..........a	-327.74
	42	0.0086	4.56841E-001	6.06406E-006	0.00000E+000	4.58000E-001	-1.32927E-003	10	..........a	-327.74
	49	0.01	4.49691E-001	7.06665E-006	0.00000E+000	4.51000E-001	-1.12927E-003	10	..........a	-327.74
	56	0.0114	4.42691E-001	2.05368E-006	0.00000E+000	4.44000E-001	-1.12927E-003	10	..........a	-327.74
	63	0.0128	4.35891E-001	9.07184E-006	0.00000E+000	4.37000E-001	-1.02927E-003	10	..........a	-327.74
	70	0.0142	4.28591E-001	4.84920E-008	0.00000E+000	4.30000E-001	-1.12927E-003	10	..........a	-327.74
	77	0.0156	4.21841E-001	1.55238E-006	0.00000E+000	4.23000E-001	-1.12927E-003	10	..........a	-327.74
	84	0.017	4.14791E-001	-1.95670E-006	0.00000E+000	4.16000E-001	-1.12927E-003	10	..........a	-327.74
	91	0.0184	4.07791E-001	-1.95670E-006	0.00000E+000	4.09000E-001	-9.29272E-004	10	..........a	-327.74
	98	0.0198	4.00641E-001	-2.95929E-006	0.00000E+000	4.02000E-001	-6.29272E-004	10	..........a	-327.74
	105	0.0212	3.93791E-001	-2.45799E-006	0.00000E+000	3.95000E-001	-1.12927E-003	10	..........a	-327.74
	112	0.0226	3.86841E-001	-5.96707E-006	0.00000E+000	3.88000E-001	-1.12927E-003	10	..........a	-327.74
	119	0.024	3.79891E-001	-5.96707E-006	0.00000E+000	3.81000E-001	-1.12927E-003	10	..........a	-327.74
	126	0.0254	3.72691E-001	-6.96967E-006	0.00000E+000	3.74000E-001	-1.12927E-003	10	..........a	-327.74
	133	0.0268	3.65791E-001	-1.09800E-005	0.00000E+000	3.67000E-001	-1.12927E-003	10	..........a	-327.74
	140	0.0282	3.58891E-001	-5.96707E-006	0.00000E+000	3.60000E-001	-1.12927E-003	10	..........a	-327.74
	147	0.0296	3.51841E-001	-1.04787E-005	0.00000E+000	3.53000E-001	-1.12927E-003	10	..........a	-327.74
	154	0.031	3.44841E-001	-1.09800E-005	0.00000E+000	3.46000E-001	-1.12927E-003	10	..........a	-327.74
	161	0.0324	3.37691E-001	-9.97745E-006	0.00000E+000	3.39000E-001	-1.12927E-003	10	..........a	-327.74
	168	0.0338	3.30841E-001	-1.39878E-005	0.00000E+000	3.32000E-001	-1.12927E-003	10	..........a	-327.74
	175	0.0352	3.23841E-001	-1.39878E-005	0.00000E+000	3.25000E-001	-1.12927E-003	10	..........a	-327.74
	182	0.0366	3.16841E-001	-1.39878E-005	0.00000E+000	3.18000E-001	-1.12927E-003	10	..........a	-327.74
	189	0.038	3.09791E-001	-1.79982E-005	0.00000E+000	3.11000E-001	-1.12927E-003	10	..........a	-327.74
	196	0.0394	3.03091E-001	-1.39878E-005	0.00000E+000	3.04000E-001	-1.02927E-003	10	..........a	-327.74
	203	0.0408	2.95891E-001	-1.39878E-005	0.00000E+000	2.97000E-001	-5.29272E-004	10	..........a	-327.74
	210	0.0422	2.88791E-001	-1.54917E-005	0.00000E+000	2.90000E-001	-1.12927E-003	10	..........a	-327.74
	217	0.0436	2.81841E-001	-1.44891E-005	0.00000E+000	2.83000E-001	-1.12927E-003	10	..........a	-327.74
	224	0.045	2.74791E-001	-1.59930E-005	0.00000E+000	2.76000E-001	-9.29272E-004	10	..........a	-327.74
	231	0.0464	2.67641E-001	-1.69956E-005	0.00000E+000	2.69000E-001	-9.29272E-004	10	..........a	-327.74
	238	0.0478	2.60791E-001	-2.20086E-005	0.00000E+000	2.62000E-001	-1.12927E-003	10	..........a	-327.74
	245	0.0492	2.53791E-001	-1.84995E-005	0.00000E+000	2.55000E-001	-1.12927E-003	10	..........a	-327.74
	252	0.0506	2.46891E-001	-1.84995E-005	0.00000E+000	2.48000E-001	-9.29272E-004	10	..........a	-327.74
	259	0.052	2.39791E-001	-1.95021E-005	0.00000E+000	2.41000E-001	-1.12927E-003	10	..........a	-327.74
	266	0.0534	2.32891E-001	-2.20086E-005	0.00000E+000	2.34000E-001	-1.12927E-003	10	..........a	-327.74
	273	0.0548	2.25641E-001	-1.95021E-005	0.00000E+000	2.27000E-001	-1.12927E-003	10	..........a	-327.74
	280	0.0562	2.18991E-001	-2.20086E-005	0.00000E+000	2.20000E-001	-1.12927E-003	10	..........a	-327.74
	287	0.0576	2.11791E-001	-1.59930E-005	0.00000E+000	2.13000E-001	-9.29272E-004	10	..........a	-327.74
	294	0.059	2.04841E-001	-2.60190E-005	0.00000E+000	2.06000E-001	-1.12927E-003	10	..........a	-327.74
	301	0.0604	1.97891E-001	-2.35125E-005	0.00000E+000	1.99000E-001	-6.29272E-004	10	..........a	-327.74
	308	0.0618	1.90841E-001	-2.35125E-005	0.00000E+000	1.92000E-001	-9.29272E-004	10	..........a	-327.74
	315	0.0632	1.84041E-001	-2.30112E-005	0.00000E+000	1.85000E-001	-5.29272E-004	10	..........a	-327.74
	322	0.0646	1.76691E-001	-2.60190E-005	0.00000E+000	1.78000E-001	-1.32927E-003	10	..........a	-327.74
	329	0.066	1.69441E-001	-2.35125E-005	0.00000E+000	1.71000E-001	-1.12927E-003	10	..........a	-327.74
	336	0.0674	1.62991E-001	-2.65202E-005	0.00000E+000	1.64000E-001	-9.29272E-004	10	..........a	-327.74
	343	0.0688	1.55991E-001	-2.30112E-005	0.00000E+000	1.57000E-001	-6.29272E-004	10	..........a	-327.74
	350	0.0702	1.48691E-001	-3.00293E-005	0.00000E+000	1.50000E-001	-1.12927E-003	10	..........a	-327.74
	357	0.0716	1.41641E-001	-2.65202E-005	0.00000E+000	1.43000E-001	-1.12927E-003	10	..........a	-327.74
	364	0.073	1.34941E-001	-2.65202E-005	0.00000E+000	1.36000E-001	-6.29272E-004	10	..........a	-327.74
	371	0.0744	1.27991E-001	-2.75228E-005	0.00000E+000	1.29000E-001	-1.12927E-003	10	..........a	-327.74
	378	0.0758	1.20491E-001	-3.05306E-005	0.00000E+000	1.22000E-001	-1.12927E-003	10	..........a	-327.74
	385	0.0772	1.13891E-001	-3.00293E-005	0.00000E+000	1.15000E-001	-1.12927E-003	10	..........a	-327.74
	392	0.0786	1.06841E-001	-2.75228E-005	0.00000E+000	1.08000E-001	-1.12927E-003	10	..........a	-327.74
	399	0.08	9.98410E-002	-3.10319E-005	0.00000E+000	1.01000E-001	-1.12927E-003	10	..........a	-327.74
	406	0.0814	9.28910E-002	-3.00293E-005	0.00000E+000	9.40000E-002	-1.32927E-003	10	..........a	-327.74
	413	0.0828	8.57910E-002	-3.00293E-005	0.00000E+000	8.70000E-002	-1.12927E-003	10	..........a	-327.74
	420	0.0842	7.88410E-002	-3.40397E-005	0.00000E+000	8.00000E-002	-1.12927E-003	10	..........a	-327.74
	427	0.0856	7.19910E-002	-3.05306E-005	0.00000E+000	7.30000E-002	-1.12927E-003	10	..........a	-327.74
	434	0.087	6.49910E-002	-3.00293E-005	0.00000E+000	6.60000E-002	-1.32927E-003	10	..........a	-327.74
	441	0.0884	5.78410E-002	-3.05306E-005	0.00000E+000	5.90000E-002	-1.12927E-003	10	..........a	-327.74
	448	0.0898	5.09410E-002	-3.00293E-005	0.00000E+000	5.20000E-002	-1.12927E-003	10	..........a	-327.74
	455	0.0912	4.39910E-002	-3.00293E-005	0.00000E+000	4.50000E-002	-1.12927E-003	10	..........a	-327.74
	462	0.0926	3.69410E-002	-3.30371E-005	0.00000E+000	3.80000E-002	-1.12927E-003	10	..........a	-327.74
	469	0.094	2.99410E-002	-3.15332E-005	0.00000E+000	3.10000E-002	-1.12927E-003	10	..........a	-327.74
	476	0.0954	2.29410E-002	-3.80501E-005	0.00000E+000	2.40000E-002	-1.12927E-003	10	..........a	-327.74
	483	0.0968	1.59910E-002	-3.00293E-005	0.00000E+000	1.70000E-002	-1.32927E-003	10	..........a	-327.74
	490	0.0982	8.94100E-003	-3.30371E-005	0.00000E+000	9.99999E-003	-1.32927E-003	10	..........a	-327.74
	497	0.0996	2.04100E-003	-3.15332E-005	0.00000E+000	2.99999E-003	-1.12927E-003	10	..........a	-327.74
	504	0.101	-5.15900E-003	-3.50423E-005	0.00000E+000	-4.00001E-003	-1.12927E-003	10	..........a	-327.74
	511	0.1024	-1.23090E-002	-3.55436E-005	0.00000E+000	-1.10000E-002	-1.32927E-003	10	..........a	-327.74
	518	0.1038	-1.90090E-002	-3.35384E-005	0.00000E+000	-1.80000E-002	-1.32927E-003	10	..........a	-327.74
	525	0.1052	-2.61590E-002	-3.80501E-005	0.00000E+000	-2.50000E-002	-1.12927E-003	10	..........a	-327.74
	532	0.1066	-3.32090E-002	-3.80501E-005	0.00000E+000	-3.20000E-002	-1.12927E-003	10	..........a	-327.74
	539	0.108	-4.02090E-002	-3.50423E-005	0.00000E+000	-3.90000E-002	-1.12927E-003	10	..........a	-327.74
	546	0.1094	-4.70590E-002	-3.50423E-005	0.00000E+000	-4.60000E-002	-1.12927E-003	10	..........a	-327.74
	553	0.1108	-5.40590E-002	-3.35384E-005	0.00000E+000	-5.30000E-002	-1.32927E-003	10	..........a	-327.74
	560	0.1122	-6.11590E-002	-3.25358E-005	0.00000E+000	-6.00000E-002	-1.12927E-003	10	..........a	-327.74
	567	0.1136	-6.83090E-002	-3.80501E-005	0.00000E+000	-6.70000E-002	-6.29272E-004	10	..........a	-327.74
	574	0.115	-7.50590E-002	-3.80501E-005	0.00000E+000	-7.40000E-002	-6.29272E-004	10	..........a	-327.74
	581	0.1164	-8.21590E-002	-3.55436E-005	0.00000E+000	-8.10000E-002	-9.29272E-004	10	..........a	-327.74
	588	0.1178	-8.90090E-002	-3.55436E-005	0.00000E+000	-8.80000E-002	-1.32927E-003	10	..........a	-327.74
	595	0.1192	-9.62590E-002	-3.40397E-005	0.00000E+000	-9.50000E-002	-1.12927E-003	10	..........a	-327.74
	602	0.1206	-1.03259E-001	-4.30630E-005	0.00000E+000	-1.02000E-001	-1.12927E-003	10	..........a	-327.74
	609	0.122	-1.10009E-001	-3.65462E-005	0.00000E+000	-1.09000E-001	-1.12927E-003	10	..........a	-327.74
	616	0.1234	-1.17159E-001	-3.85514E-005	0.00000E+000	-1.16000E-001	-1.12927E-003	10	..........a	-327.74
	623	0.1248	-1.24209E-001	-3.30371E-005	0.00000E+000	-1.23000E-001	-1.12927E-003	10	..........a	-327.74
	630	0.1262	-1.31109E-001	-3.95540E-005	0.00000E+000	-1.30000E-001	-1.12927E-003	10	..........a	-327.74
	637	0.1276	-1.37959E-001	-3.85514E-005	0.00000E+000	-1.37000E-001	-1.12927E-003	10	..........a	-327.74
	644	0.129	-1.45109E-001	-3.80501E-005	0.00000E+000	-1.44000E-001	-1.12927E-003	10	..........a	-327.74
	651	0.1304	-1.51959E-001	-3.85514E-005	0.00000E+000	-1.51000E-001	-6.29272E-004	10	..........a	-327.74
	658	0.1318	-1.59259E-001	-4.25618E-005	0.00000E+000	-1.58000E-001	-9.29272E-004	10	..........a	-327.74
	665	0.1332	-1.65959E-001	-4.25618E-005	0.00000E+000	-1.65000E-001	-1.12927E-003	10	..........a	-327.74
	672	0.1346	-1.73109E-001	-4.30630E-005	0.00000E+000	-1.72000E-001	-1.12927E-003	10	..........a	-327.74
	679	0.136	-1.80059E-001	-4.05566E-005	0.00000E+000	-1.79000E-001	-1.32927E-003	10	..........a	-327.74
	686	0.1374	-1.87309E-001	-4.20605E-005	0.00000E+000	-1.86000E-001	-1.12927E-003	10	..........a	-327.74
	693	0.1388	-1.94109E-001	-4.60708E-005	0.00000E+000	-1.93000E-001	-1.12927E-003	10	..........a	-327.74
	700	0.1402	-2.01109E-001	-4.60708E-005	0.00000E+000	-2.00000E-001	-1.12927E-003	10	..........a	-327.74
	707	0.1416	-2.08109E-001	-4.35643E-005	0.00000E+000	-2.07000E-001	-1.12927E-003	10	..........a	-327.74
	714	0.143	-2.14809E-001	-4.60708E-005	0.00000E+000	-2.14000E-001	-1.12927E-003	10	..........a	-327.74
	721	0.1444	-2.22109E-001	-4.90786E-005	0.00000E+000	-2.21000E-001	-1.12927E-003	10	..........a	-327.74
	728	0.1458	-2.29109E-001	-4.65721E-005	0.00000E+000	-2.28000E-001	-1.12927E-003	10	..........a	-327.74
	735	0.1472	-2.36159E-001	-5.15851E-005	0.00000E+000	-2.35000E-001	-1.12927E-003	10	..........a	-327.74
	742	0.1486	-2.42959E-001	-5.40916E-005	0.00000E+000	-2.42000E-001	-6.29272E-004	10	..........a	-327.74
	749	0.15	-2.50009E-001	-5.20864E-005	0.00000E+000	-2.49000E-001	-1.32927E-003	10	..........a	-327.74
	756	0.1514	-2.57059E-001	-5.00812E-005	0.00000E+000	-2.56000E-001	-1.12927E-003	10	..........a	-327.74
	763	0.1528	-2.64409E-001	-5.05825E-005	0.00000E+000	-2.63000E-001	-1.12927E-003	10	..........a	-327.74
	770	0.1542	-2.70909E-001	-5.20864E-005	0.00000E+000	-2.70000E-001	-1.12927E-003	10	..........a	-327.74
	777	0.1556	-2.78059E-001	-5.50942E-005	0.00000E+000	-2.77000E-001	-1.32927E-003	10	..........a	-327.74
	784	0.157	-2.84959E-001	-5.45929E-005	0.00000E+000	-2.84000E-001	-1.12927E-003	10	..........a	-327.74
	791	0.1584	-2.92059E-001	-6.11097E-005	0.00000E+000	-2.91000E-001	-6.29272E-004	10	..........a	-327.74
	798	0.1598	-2.99109E-001	-6.21123E-005	0.00000E+000	-2.98000E-001	-1.12927E-003	10	..........a	-327.74
	805	0.1612	-3.05959E-001	-6.21123E-005	0.00000E+000	-3.05000E-001	-1.12927E-003	10	..........a	-327.74
	812	0.1626	-3.13109E-001	-6.26136E-005	0.00000E+000	-3.12000E-001	-1.12927E-003	10	..........a	-327.74
	819	0.164	-3.20009E-001	-6.71253E-005	0.00000E+000	-3.19000E-001	-9.29272E-004	10	..........a	-327.74
	826	0.1654	-3.26959E-001	-6.31149E-005	0.00000E+000	-3.26000E-001	-1.12927E-003	10	..........a	-327.74
	833	0.1668	-3.33859E-001	-6.61227E-005	0.00000E+000	-3.33000E-001	-1.12927E-003	10	..........a	-327.74
	840	0.1682	-3.41159E-001	-7.06344E-005	0.00000E+000	-3.40000E-001	-1.12927E-003	10	..........a	-327.74
	847	0.1696	-3.47909E-001	-7.11357E-005	0.00000E+000	-3.47000E-001	-1.12927E-003	10	..........a	-327.74
	854	0.171	-3.54909E-001	-7.16370E-005	0.00000E+000	-3.54000E-001	-1.12927E-003	10	..........a	-327.74
	861	0.1724	-3.61859E-001	-7.61487E-005	0.00000E+000	-3.61000E-001	-1.12927E-003	10	..........a	-327.74
	868	0.1738	-3.68959E-001	-7.81538E-005	0.00000E+000	-3.68000E-001	-1.12927E-003	10	..........a	-327.74
	875	0.1752	-3.76109E-001	-8.56733E-005	0.00000E+000	-3.75000E-001	-1.12927E-003	10	..........a	-327.74
	882	0.1766	-3.83159E-001	-8.66759E-005	0.00000E+000	-3.82000E-001	-1.12927E-003	10	..........a	-327.74
	889	0.178	-3.89909E-001	-9.11876E-005	0.00000E+000	-3.89000E-001	-1.12927E-003	10	..........a	-327.74
	896	0.1794	-3.97009E-001	-9.56992E-005	0.00000E+000	-3.96000E-001	-1.32927E-003	10	..........a	-327.74
	903	0.1808	-4.04009E-001	-1.02216E-004	0.00000E+000	-4.03000E-001	-6.29272E-004	10	..........a	-327.74
	910	0.1822	-4.10809E-001	-1.12743E-004	0.00000E+000	-4.10000E-001	-1.12927E-003	10	..........a	-327.74
	917	0.1836	-4.18009E-001	-1.20764E-004	0.00000E+000	-4.17000E-001	-9.29272E-004	10	..........a	-327.74
	924	0.185	-4.24909E-001	-1.34299E-004	0.00000E+000	-4.24000E-001	-1.32927E-003	10	..........a	-327.74
	931	0.1864	-4.31959E-001	-1.51845E-004	0.00000E+000	-4.31000E-001	-1.12927E-003	10	..........a	-327.74
	938	0.1878	-4.38859E-001	-1.67886E-004	0.00000E+000	-4.38000E-001	-1.12927E-003	10	..........a	-327.74
	945	0.1892	-4.45909E-001	-1.94956E-004	0.00000E+000	-4.45000E-001	-1.12927E-003	10	..........a	-327.74
	952	0.1906	-4.52959E-001	-2.14507E-004	0.00000E+000	-4.52000E-001	-1.12927E-003	10	..........a	-327.74
	959	0.192	-4.60159E-001	-2.39571E-004	0.00000E+000	-4.59000E-001	-9.29272E-004	10	..........a	-327.74
	966	0.1934	-4.67159E-001	-2.65138E-004	0.00000E+000	-4.66000E-001	-1.12927E-003	10	..........a	-327.74
	973	0.1948	-4.73959E-001	-2.90704E-004	0.00000E+000	-4.73000E-001	-1.12927E-003	10	..........a	-327.74
	980	0.1962	-4.80909E-001	-3.11257E-004	0.00000E+000	-4.80000E-001	-9.29272E-004	10	..........a	-327.74
	987	0.1976	-4.87659E-001	-3.34818E-004	0.00000E+000	-4.87000E-001	-1.12927E-003	10	..........a	-327.74
	994	0.199	-4.95009E-001	-3.58880E-004	0.00000E+000	-4.94000E-001	-1.12927E-003	10	..........a	-327.74
	1001	0.2004	-5.01959E-001	-3.86953E-004	0.00000E+000	-5.01000E-001	-1.12927E-003	10	..........a	-327.74
	1008	0.2018	-5.09009E-001	-4.11015E-004	0.00000E+000	-5.08000E-001	-1.12927E-003	10	..........a	-327.74
	1015	0.2032	-5.16009E-001	-4.48111E-004	0.00000E+000	-5.15000E-001	-1.32927E-003	10	..........a	-327.74
	1022	0.2046	-5.22809E-001	-4.83703E-004	0.00000E+000	-5.22000E-001	-6.29272E-004	10	..........a	-327.74
	1029	0.206	-5.30009E-001	-5.31326E-004	0.00000E+000	-5.29000E-001	-1.12927E-003	10	..........a	-327.74
	1036	0.2074	-5.37109E-001	-5.87973E-004	0.00000E+000	-5.36000E-001	-1.12927E-003	10	..........a	-327.74
	1043	0.2088	-5.43959E-001	-6.44118E-004	0.00000E+000	-5.43000E-001	-1.12927E-003	10	..........a	-327.74
	1050	0.2102	-5.50909E-001	-7.09287E-004	0.00000E+000	-5.50000E-001	-1.12927E-003	10	..........a	-327.74
	1057	0.2116	-5.57809E-001	-7.83980E-004	0.00000E+000	-5.57000E-001	-1.12927E-003	10	..........a	-327.74
	1064	0.213	-5.64959E-001	-8.50151E-004	0.00000E+000	-5.64000E-001	-1.12927E-003	10	..........a	-327.74
	1071	0.2144	-5.71959E-001	-9.24343E-004	0.00000E+000	-5.71000E-001	-9.29272E-004	10	..........a	-327.74
	1078	0.2158	-5.78809E-001	-9.84499E-004	0.00000E+000	-5.78000E-001	-1.12927E-003	10	..........a	-327.74
	1085	0.2172	-5.85909E-001	-1.03764E-003	0.00000E+000	-5.85000E-001	-1.12927E-003	10	..........a	-327.74
	1092	0.2186	-5.92759E-001	-1.08576E-003	0.00000E+000	-5.92000E-001	-9.29272E-004	10	..........a	-327.74
	1099	0.22	-5.99959E-001	-1.11133E-003	0.00000E+000	-5.99000E-001	-1.12927E-003	10	..........a	-327.74
	1106	0.2214	-6.06759E-001	-1.14090E-003	0.00000E+000	-6.06000E-001	-1.12927E-003	10	..........a	-327.74
	1113	0.2228	-6.13859E-001	-1.15293E-003	0.00000E+000	-6.13000E-001	-1.12927E-003	10	..........a	-327.74
	1120	0.2242	-6.20759E-001	-1.15394E-003	0.00000E+000	-6.20000E-001	-1.12927E-003	10	..........a	-327.74
	1127	0.2256	-6.27809E-001	-1.15444E-003	0.00000E+000	-6.27000E-001	-1.12927E-003	10	..........a	-327.74
	1134	0.227	-6.34809E-001	-1.14241E-003	0.00000E+000	-6.34000E-001	-1.12927E-003	10	..........a	-327.74
	1141	0.2284	-6.41759E-001	-1.12787E-003	0.00000E+000	-6.41000E-001	-1.12927E-003	10	..........a	-327.74
	1148	0.2298	-6.49009E-001	-1.10982E-003	0.00000E+000	-6.48000E-001	-1.12927E-003	10	..........a	-327.74
	1155	0.2312	-6.55859E-001	-1.09278E-003	0.00000E+000	-6.55000E-001	-6.29272E-004	10	..........a	-327.74
	1162	0.2326	-6.62759E-001	-1.06771E-003	0.00000E+000	-6.62000E-001	-1.12927E-003	10	..........a	-327.74
	1169	0.234	-6.69909E-001	-1.04666E-003	0.00000E+000	-6.69000E-001	-6.29272E-004	10	..........a	-327.74
	1176	0.2354	-6.76759E-001	-1.02510E-003	0.00000E+000	-6.76000E-001	-9.29272E-004	10	..........a	-327.74
	1183	0.2368	-6.83909E-001	-1.00455E-003	0.00000E+000	-6.83000E-001	-1.12927E-003	10	..........a	-327.74
	1190	0.2382	-6.90809E-001	-9.81491E-004	0.00000E+000	-6.90000E-001	-1.32927E-003	10	..........a	-327.74
	1197	0.2396	-6.97809E-001	-9.58431E-004	0.00000E+000	-6.97000E-001	-1.12927E-003	10	..........a	-327.74
	1204	0.241	-7.05009E-001	-9.41387E-004	0.00000E+000	-7.04000E-001	-1.12927E-003	10	..........a	-327.74
	1211	0.2424	-7.11959E-001	-9.21837E-004	0.00000E+000	-7.11000E-001	-1.12927E-003	10	..........a	-327.74
	1218	0.2438	-7.18759E-001	-9.02787E-004	0.00000E+000	-7.18000E-001	-5.29272E-004	10	..........a	-327.74
	1225	0.2452	-7.25959E-001	-8.92260E-004	0.00000E+000	-7.25000E-001	-1.12927E-003	10	..........a	-327.74
	1232	0.2466	-7.32709E-001	-8.72208E-004	0.00000E+000	-7.32000E-001	-1.12927E-003	10	..........a	-327.74
	1239	0.248	-7.39759E-001	-8.58172E-004	0.00000E+000	-7.39000E-001	-9.29272E-004	10	..........a	-327.74
	1246	0.2494	-7.46809E-001	-8.46141E-004	0.00000E+000	-7.46000E-001	-1.12927E-003	10	..........a	-327.74
	1253	0.2508	-7.53659E-001	-8.33107E-004	0.00000E+000	-7.53000E-001	-1.12927E-003	10	..........a	-327.74
	1260	0.2522	-7.61009E-001	-8.17066E-004	0.00000E+000	-7.60000E-001	-1.12927E-003	10	..........a	-327.74
	1267	0.2536	-7.67959E-001	-8.08544E-004	0.00000E+000	-7.67000E-001	-6.29272E-004	10	..........a	-327.74
	1274	0.255	-7.74759E-001	-7.92502E-004	0.00000E+000	-7.74000E-001	-1.12927E-003	10	..........a	-327.74
	1281	0.2564	-7.81859E-001	-7.84481E-004	0.00000E+000	-7.81000E-001	-1.12927E-003	10	..........a	-327.74
	1288	0.2578	-7.88809E-001	-7.75959E-004	0.00000E+000	-7.88000E-001	-1.12927E-003	10	..........a	-327.74
	1295	0.2592	-7.95609E-001	-7.59918E-004	0.00000E+000	-7.95000E-001	-9.29272E-004	10	..........a	-327.74
	1302	0.2606	-8.02659E-001	-7.51897E-004	0.00000E+000	-8.02000E-001	-1.32927E-003	10	..........a	-327.74
	1309	0.262	-8.09909E-001	-7.40367E-004	0.00000E+000	-8.09000E-001	-6.29272E-004	10	..........a	-327.74
	1316	0.2634	-8.16809E-001	-7.29840E-004	0.00000E+000	-8.16000E-001	-1.12927E-003	10	..........a	-327.74
	1323	0.2648	-8.23659E-001	-7.19814E-004	0.00000E+000	-8.23000E-001	-1.12927E-003	10	..........a	-327.74
	1330	0.2662	-8.30659E-001	-7.15804E-004	0.00000E+000	-8.30000E-001	-1.12927E-003	10	..........a	-327.74
	1337	0.2676	-8.37909E-001	-7.07783E-004	0.00000E+000	-8.37000E-001	-1.32927E-003	10	..........a	-327.74
	1344	0.269	-8.44859E-001	-6.94248E-004	0.00000E+000	-8.44000E-001	-1.12927E-003	10	..........a	-327.74
	1351	0.2704	-8.51959E-001	-6.91741E-004	0.00000E+000	-8.51000E-001	-1.12927E-003	10	..........a	-327.74
	1358	0.2718	-8.58759E-001	-6.80713E-004	0.00000E+000	-8.58000E-001	-1.12927E-003	10	..........a	-327.74
	1365	0.2732	-8.65759E-001	-6.75700E-004	0.00000E+000	-8.65000E-001	-1.12927E-003	10	..........a	-327.74
	1372	0.2746	-8.72759E-001	-6.67679E-004	0.00000E+000	-8.72000E-001	-9.29272E-004	10	..........a	-327.74
	1379	0.276	-8.79759E-001	-6.60160E-004	0.00000E+000	-8.79000E-001	-6.29272E-004	10	..........a	-327.74
	1386	0.2774	-8.86709E-001	-6.52640E-004	0.00000E+000	-8.86000E-001	-1.12927E-003	10	..........a	-327.74
	1393	0.2788	-8.93759E-001	-6.43617E-004	0.00000E+000	-8.93000E-001	-1.12927E-003	10	..........a	-327.74
	1400	0.2802	-9.00559E-001	-6.40609E-004	0.00000E+000	-9.00000E-001	-9.29272E-004	10	..........a	-327.74
	1407	0.2816	-9.07609E-001	-6.31586E-004	0.00000E+000	-9.07000E-001	-1.32927E-003	10	..........a	-327.74
	1414	0.283	-9.14759E-001	-6.28077E-004	0.00000E+000	-9.14000E-001	-1.12927E-003	10	..........a	-327.74
	1421	0.2844	-9.21759E-001	-6.19555E-004	0.00000E+000	-9.21000E-001	-1.12927E-003	10	..........a	-327.74
	1428	0.2858	-9.28909E-001	-6.15544E-004	0.00000E+000	-9.28000E-001	-1.32927E-003	10	..........a	-327.74
	1435	0.2872	-9.35709E-001	-6.08526E-004	0.00000E+000	-9.35000E-001	-1.12927E-003	10	..........a	-327.74
	1442	0.2886	-9.42659E-001	-6.04516E-004	0.00000E+000	-9.42000E-001	-1.12927E-003	10	..........a	-327.74
	1449	0.29	-9.49609E-001	-5.97999E-004	0.00000E+000	-9.49000E-001	-6.29272E-004	10	..........a	-327.74
	1456	0.2914	-9.56759E-001	-5.95492E-004	0.00000E+000	-9.56000E-001	-1.12927E-003	10	..........a	-327.74
	1463	0.2928	-9.63709E-001	-5.92986E-004	0.00000E+000	-9.63000E-001	-1.12927E-003	10	..........a	-327.74
	1470	0.2942	-9.70759E-001	-5.87472E-004	0.00000E+000	-9.70000E-001	-1.12927E-003	10	..........a	-327.74
	1477	0.2956	-9.77609E-001	-5.82459E-004	0.00000E+000	-9.77000E-001	-1.32927E-003	10	..........a	-327.74
	1484	0.297	-9.84609E-001	-5.77947E-004	0.00000E+000	-9.84000E-001	-9.29272E-004	10	..........a	-327.74
	1491	0.2984	-9.91759E-001	-5.76944E-004	0.00000E+000	-9.91000E-001	-1.32927E-003	10	..........a	-327.74
	1498	0.2998	-9.98559E-001	-5.71931E-004	0.00000E+000	-9.98000E-001	-1.12927E-003	10	..........a	-327.74
	1505	0.3012	-9.95609E-001	-5.23807E-004	0.00000E+000	-9.95000E-001	-1.12927E-003	10	..........a	-327.74
	1512	0.3026	-9.88709E-001	-4.87212E-004	0.00000E+000	-9.88000E-001	-1.12927E-003	10	..........a	-327.74
	1519	0.304	-9.81909E-001	-4.63150E-004	0.00000E+000	-9.81000E-001	-1.12927E-003	10	..........a	-327.74
	1526	0.3054	-9.74559E-001	-4.47108E-004	0.00000E+000	-9.74000E-001	-1.12927E-003	10	..........a	-327.74
	1533	0.3068	-9.67609E-001	-4.35077E-004	0.00000E+000	-9.67000E-001	-1.12927E-003	10	..........a	-327.74
	1540	0.3082	-9.60709E-001	-4.19537E-004	0.00000E+000	-9.60000E-001	-1.12927E-003	10	..........a	-327.74
	1547	0.3096	-9.53759E-001	-4.07005E-004	0.00000E+000	-9.53000E-001	-1.12927E-003	10	..........a	-327.74
	1554	0.311	-9.46709E-001	-3.98984E-004	0.00000E+000	-9.46000E-001	-1.12927E-003	10	..........a	-327.74
	1561	0.3124	-9.39659E-001	-3.90963E-004	0.00000E+000	-9.39000E-001	-9.29272E-004	10	..........a	-327.74
	1568	0.3138	-9.32709E-001	-3.82942E-004	0.00000E+000	-9.32000E-001	-1.12927E-003	10	..........a	-327.74
	1575	0.3152	-9.25559E-001	-3.73418E-004	0.00000E+000	-9.25000E-001	-9.29272E-004	10	..........a	-327.74
	1582	0.3166	-9.18859E-001	-3.68405E-004	0.00000E+000	-9.18000E-001	-1.12927E-003	10	..........a	-327.74
	1589	0.318	-9.11609E-001	-3.56875E-004	0.00000E+000	-9.11000E-001	-1.12927E-003	10	..........a	-327.74
	1596	0.3194	-9.04859E-001	-3.56374E-004	0.00000E+000	-9.04000E-001	-6.29272E-004	10	..........a	-327.74
	1603	0.3208	-8.97659E-001	-3.45846E-004	0.00000E+000	-8.97000E-001	-1.32927E-003	10	..........a	-327.74
	1610	0.3222	-8.90759E-001	-3.43841E-004	0.00000E+000	-8.90000E-001	-1.12927E-003	10	..........a	-327.74
	1617	0.3236	-8.83659E-001	-3.34818E-004	0.00000E+000	-8.83000E-001	-1.12927E-003	10	..........a	-327.74
	1624	0.325	-8.76759E-001	-3.34818E-004	0.00000E+000	-8.76000E-001	-1.12927E-003	10	..........a	-327.74
	1631	0.3264	-8.69759E-001	-3.25293E-004	0.00000E+000	-8.69000E-001	-1.32927E-003	10	..........a	-327.74
	1638	0.3278	-8.62809E-001	-3.20782E-004	0.00000E+000	-8.62000E-001	-1.32927E-003	10	..........a	-327.74
	1645	0.3292	-8.55609E-001	-3.18776E-004	0.00000E+000	-8.55000E-001	-1.12927E-003	10	..........a	-327.74
	1652	0.3306	-8.48909E-001	-3.12761E-004	0.00000E+000	-8.48000E-001	-1.32927E-003	10	..........a	-327.74
	1659	0.332	-8.41709E-001	-3.09252E-004	0.00000E+000	-8.41000E-001	-9.29272E-004	10	..........a	-327.74
	1666	0.3334	-8.34809E-001	-3.06244E-004	0.00000E+000	-8.34000E-001	-1.32927E-003	10	..........a	-327.74
	1673	0.3348	-8.27809E-001	-3.02735E-004	0.00000E+000	-8.27000E-001	-1.32927E-003	10	..........a	-327.74
	1680	0.3362	-8.20759E-001	-3.00228E-004	0.00000E+000	-8.20000E-001	-1.12927E-003	10	..........a	-327.74
	1687	0.3376	-8.13759E-001	-2.92208E-004	0.00000E+000	-8.13000E-001	-1.12927E-003	10	..........a	-327.74
	1694	0.339	-8.06809E-001	-2.88699E-004	0.00000E+000	-8.06000E-001	-1.12927E-003	10	..........a	-327.74
	1701	0.3404	-7.99909E-001	-2.87195E-004	0.00000E+000	-7.99000E-001	-9.29272E-004	10	..........a	-327.74
	1708	0.3418	-7.92809E-001	-2.82683E-004	0.00000E+000	-7.92000E-001	-1.12927E-003	10	..........a	-327.74
	1715	0.3432	-7.85909E-001	-2.76166E-004	0.00000E+000	-7.85000E-001	-6.29272E-004	10	..........a	-327.74
	1722	0.3446	-7.78709E-001	-2.74662E-004	0.00000E+000	-7.78000E-001	-1.12927E-003	10	..........a	-327.74
	1729	0.346	-7.71809E-001	-2.71153E-004	0.00000E+000	-7.71000E-001	-1.12927E-003	10	..........a	-327.74
	1736	0.3474	-7.64809E-001	-2.70652E-004	0.00000E+000	-7.64000E-001	-1.12927E-003	10	..........a	-327.74
	1743	0.3488	-7.57909E-001	-2.62631E-004	0.00000E+000	-7.57000E-001	-5.29272E-004	10	..........a	-327.74
	1750	0.3502	-7.50809E-001	-2.62631E-004	0.00000E+000	-7.50000E-001	-9.29272E-004	10	..........a	-327.74
	1757	0.3516	-7.43759E-001	-2.54610E-004	0.00000E+000	-7.43000E-001	-1.12927E-003	10	..........a	-327.74
	1764	0.353	-7.36959E-001	-2.52104E-004	0.00000E+000	-7.36000E-001	-1.12927E-003	10	..........a	-327.74
	1771	0.3544	-7.29909E-001	-2.46590E-004	0.00000E+000	-7.29000E-001	-1.12927E-003	10	..........a	-327.74
	1778	0.3558	-7.22809E-001	-2.46590E-004	0.00000E+000	-7.22000E-001	-1.12927E-003	10	..........a	-327.74
	1785	0.3572	-7.15709E-001	-2.38569E-004	0.00000E+000	-7.15000E-001	-1.12927E-003	10	..........a	-327.74
	1792	0.3586	-7.08859E-001	-2.32052E-004	0.00000E+000	-7.08000E-001	-1.32927E-003	10	..........a	-327.74
	1799	0.36	-7.01609E-001	-2.27039E-004	0.00000E+000	-7.01000E-001	-1.12927E-003	10	..........a	-327.74
	1806	0.3614	-6.94759E-001	-2.22527E-004	0.00000E+000	-6.94000E-001	-1.12927E-003	10	..........a	-327.74
	1813	0.3628	-6.88009E-001	-2.15509E-004	0.00000E+000	-6.87000E-001	-1.12927E-003	10	..........a	-327.74
	1820	0.3642	-6.80809E-001	-2.10496E-004	0.00000E+000	-6.80000E-001	-1.12927E-003	10	..........a	-327.74
	1827	0.3656	-6.73909E-001	-2.02475E-004	0.00000E+000	-6.73000E-001	-1.12927E-003	10	..........a	-327.74
	1834	0.367	-6.66709E-001	-1.94455E-004	0.00000E+000	-6.66000E-001	-9.29272E-004	10	..........a	-327.74
	1841	0.3684	-6.59809E-001	-1.88940E-004	0.00000E+000	-6.59000E-001	-1.12927E-003	10	..........a	-327.74
	1848	0.3698	-6.52809E-001	-1.78413E-004	0.00000E+000	-6.52000E-001	-1.12927E-003	10	..........a	-327.74
	1855	0.3712	-6.45759E-001	-1.66382E-004	0.00000E+000	-6.45000E-001	-1.12927E-003	10	..........a	-327.74
	1862	0.3726	-6.38809E-001	-1.55855E-004	0.00000E+000	-6.38000E-001	-1.12927E-003	10	..........a	-327.74
	1869	0.374	-6.31959E-001	-1.38811E-004	0.00000E+000	-6.31000E-001	-1.12927E-003	10	..........a	-327.74
	1876	0.3754	-6.24959E-001	-1.26278E-004	0.00000E+000	-6.24000E-001	-6.29272E-004	10	..........a	-327.74
	1883	0.3768	-6.17859E-001	-1.11239E-004	0.00000E+000	-6.17000E-001	-1.32927E-003	10	..........a	-327.74
	1890	0.3782	-6.11009E-001	-9.16889E-005	0.00000E+000	-6.10000E-001	-1.12927E-003	10	..........a	-327.74
	1897	0.3796	-6.03909E-001	-7.06344E-005	0.00000E+000	-6.03000E-001	-6.29272E-004	10	..........a	-327.74
	1904	0.381	-5.96909E-001	-4.75747E-005	0.00000E+000	-5.96000E-001	-1.32927E-003	10	..........a	-327.74
	1911	0.3824	-5.89809E-001	-2.75228E-005	0.00000E+000	-5.89000E-001	-1.12927E-003	10	..........a	-327.74
	1918	0.3838	-5.82859E-001	5.49789E-007	0.00000E+000	-5.82000E-001	-1.12927E-003	10	..........a	-327.74
	1925	0.3852	-5.75909E-001	2.21056E-005	0.00000E+000	-5.75000E-001	-1.12927E-003	10	..........a	-327.74
	1932	0.3866	-5.68859E-001	5.11808E-005	0.00000E+000	-5.68000E-001	-1.12927E-003	10	..........a	-327.74
	1939	0.388	-5.61859E-001	7.42404E-005	0.00000E+000	-5.61000E-001	-1.12927E-003	10	..........a	-327.74
	1946	0.3894	-5.54859E-001	1.03817E-004	0.00000E+000	-5.54000E-001	-1.12927E-003	10	..........a	-327.74
	1953	0.3908	-5.47759E-001	1.26375E-004	0.00000E+000	-5.47000E-001	-1.12927E-003	10	..........a	-327.74
	1960	0.3922	-5.40809E-001	1.50438E-004	0.00000E+000	-5.40000E-001	-6.29272E-004	10	..........a	-327.74
	1967	0.3936	-5.33909E-001	1.78510E-004	0.00000E+000	-5.33000E-001	-1.12927E-003	10	..........a	-327.74
	1974	0.395	-5.26859E-001	2.02572E-004	0.00000E+000	-5.26000E-001	-6.29272E-004	10	..........a	-327.74
	1981	0.3964	-5.20109E-001	2.28139E-004	0.00000E+000	-5.19000E-001	-1.12927E-003	10	..........a	-327.74
	1988	0.3978	-5.12959E-001	2.50697E-004	0.00000E+000	-5.12000E-001	-1.12927E-003	10	..........a	-327.74
	1995	0.3992	-5.05909E-001	2.80273E-004	0.00000E+000	-5.05000E-001	-1.12927E-003	10	..........a	-327.74
	2002	0.4006	-4.98809E-001	3.02832E-004	0.00000E+000	-4.98000E-001	-1.12927E-003	10	..........a	-327.74
	2009	0.402	-4.92059E-001	3.30904E-004	0.00000E+000	-4.91000E-001	-1.12927E-003	10	..........a	-327.74
	2016	0.4034	-4.84959E-001	3.54967E-004	0.00000E+000	-4.84000E-001	-1.12927E-003	10	..........a	-327.74
	2023	0.4048	-4.78009E-001	3.85045E-004	0.00000E+000	-4.77000E-001	-9.29272E-004	10	..........a	-327.74
	2030	0.4062	-4.70859E-001	4.03091E-004	0.00000E+000	-4.70000E-001	-1.12927E-003	10	..........a	-327.74
	2037	0.4076	-4.63959E-001	4.21138E-004	0.00000E+000	-4.63000E-001	-1.12927E-003	10	..........a	-327.74
	2044	0.409	-4.56909E-001	4.38182E-004	0.00000E+000	-4.56000E-001	-1.32927E-003	10	..........a	-327.74
	2051	0.4104	-4.50009E-001	4.55226E-004	0.00000E+000	-4.49000E-001	-1.12927E-003	10	..........a	-327.74
	2058	0.4118	-4.42809E-001	4.70766E-004	0.00000E+000	-4.42000E-001	-1.12927E-003	10	..........a	-327.74
	2065	0.4132	-4.35959E-001	4.75278E-004	0.00000E+000	-4.35000E-001	-1.12927E-003	10	..........a	-327.74
	2072	0.4146	-4.29009E-001	4.82296E-004	0.00000E+000	-4.28000E-001	-1.12927E-003	10	..........a	-327.74
	2079	0.416	-4.21909E-001	4.86307E-004	0.00000E+000	-4.21000E-001	-1.12927E-003	10	..........a	-327.74
	2086	0.4174	-4.14859E-001	4.86307E-004	0.00000E+000	-4.14000E-001	-1.12927E-003	10	..........a	-327.74
	2093	0.4188	-4.07909E-001	4.87309E-004	0.00000E+000	-4.07000E-001	-1.12927E-003	10	..........a	-327.74
	2100	0.4202	-4.01009E-001	4.82296E-004	0.00000E+000	-4.00000E-001	-1.12927E-003	10	..........a	-327.74
	2107	0.4216	-3.94009E-001	4.77283E-004	0.00000E+000	-3.93000E-001	-1.32927E-003	10	..........a	-327.74
	2114	0.423	-3.86959E-001	4.72772E-004	0.00000E+000	-3.86000E-001	-1.12927E-003	10	..........a	-327.74
	2121	0.4244	-3.79959E-001	4.66255E-004	0.00000E+000	-3.79000E-001	-1.12927E-003	10	..........a	-327.74
	2128	0.4258	-3.73059E-001	4.59237E-004	0.00000E+000	-3.72000E-001	-1.12927E-003	10	..........a	-327.74
	2135	0.4272	-3.65909E-001	4.54725E-004	0.00000E+000	-3.65000E-001	-9.29272E-004	10	..........a	-327.74
	2142	0.4286	-3.58909E-001	4.54725E-004	0.00000E+000	-3.58000E-001	-1.12927E-003	10	..........a	-327.74
	2149	0.43	-3.52009E-001	4.45200E-004	0.00000E+000	-3.51000E-001	-9.29272E-004	10	..........a	-327.74
	2156	0.4314	-3.45109E-001	4.44198E-004	0.00000E+000	-3.44000E-001	-1.12927E-003	10	..........a	-327.74
	2163	0.4328	-3.37909E-001	4.39185E-004	0.00000E+000	-3.37000E-001	-1.12927E-003	10	..........a	-327.74
	2170	0.4342	-3.31009E-001	4.32668E-004	0.00000E+000	-3.30000E-001	-1.32927E-003	10	..........a	-327.74
	2177	0.4356	-3.23909E-001	4.32167E-004	0.00000E+000	-3.23000E-001	-1.12927E-003	10	..........a	-327.74
	2184	0.437	-3.17159E-001	4.28657E-004	0.00000E+000	-3.16000E-001	-1.12927E-003	10	..........a	-327.74
	2191	0.4384	-3.10009E-001	4.24647E-004	0.00000E+000	-3.09000E-001	-1.12927E-003	10	..........a	-327.74
	2198	0.4398	-3.03059E-001	4.24146E-004	0.00000E+000	-3.02000E-001	-1.12927E-003	10	..........a	-327.74
	2205	0.4412	-2.95959E-001	4.18632E-004	0.00000E+000	-2.95000E-001	-1.12927E-003	10	..........a	-327.74
	2212	0.4426	-2.89159E-001	4.21138E-004	0.00000E+000	-2.88000E-001	-1.12927E-003	10	..........a	-327.74
	2219	0.444	-2.81909E-001	4.16626E-004	0.00000E+000	-2.81000E-001	-1.12927E-003	10	..........a	-327.74
	2226	0.4454	-2.75059E-001	4.12616E-004	0.00000E+000	-2.74000E-001	-1.12927E-003	10	..........a	-327.74
	2233	0.4468	-2.68359E-001	4.10611E-004	0.00000E+000	-2.67000E-001	-6.29272E-004	10	..........a	-327.74
	2240	0.4482	-2.61109E-001	4.09608E-004	0.00000E+000	-2.60000E-001	-1.12927E-003	10	..........a	-327.74
	2247	0.4496	-2.54159E-001	4.04094E-004	0.00000E+000	-2.53000E-001	-1.12927E-003	10	..........a	-327.74
	2254	0.451	-2.47059E-001	4.03091E-004	0.00000E+000	-2.46000E-001	-1.12927E-003	10	..........a	-327.74
	2261	0.4524	-2.40159E-001	4.01086E-004	0.00000E+000	-2.39000E-001	-6.29272E-004	10	..........a	-327.74
	2268	0.4538	-2.32959E-001	3.97076E-004	0.00000E+000	-2.32000E-001	-1.12927E-003	10	..........a	-327.74
	2275	0.4552	-2.26109E-001	3.90559E-004	0.00000E+000	-2.25000E-001	-1.12927E-003	10	..........a	-327.74
	2282	0.4566	-2.19109E-001	3.89055E-004	0.00000E+000	-2.18000E-001	-1.12927E-003	10	..........a	-327.74
	2289	0.458	-2.12309E-001	3.85045E-004	0.00000E+000	-2.11000E-001	-1.12927E-003	10	..........a	-327.74
	2296	0.4594	-2.05059E-001	3.81536E-004	0.00000E+000	-2.04000E-001	-1.12927E-003	10	..........a	-327.74
	2303	0.4608	-1.98059E-001	3.77525E-004	0.00000E+000	-1.97000E-001	-1.12927E-003	10	..........a	-327.74
	2310	0.4622	-1.91009E-001	3.73013E-004	0.00000E+000	-1.90000E-001	-1.12927E-003	10	..........a	-327.74
	2317	0.4636	-1.84159E-001	3.65995E-004	0.00000E+000	-1.83000E-001	-1.12927E-003	10	..........a	-327.74
	2324	0.465	-1.76909E-001	3.62988E-004	0.00000E+000	-1.76000E-001	-1.12927E-003	10	..........a	-327.74
	2331	0.4664	-1.70109E-001	3.57473E-004	0.00000E+000	-1.69000E-001	-6.29272E-004	10	..........a	-327.74
	2338	0.4678	-1.63059E-001	3.53964E-004	0.00000E+000	-1.62000E-001	-1.12927E-003	10	..........a	-327.74
	2345	0.4692	-1.56159E-001	3.46946E-004	0.00000E+000	-1.55000E-001	-1.12927E-003	10	..........a	-327.74
	2352	0.4706	-1.49059E-001	3.42936E-004	0.00000E+000	-1.48000E-001	-9.29272E-004	10	..........a	-327.74
	2359	0.472	-1.42059E-001	3.38925E-004	0.00000E+000	-1.41000E-001	-1.12927E-003	10	..........a	-327.74
	2366	0.4734	-1.35009E-001	3.33411E-004	0.00000E+000	-1.34000E-001	-9.29272E-004	10	..........a	-327.74
	2373	0.4748	-1.27909E-001	3.30904E-004	0.00000E+000	-1.27000E-001	-1.12927E-003	10	..........a	-327.74
	2380	0.4762	-1.20959E-001	3.26894E-004	0.00000E+000	-1.20000E-001	-1.12927E-003	10	..........a	-327.74
	2387	0.4776	-1.14059E-001	3.21881E-004	0.00000E+000	-1.13000E-001	-1.12927E-003	10	..........a	-327.74
	2394	0.479	-1.06959E-001	3.18873E-004	0.00000E+000	-1.06000E-001	-1.12927E-003	10	..........a	-327.74
	2401	0.4804	-1.00059E-001	3.13359E-004	0.00000E+000	-9.90000E-002	-1.12927E-003	10	..........a	-327.74
	2408	0.4818	-9.31090E-002	3.10853E-004	0.00000E+000	-9.20000E-002	-1.12927E-003	10	..........a	-327.74
	2415	0.4832	-8.59590E-002	3.06842E-004	0.00000E+000	-8.50000E-002	-1.12927E-003	10	..........a	-327.74
	2422	0.4846	-7.90090E-002	3.01829E-004	0.00000E+000	-7.80000E-002	-1.12927E-003	10	..........a	-327.74
	2429	0.486	-7.20590E-002	2.97318E-004	0.00000E+000	-7.10000E-002	-6.29272E-004	10	..........a	-327.74
	2436	0.4874	-6.52090E-002	2.93307E-004	0.00000E+000	-6.40000E-002	-1.12927E-003	10	..........a	-327.74
	2443	0.4888	-5.80090E-002	2.90801E-004	0.00000E+000	-5.70000E-002	-1.12927E-003	10	..........a	-327.74
	2450	0.4902	-5.11090E-002	2.85286E-004	0.00000E+000	-5.00000E-002	-1.12927E-003	10	..........a	-327.74
	2457	0.4916	-4.40090E-002	2.82780E-004	0.00000E+000	-4.30000E-002	-1.02927E-003	10	..........a	-327.74
	2464	0.493	-3.70590E-002	2.82780E-004	0.00000E+000	-3.60000E-002	-1.12927E-003	10	..........a	-327.74
	2471	0.4944	-3.01590E-002	2.81276E-004	0.00000E+000	-2.90000E-002	-1.12927E-003	10	..........a	-327.74
	2478	0.4958	-2.32590E-002	2.77767E-004	0.00000E+000	-2.20000E-002	-1.12927E-003	10	..........a	-327.74
	2485	0.4972	-1.63090E-002	2.79772E-004	0.00000E+000	-1.50000E-002	-1.12927E-003	10	..........a	-327.74
	2492	0.4986	-9.10900E-003	2.73757E-004	0.00000E+000	-8.00000E-003	-1.12927E-003	10	..........a	-327.74
	2499	0.5	-2.00900E-003	2.74759E-004	0.00000E+000	-1.00000E-003	-9.29272E-004	10	..........a	-327.74
	2506	0.5014	4.69100E-003	2.69245E-004	0.00000E+000	5.99998E-003	-1.32927E-003	10	..........a	-327.74
	2513	0.5028	1.16910E-002	2.72253E-004	0.00000E+000	1.30000E-002	-1.12927E-003	10	..........a	-327.74
	2520	0.5042	1.88410E-002	2.68744E-004	0.00000E+000	2.00000E-002	-1.12927E-003	10	..........a	-327.74
	2527	0.5056	2.59910E-002	2.66738E-004	0.00000E+000	2.70000E-002	-1.12927E-003	10	..........a	-327.74
	2534	0.507	3.29910E-002	2.66738E-004	0.00000E+000	3.40000E-002	-6.29272E-004	10	..........a	-327.74
	2541	0.5084	3.99410E-002	2.62728E-004	0.00000E+000	4.10000E-002	-9.29272E-004	10	..........a	-327.74
	2548	0.5098	4.70410E-002	2.66738E-004	0.00000E+000	4.80000E-002	-1.12927E-003	10	..........a	-327.74
	2555	0.5112	5.38910E-002	2.65736E-004	0.00000E+000	5.50000E-002	-1.12927E-003	10	..........a	-327.74
	2562	0.5126	6.09410E-002	2.62728E-004	0.00000E+000	6.20000E-002	-1.12927E-003	10	..........a	-327.74
	2569	0.514	6.76910E-002	2.62728E-004	0.00000E+000	6.90000E-002	-6.29272E-004	10	..........a	-327.74
	2576	0.5154	7.49910E-002	2.66237E-004	0.00000E+000	7.60000E-002	-1.02927E-003	10	..........a	-327.74
	2583	0.5168	8.18410E-002	2.65736E-004	0.00000E+000	8.30000E-002	-1.32927E-003	10	..........a	-327.74
	2590	0.5182	8.87910E-002	2.66738E-004	0.00000E+000	9.00000E-002	-1.12927E-003	10	..........a	-327.74
	2597	0.5196	9.59910E-002	2.65736E-004	0.00000E+000	9.70000E-002	-1.02927E-003	10	..........a	-327.74
	2604	0.521	1.02841E-001	2.67240E-004	0.00000E+000	1.04000E-001	-1.12927E-003	10	..........a	-327.74
	2611	0.5224	1.09841E-001	2.65736E-004	0.00000E+000	1.11000E-001	-1.12927E-003	10	..........a	-327.74
	2618	0.5238	1.16841E-001	2.65235E-004	0.00000E+000	1.18000E-001	-1.12927E-003	10	..........a	-327.74
	2625	0.5252	1.23991E-001	2.70749E-004	0.00000E+000	1.25000E-001	-1.12927E-003	10	..........a	-327.74
	2632	0.5266	1.30891E-001	2.70248E-004	0.00000E+000	1.32000E-001	-1.12927E-003	10	..........a	-327.74
	2639	0.528	1.37741E-001	2.66738E-004	0.00000E+000	1.39000E-001	-1.12927E-003	10	..........a	-327.74
	2646	0.5294	1.44991E-001	2.72253E-004	0.00000E+000	1.46000E-001	-6.29272E-004	10	..........a	-327.74
	2653	0.5308	1.51841E-001	2.73255E-004	0.00000E+000	1.53000E-001	-1.12927E-003	10	..........a	-327.74
	2660	0.5322	1.58741E-001	2.70248E-004	0.00000E+000	1.60000E-001	-1.12927E-003	10	..........a	-327.74
	2667	0.5336	1.65941E-001	2.74759E-004	0.00000E+000	1.67000E-001	-1.12927E-003	10	..........a	-327.74
	2674	0.535	1.72791E-001	2.74759E-004	0.00000E+000	1.74000E-001	-1.12927E-003	10	..........a	-327.74
	2681	0.5364	1.79941E-001	2.74759E-004	0.00000E+000	1.81000E-001	-1.12927E-003	10	..........a	-327.74
	2688	0.5378	1.86791E-001	2.78268E-004	0.00000E+000	1.88000E-001	-1.12927E-003	10	..........a	-327.74
	2695	0.5392	1.93591E-001	2.74759E-004	0.00000E+000	1.95000E-001	-1.12927E-003	10	..........a	-327.74
	2702	0.5406	2.00941E-001	2.74759E-004	0.00000E+000	2.02000E-001	-1.12927E-003	10	..........a	-327.74
	2709	0.542	2.07791E-001	2.78268E-004	0.00000E+000	2.09000E-001	-1.12927E-003	10	..........a	-327.74
	2716	0.5434	2.14991E-001	2.81276E-004	0.00000E+000	2.16000E-001	-6.29272E-004	10	..........a	-327.74
	2723	0.5448	2.21891E-001	2.77266E-004	0.00000E+000	2.23000E-001	-1.12927E-003	10	..........a	-327.74
	2730	0.5462	2.28841E-001	2.77767E-004	0.00000E+000	2.30000E-001	-6.29272E-004	10	..........a	-327.74
	2737	0.5476	2.35841E-001	2.77266E-004	0.00000E+000	2.37000E-001	-6.29272E-004	10	..........a	-327.74
	2744	0.549	2.42841E-001	2.73255E-004	0.00000E+000	2.44000E-001	-1.12927E-003	10	..........a	-327.74
	2751	0.5504	2.49941E-001	2.70749E-004	0.00000E+000	2.51000E-001	-1.12927E-003	10	..........a	-327.74
	2758	0.5518	2.56691E-001	2.69245E-004	0.00000E+000	2.58000E-001	-1.12927E-003	10	..........a	-327.74
	2765	0.5532	2.63891E-001	2.64733E-004	0.00000E+000	2.65000E-001	-1.22927E-003	10	..........a	-327.74
	2772	0.5546	2.70741E-001	2.64232E-004	0.00000E+000	2.72000E-001	-1.12927E-003	10	..........a	-327.74
	2779	0.556	2.77741E-001	2.62728E-004	0.00000E+000	2.79000E-001	-9.29272E-004	10	..........a	-327.74
	2786	0.5574	2.84791E-001	2.58216E-004	0.00000E+000	2.86000E-001	-9.29272E-004	10	..........a	-327.74
	2793	0.5588	2.91741E-001	2.52702E-004	0.00000E+000	2.93000E-001	-1.32927E-003	10	..........a	-327.74
	2800	0.5602	2.98791E-001	2.50697E-004	0.00000E+000	3.00000E-001	-1.32927E-003	10	..........a	-327.74
	2807	0.5616	3.05941E-001	2.50196E-004	0.00000E+000	3.07000E-001	-6.29272E-004	10	..........a	-327.74
	2814	0.563	3.12691E-001	2.45684E-004	0.00000E+000	3.14000E-001	-1.12927E-003	10	..........a	-327.74
	2821	0.5644	3.19841E-001	2.45684E-004	0.00000E+000	3.21000E-001	-1.12927E-003	10	..........a	-327.74
	2828	0.5658	3.26891E-001	2.41674E-004	0.00000E+000	3.28000E-001	-1.12927E-003	10	..........a	-327.74
	2835	0.5672	3.33291E-001	2.38165E-004	0.00000E+000	3.35000E-001	-1.12927E-003	10	..........a	-327.74
	2842	0.5686	3.40691E-001	2.30645E-004	0.00000E+000	3.42000E-001	-1.12927E-003	10	..........a	-327.74
	2849	0.57	3.47841E-001	2.34655E-004	0.00000E+000	3.49000E-001	-1.32927E-003	10	..........a	-327.74
	2856	0.5714	3.54841E-001	2.26635E-004	0.00000E+000	3.56000E-001	-1.12927E-003	10	..........a	-327.74
	2863	0.5728	3.61741E-001	2.26635E-004	0.00000E+000	3.63000E-001	-1.12927E-003	10	..........a	-327.74
	2870	0.5742	3.68641E-001	2.22624E-004	0.00000E+000	3.70000E-001	-1.12927E-003	10	..........a	-327.74
	2877	0.5756	3.75641E-001	2.25131E-004	0.00000E+000	3.77000E-001	-1.12927E-003	10	..........a	-327.74
	2884	0.577	3.82791E-001	2.25632E-004	0.00000E+000	3.84000E-001	-1.32927E-003	10	..........a	-327.74
	2891	0.5784	3.89591E-001	2.18614E-004	0.00000E+000	3.91000E-001	-1.12927E-003	10	..........a	-327.74
	2898	0.5798	3.96791E-001	2.18614E-004	0.00000E+000	3.98000E-001	-6.29272E-004	10	..........a	-327.74
	2905	0.5812	4.03641E-001	2.17110E-004	0.00000E+000	4.05000E-001	-1.12927E-003	10	..........a	-327.74
	2912	0.5826	4.10691E-001	2.17110E-004	0.00000E+000	4.12000E-001	-1.32927E-003	10	..........a	-327.74
	2919	0.584	4.17691E-001	2.12598E-004	0.00000E+000	4.19000E-001	-1.12927E-003	10	..........a	-327.74
	2926	0.5854	4.24591E-001	2.10593E-004	0.00000E+000	4.26000E-001	-1.12927E-003	10	..........a	-327.74
	2933	0.5868	4.31791E-001	2.10593E-004	0.00000E+000	4.33000E-001	-1.12927E-003	10	..........a	-327.74
	2940	0.5882	4.38841E-001	2.09591E-004	0.00000E+000	4.40000E-001	-1.12927E-003	10	..........a	-327.74
	2947	0.5896	4.45691E-001	2.10092E-004	0.00000E+000	4.47000E-001	-1.12927E-003	10	..........a	-327.74
	2954	0.591	4.52491E-001	2.04578E-004	0.00000E+000	4.54000E-001	-1.12927E-003	10	..........a	-327.74
	2961	0.5924	4.59891E-001	2.05580E-004	0.00000E+000	4.61000E-001	-1.12927E-003	10	..........a	-327.74
	2968	0.5938	4.66791E-001	2.01570E-004	0.00000E+000	4.68000E-001	-1.12927E-003	10	..........a	-327.74
	2975	0.5952	4.73641E-001	2.02572E-004	0.00000E+000	4.75000E-001	-1.12927E-003	10	..........a	-327.74
	2982	0.5966	4.80741E-001	2.04578E-004	0.00000E+000	4.82000E-001	-1.12927E-003	10	..........a	-327.74
	2989	0.598	4.87691E-001	2.01570E-004	0.00000E+000	4.89000E-001	-1.12927E-003	10	..........a	-327.74
	2996	0.5994	4.94841E-001	2.01570E-004	0.00000E+000	4.96000E-001	-9.29272E-004	10	..........a	-327.74
	3000	0.6002	4.98591E-001	1.98562E-004	0.00000E+000	5.00000E-001	-1.12927E-003	10	..........a	-327.74
CURVE2	TABLE
	Pt	T	Vf	Im	Vu	Sig	Ach	IERange	Over	Temp
	#	s	V vs. Ref.	A	V	V	V	#	bits	deg C
	3001	0.6004	4.98741E-001	1.93048E-004	0.00000E+000	5.00000E-001	-9.29272E-004	10	..........a	-327.74