File: data/02-SI/Figures_S9_S11_RDE/14btmapaq-rde/1mkcl-5mmolar14btmapaq-nitrogen-50mvpers.DTA
EXPLAIN
TAG	CV
TITLE	LABEL	Cyclic Voltammetry	Test &Identifier
DATE	LABEL	1/31/2023	Date
TIME	LABEL	13:58:39	Time
NOTES	NOTES	1	&Notes...

PSTAT	PSTAT	REF3000-21108	Potentiostat
VINIT	POTEN	5.00000E-001	F	Initial &E (V)
VLIMIT1	POTEN	-1.00000E+000	F	Scan Limit &1 (V)
VLIMIT2	POTEN	5.00000E-001	F	Scan Limit &2 (V)
VFINAL	POTEN	5.00000E-001	F	Final &E (V)
SCANRATE	QUANT	4.99999E+001	&Scan Rate (mV/s)
STEPSIZE	QUANT	1.00000E+000	St&ep Size (mV)
CYCLES	IQUANT	1	C&ycles (#)
IMODE	SELECTOR	1	I/E Range &Mode
IRANGE	QUANT	1.00000E+001	&Max Current (mA)
AREA	QUANT	1.00000E+000	Electrode &Area (cm^2)
ELECTRODETYPE	SELECTOR	0	Electrode Type
STRIPPING	TOGGLE	F	Used for Stripping
POLARITY	TOGGLE	F	Signal Polarity
CONDIT	TWOPARAM	F	1.50000E+001	0.00000E+000	Conditionin&g	Time(s)	E(V)
DELAY	TWOPARAM	F	5.00000E+000	0.00000E+000	Init. De&lay	Time(s)	Stab.(mV/s)
EQDELAY	QUANT	0.00000E+000	Equil. &Time (s)
IRCOMP	SELECTOR	0	IRCom&p
PFCOR	QUANT	5.00000E+001	PF Corr. (ohm)
SAMPLINGMODE	SELECTOR	1	Sampling &Mode
EOC	QUANT	0	Open Circuit (V)
PSTATMODEL	IQUANT	5	Pstat Model
PSTATSECTION	LABEL	REF3000-21108	Pstat Section
PSTATSERIALNO	LABEL	21108	Pstat Serial Number
CTRLMODE	IQUANT	1	Control Mode
ELECTROMETER	IQUANT	0	RE=0 or CS=1
IESTAB	IQUANT	2	I/E Stability
CASPEED	IQUANT	4	Control Amp Speed
CONVENTION	IQUANT	1	Current Convention
ICHRANGE	IQUANT	2	Ich Range
ICHRANGEMODE	TOGGLE	F	Ich Auto Range
ICHOFFSETENABLE	TOGGLE	F	Ich Offset Enable
ICHOFFSET	QUANT	0	Ich Offset (V)
ICHFILTER	IQUANT	2	Ich Filter
VCHRANGE	IQUANT	2	Vch Range
VCHRANGEMODE	TOGGLE	F	Vch Auto Range
VCHOFFSETENABLE	TOGGLE	F	Vch Offset Enable
VCHOFFSET	QUANT	0	Vch Offset (V)
VCHFILTER	IQUANT	2	Vch Filter
ACHRANGE	IQUANT	2	Ach Range
ACHOFFSETENABLE	TOGGLE	F	Ach Offset Enable
ACHOFFSET	QUANT	0	Ach Offset (V)
ACHFILTER	IQUANT	0	Ach Filter
IERANGELOWERLIMIT	IQUANT	2	I/E Range Lower Limit
IERANGEMODE	TOGGLE	F	I/E AutoRange
IERANGE	IQUANT	10	I/E Range
POSFEEDENABLE	TOGGLE	F	Positive Feedback IR Comp
POSFEEDRESISTANCE	QUANT	0	Positive Feedback Resistance (ohm)
ACHSELECT	IQUANT	0	Ach Select
SENSECABLEID	IQUANT	14	Sense Cable ID
PWRCABLEID	IQUANT	7	Power Cable ID
DCCALDATE	LABEL	11/9/2022	DC Calibration Date
ACCALDATE	LABEL	11/9/2022	AC Calibration Date
THERMOSELECT	IQUANT	1	Thermo Select
FRAMEWORKVERSION	LABEL	7.8.2	Framework Version
INSTRUMENTVERSION	LABEL	4.40	Instrument Version
COMPLIANCEVOLTAGE	IQUANT	0	Compliance Voltage
CURVE1	TABLE
	Pt	T	Vf	Im	Vu	Sig	Ach	IERange	Over	Temp
	#	s	V vs. Ref.	A	V	V	V	#	bits	deg C
	0	0.02	4.98646E-001	4.70816E-006	0.00000E+000	5.00000E-001	-1.19011E-003	10	..........a	-327.74
	7	0.16	4.91641E-001	2.05546E-006	0.00000E+000	4.93000E-001	-1.22677E-003	10	..........a	-327.74
	14	0.3	4.84690E-001	1.69202E-006	0.00000E+000	4.86000E-001	-1.18261E-003	10	..........a	-327.74
	21	0.44	4.77719E-001	1.23667E-006	0.00000E+000	4.79000E-001	-1.21427E-003	10	..........a	-327.74
	28	0.58	4.70623E-001	9.94381E-007	0.00000E+000	4.72000E-001	-1.22094E-003	10	..........a	-327.74
	35	0.72	4.63664E-001	7.81330E-007	0.00000E+000	4.65000E-001	-1.19844E-003	10	..........a	-327.74
	42	0.86	4.56660E-001	6.39296E-007	0.00000E+000	4.58000E-001	-1.25427E-003	10	..........a	-327.74
	49	1	4.49647E-001	7.18668E-007	0.00000E+000	4.51000E-001	-1.25011E-003	10	..........a	-327.74
	56	1.14	4.42669E-001	5.39036E-007	0.00000E+000	4.44000E-001	-1.24594E-003	10	..........a	-327.74
	63	1.28	4.35634E-001	5.39036E-007	0.00000E+000	4.37000E-001	-1.24761E-003	10	..........a	-327.74
	70	1.42	4.28679E-001	5.22326E-007	0.00000E+000	4.30000E-001	-1.23177E-003	10	..........a	-327.74
	77	1.56	4.21654E-001	6.18408E-007	0.00000E+000	4.23000E-001	-1.26761E-003	10	..........a	-327.74
	84	1.7	4.14629E-001	2.88388E-007	0.00000E+000	4.16000E-001	-1.27344E-003	10	..........a	-327.74
	91	1.84	4.07679E-001	5.09794E-007	0.00000E+000	4.09000E-001	-1.18427E-003	10	..........a	-327.74
	98	1.98	4.00674E-001	5.84988E-007	0.00000E+000	4.02000E-001	-1.24594E-003	10	..........a	-327.74
	105	2.12	3.93665E-001	3.42695E-007	0.00000E+000	3.95000E-001	-1.20927E-003	10	..........a	-327.74
	112	2.26	3.86701E-001	3.55227E-007	0.00000E+000	3.88000E-001	-1.23177E-003	10	..........a	-327.74
	119	2.4	3.79689E-001	4.55487E-007	0.00000E+000	3.81000E-001	-1.21011E-003	10	..........a	-327.74
	126	2.54	3.72705E-001	4.55487E-007	0.00000E+000	3.74000E-001	-1.23177E-003	10	..........a	-327.74
	133	2.68	3.65671E-001	4.68019E-007	0.00000E+000	3.67000E-001	-1.26344E-003	10	..........a	-327.74
	140	2.82	3.58663E-001	4.30422E-007	0.00000E+000	3.60000E-001	-1.22844E-003	10	..........a	-327.74
	147	2.96	3.51678E-001	5.34859E-007	0.00000E+000	3.53000E-001	-1.22927E-003	10	..........a	-327.74
	154	3.1	3.44676E-001	6.26763E-007	0.00000E+000	3.46000E-001	-1.23177E-003	10	..........a	-327.74
	161	3.24	3.37673E-001	3.30162E-007	0.00000E+000	3.39000E-001	-1.22511E-003	10	..........a	-327.74
	168	3.38	3.30738E-001	5.13971E-007	0.00000E+000	3.32000E-001	-1.23594E-003	10	..........a	-327.74
	175	3.52	3.23687E-001	5.51569E-007	0.00000E+000	3.25000E-001	-1.21677E-003	10	..........a	-327.74
	182	3.66	3.16685E-001	7.77152E-007	0.00000E+000	3.18000E-001	-1.24844E-003	10	..........a	-327.74
	189	3.8	3.09749E-001	3.80292E-007	0.00000E+000	3.11000E-001	-1.20094E-003	10	..........a	-327.74
	196	3.94	3.02703E-001	5.64101E-007	0.00000E+000	3.04000E-001	-1.26427E-003	10	..........a	-327.74
	203	4.08	2.95687E-001	5.64101E-007	0.00000E+000	2.97000E-001	-1.26761E-003	10	..........a	-327.74
	210	4.22	2.88695E-001	3.76115E-007	0.00000E+000	2.90000E-001	-1.25261E-003	10	..........a	-327.74
	217	4.36	2.81704E-001	6.05876E-007	0.00000E+000	2.83000E-001	-1.24594E-003	10	..........a	-327.74
	224	4.5	2.74756E-001	2.17371E-007	0.00000E+000	2.76000E-001	-1.25511E-003	10	..........a	-327.74
	231	4.64	2.67696E-001	1.37999E-007	0.00000E+000	2.69000E-001	-1.23261E-003	10	..........a	-327.74
	238	4.78	2.60691E-001	2.96743E-007	0.00000E+000	2.62000E-001	-1.28844E-003	10	..........a	-327.74
	245	4.92	2.53771E-001	1.50531E-007	0.00000E+000	2.55000E-001	-1.23177E-003	10	..........a	-327.74
	252	5.06	2.46692E-001	3.35617E-008	0.00000E+000	2.48000E-001	-1.27844E-003	10	..........a	-327.74
	259	5.2	2.39701E-001	5.02716E-008	0.00000E+000	2.41000E-001	-1.24927E-003	10	..........a	-327.74
	266	5.34	2.32713E-001	8.36914E-008	0.00000E+000	2.34000E-001	-1.26011E-003	10	..........a	-327.74
	273	5.48	2.25707E-001	1.50531E-007	0.00000E+000	2.27000E-001	-1.27761E-003	10	..........a	-327.74
	280	5.62	2.18754E-001	2.34081E-007	0.00000E+000	2.20000E-001	-1.27761E-003	10	..........a	-327.74
	287	5.76	2.11706E-001	2.34081E-007	0.00000E+000	2.13000E-001	-1.28927E-003	10	..........a	-327.74
	294	5.9	2.04781E-001	2.88388E-007	0.00000E+000	2.06000E-001	-1.27344E-003	10	..........a	-327.74
	301	6.04	1.97845E-001	1.42176E-007	0.00000E+000	1.99000E-001	-1.26344E-003	10	..........a	-327.74
	308	6.18	1.90726E-001	2.04838E-007	0.00000E+000	1.92000E-001	-1.29427E-003	10	..........a	-327.74
	315	6.32	1.83746E-001	3.13453E-007	0.00000E+000	1.85000E-001	-1.26677E-003	10	..........a	-327.74
	322	6.46	1.76787E-001	8.78689E-008	0.00000E+000	1.78000E-001	-1.29344E-003	10	..........a	-327.74
	329	6.6	1.69724E-001	4.60941E-008	0.00000E+000	1.71000E-001	-1.24927E-003	10	..........a	-327.74
	336	6.74	1.62755E-001	-9.59400E-008	0.00000E+000	1.64000E-001	-1.30511E-003	10	..........a	-327.74
	343	6.88	1.55739E-001	-1.23905E-008	0.00000E+000	1.57000E-001	-1.32177E-003	10	..........a	-327.74
	350	7.02	1.48772E-001	-1.12650E-007	0.00000E+000	1.50000E-001	-1.26844E-003	10	..........a	-327.74
	357	7.16	1.41881E-001	1.21289E-007	0.00000E+000	1.43000E-001	-1.28427E-003	10	..........a	-327.74
	364	7.3	1.34786E-001	1.12934E-007	0.00000E+000	1.36000E-001	-1.25594E-003	10	..........a	-327.74
	371	7.44	1.27799E-001	-4.58103E-008	0.00000E+000	1.29000E-001	-1.28761E-003	10	..........a	-327.74
	378	7.58	1.20824E-001	-5.83427E-008	0.00000E+000	1.22000E-001	-1.26094E-003	10	..........a	-327.74
	385	7.72	1.13781E-001	-3.42411E-007	0.00000E+000	1.15000E-001	-1.25511E-003	10	..........a	-327.74
	392	7.86	1.06776E-001	-2.12909E-007	0.00000E+000	1.08000E-001	-1.28261E-003	10	..........a	-327.74
	399	8	9.98061E-002	1.26743E-008	0.00000E+000	1.01000E-001	-1.27677E-003	10	..........a	-327.74
	406	8.14	9.28069E-002	-8.34077E-008	0.00000E+000	9.40000E-002	-1.22094E-003	10	..........a	-327.74
	413	8.28	8.58052E-002	8.49691E-009	0.00000E+000	8.70000E-002	-1.27261E-003	10	..........a	-327.74
	420	8.42	7.88040E-002	-4.16329E-008	0.00000E+000	8.00000E-002	-1.25344E-003	10	..........a	-327.74
	427	8.56	7.18127E-002	1.12934E-007	0.00000E+000	7.30000E-002	-1.24927E-003	10	..........a	-327.74
	434	8.7	6.48848E-002	-7.92302E-008	0.00000E+000	6.60000E-002	-1.24261E-003	10	..........a	-327.74
	441	8.84	5.78023E-002	-9.17626E-008	0.00000E+000	5.90000E-002	-1.25177E-003	10	..........a	-327.74
	448	8.98	5.08302E-002	-1.75312E-007	0.00000E+000	5.20000E-002	-1.29094E-003	10	..........a	-327.74
	455	9.12	4.38186E-002	-2.12909E-007	0.00000E+000	4.50000E-002	-1.25094E-003	10	..........a	-327.74
	462	9.26	3.68015E-002	-2.12909E-007	0.00000E+000	3.80000E-002	-1.28677E-003	10	..........a	-327.74
	469	9.4	2.98452E-002	-8.75851E-008	0.00000E+000	3.10000E-002	-1.27177E-003	10	..........a	-327.74
	476	9.54	2.28411E-002	2.52067E-008	0.00000E+000	2.40000E-002	-1.23177E-003	10	..........a	-327.74
	483	9.68	1.57931E-002	4.31940E-009	0.00000E+000	1.70000E-002	-1.28511E-003	10	..........a	-327.74
	490	9.82	8.82689E-003	2.04838E-007	0.00000E+000	9.99999E-003	-1.26927E-003	10	..........a	-327.74
	497	9.96	1.78981E-003	3.21808E-007	0.00000E+000	2.99999E-003	-1.29761E-003	10	..........a	-327.74
	504	10.1	-5.18561E-003	3.05098E-007	0.00000E+000	-4.00001E-003	-1.26177E-003	10	..........a	-327.74
	511	10.24	-1.21844E-002	3.88647E-007	0.00000E+000	-1.10000E-002	-1.27344E-003	10	..........a	-327.74
	518	10.38	-1.91985E-002	2.96743E-007	0.00000E+000	-1.80000E-002	-1.30177E-003	10	..........a	-327.74
	525	10.52	-2.61281E-002	-5.41652E-008	0.00000E+000	-2.50000E-002	-1.21927E-003	10	..........a	-327.74
	532	10.66	-3.32064E-002	-5.41652E-008	0.00000E+000	-3.20000E-002	-1.31011E-003	10	..........a	-327.74
	539	10.8	-4.02027E-002	-2.21264E-007	0.00000E+000	-3.90000E-002	-1.22427E-003	10	..........a	-327.74
	546	10.94	-4.71681E-002	-1.21005E-007	0.00000E+000	-4.60000E-002	-1.25594E-003	10	..........a	-327.74
	553	11.08	-5.41906E-002	-2.92281E-007	0.00000E+000	-5.30000E-002	-1.28761E-003	10	..........a	-327.74
	560	11.22	-6.11860E-002	-4.05073E-007	0.00000E+000	-6.00000E-002	-1.24261E-003	10	..........a	-327.74
	567	11.36	-6.82056E-002	-2.88104E-007	0.00000E+000	-6.70000E-002	-1.28594E-003	10	..........a	-327.74
	574	11.5	-7.51689E-002	-5.93060E-007	0.00000E+000	-7.40000E-002	-1.25511E-003	10	..........a	-327.74
	581	11.64	-8.21023E-002	-7.47626E-007	0.00000E+000	-8.10000E-002	-1.28761E-003	10	..........a	-327.74
	588	11.78	-8.91860E-002	-6.59899E-007	0.00000E+000	-8.80000E-002	-1.32677E-003	10	..........a	-327.74
	595	11.92	-9.62073E-002	-1.07347E-006	0.00000E+000	-9.50000E-002	-1.29594E-003	10	..........a	-327.74
	602	12.06	-1.03151E-001	-1.25728E-006	0.00000E+000	-1.02000E-001	-1.28927E-003	10	..........a	-327.74
	609	12.2	-1.10202E-001	-1.77946E-006	0.00000E+000	-1.09000E-001	-1.26927E-003	10	..........a	-327.74
	616	12.34	-1.17154E-001	-2.17632E-006	0.00000E+000	-1.16000E-001	-1.24094E-003	10	..........a	-327.74
	623	12.48	-1.24245E-001	-2.51470E-006	0.00000E+000	-1.23000E-001	-1.27761E-003	10	..........a	-327.74
	630	12.62	-1.31170E-001	-3.40032E-006	0.00000E+000	-1.30000E-001	-1.26511E-003	10	..........a	-327.74
	637	12.76	-1.38122E-001	-4.01023E-006	0.00000E+000	-1.37000E-001	-1.30344E-003	10	..........a	-327.74
	644	12.9	-1.45140E-001	-4.90421E-006	0.00000E+000	-1.44000E-001	-1.21011E-003	10	..........a	-327.74
	651	13.04	-1.52148E-001	-5.91934E-006	0.00000E+000	-1.51000E-001	-1.21677E-003	10	..........a	-327.74
	658	13.18	-1.59101E-001	-7.05979E-006	0.00000E+000	-1.58000E-001	-1.22594E-003	10	..........a	-327.74
	665	13.32	-1.66156E-001	-8.32139E-006	0.00000E+000	-1.65000E-001	-1.26344E-003	10	..........a	-327.74
	672	13.46	-1.73158E-001	-9.65818E-006	0.00000E+000	-1.72000E-001	-1.25677E-003	10	..........a	-327.74
	679	13.6	-1.80183E-001	-1.14044E-005	0.00000E+000	-1.79000E-001	-1.21594E-003	10	..........a	-327.74
	686	13.74	-1.87156E-001	-1.30210E-005	0.00000E+000	-1.86000E-001	-1.23844E-003	10	..........a	-327.74
	693	13.88	-1.94095E-001	-1.43328E-005	0.00000E+000	-1.93000E-001	-1.25261E-003	10	..........a	-327.74
	700	14.02	-2.01130E-001	-1.58492E-005	0.00000E+000	-2.00000E-001	-1.20677E-003	10	..........a	-327.74
	707	14.16	-2.08119E-001	-1.65594E-005	0.00000E+000	-2.07000E-001	-1.27261E-003	10	..........a	-327.74
	714	14.3	-2.15063E-001	-1.75160E-005	0.00000E+000	-2.14000E-001	-1.21094E-003	10	..........a	-327.74
	721	14.44	-2.22089E-001	-1.80340E-005	0.00000E+000	-2.21000E-001	-1.26177E-003	10	..........a	-327.74
	728	14.58	-2.29126E-001	-1.81886E-005	0.00000E+000	-2.28000E-001	-1.22927E-003	10	..........a	-327.74
	735	14.72	-2.36141E-001	-1.84810E-005	0.00000E+000	-2.35000E-001	-1.21011E-003	10	..........a	-327.74
	742	14.86	-2.43092E-001	-1.82011E-005	0.00000E+000	-2.42000E-001	-1.24261E-003	10	..........a	-327.74
	749	15	-2.50082E-001	-1.81426E-005	0.00000E+000	-2.49000E-001	-1.24844E-003	10	..........a	-327.74
	756	15.14	-2.57113E-001	-1.78419E-005	0.00000E+000	-2.56000E-001	-1.23677E-003	10	..........a	-327.74
	763	15.28	-2.64100E-001	-1.72737E-005	0.00000E+000	-2.63000E-001	-1.26094E-003	10	..........a	-327.74
	770	15.42	-2.71073E-001	-1.69061E-005	0.00000E+000	-2.70000E-001	-1.25927E-003	10	..........a	-327.74
	777	15.56	-2.78101E-001	-1.62502E-005	0.00000E+000	-2.77000E-001	-1.25344E-003	10	..........a	-327.74
	784	15.7	-2.85088E-001	-1.59035E-005	0.00000E+000	-2.84000E-001	-1.25677E-003	10	..........a	-327.74
	791	15.84	-2.92039E-001	-1.56737E-005	0.00000E+000	-2.91000E-001	-1.26344E-003	10	..........a	-327.74
	798	15.98	-2.99096E-001	-1.51432E-005	0.00000E+000	-2.98000E-001	-1.22427E-003	10	..........a	-327.74
	805	16.12	-3.06007E-001	-1.48508E-005	0.00000E+000	-3.05000E-001	-1.18927E-003	10	..........a	-327.74
	812	16.26	-3.13061E-001	-1.48090E-005	0.00000E+000	-3.12000E-001	-1.22094E-003	10	..........a	-327.74
	819	16.4	-3.20027E-001	-1.49260E-005	0.00000E+000	-3.19000E-001	-1.18844E-003	10	..........a	-327.74
	826	16.54	-3.27038E-001	-1.47463E-005	0.00000E+000	-3.26000E-001	-1.19677E-003	10	..........a	-327.74
	833	16.68	-3.34021E-001	-1.47255E-005	0.00000E+000	-3.33000E-001	-1.22677E-003	10	..........a	-327.74
	840	16.82	-3.41073E-001	-1.44247E-005	0.00000E+000	-3.40000E-001	-1.21511E-003	10	..........a	-327.74
	847	16.96	-3.48044E-001	-1.46795E-005	0.00000E+000	-3.47000E-001	-1.19344E-003	10	..........a	-327.74
	854	17.1	-3.55050E-001	-1.47798E-005	0.00000E+000	-3.54000E-001	-1.15844E-003	10	..........a	-327.74
	861	17.24	-3.61983E-001	-1.47965E-005	0.00000E+000	-3.61000E-001	-1.17594E-003	10	..........a	-327.74
	868	17.38	-3.69043E-001	-1.47213E-005	0.00000E+000	-3.68000E-001	-1.23011E-003	10	..........a	-327.74
	875	17.52	-3.76033E-001	-1.48967E-005	0.00000E+000	-3.75000E-001	-1.19094E-003	10	..........a	-327.74
	882	17.66	-3.83008E-001	-1.49469E-005	0.00000E+000	-3.82000E-001	-1.24344E-003	10	..........a	-327.74
	889	17.8	-3.89979E-001	-1.51432E-005	0.00000E+000	-3.89000E-001	-1.21761E-003	10	..........a	-327.74
	896	17.94	-3.97059E-001	-1.55735E-005	0.00000E+000	-3.96000E-001	-1.23761E-003	10	..........a	-327.74
	903	18.08	-4.04048E-001	-1.58534E-005	0.00000E+000	-4.03000E-001	-1.26344E-003	10	..........a	-327.74
	910	18.22	-4.11069E-001	-1.66513E-005	0.00000E+000	-4.10000E-001	-1.25761E-003	10	..........a	-327.74
	917	18.36	-4.18065E-001	-1.74116E-005	0.00000E+000	-4.17000E-001	-1.28427E-003	10	..........a	-327.74
	924	18.5	-4.25083E-001	-1.88444E-005	0.00000E+000	-4.24000E-001	-1.26094E-003	10	..........a	-327.74
	931	18.64	-4.32023E-001	-2.17269E-005	0.00000E+000	-4.31000E-001	-1.25261E-003	10	..........a	-327.74
	938	18.78	-4.39026E-001	-2.44924E-005	0.00000E+000	-4.38000E-001	-1.26511E-003	10	..........a	-327.74
	945	18.92	-4.45998E-001	-2.91252E-005	0.00000E+000	-4.45000E-001	-1.23427E-003	10	..........a	-327.74
	952	19.06	-4.53096E-001	-3.42301E-005	0.00000E+000	-4.52000E-001	-1.26511E-003	10	..........a	-327.74
	959	19.2	-4.60059E-001	-4.06049E-005	0.00000E+000	-4.59000E-001	-1.26844E-003	10	..........a	-327.74
	966	19.34	-4.67034E-001	-4.77233E-005	0.00000E+000	-4.66000E-001	-1.26427E-003	10	..........a	-327.74
	973	19.48	-4.74022E-001	-5.56271E-005	0.00000E+000	-4.73000E-001	-1.27177E-003	10	..........a	-327.74
	980	19.62	-4.81058E-001	-6.47173E-005	0.00000E+000	-4.80000E-001	-1.29927E-003	10	..........a	-327.74
	987	19.76	-4.88038E-001	-7.49688E-005	0.00000E+000	-4.87000E-001	-1.24427E-003	10	..........a	-327.74
	994	19.9	-4.95011E-001	-8.62814E-005	0.00000E+000	-4.94000E-001	-1.25844E-003	10	..........a	-327.74
	1001	20.04	-5.01991E-001	-9.85590E-005	0.00000E+000	-5.01000E-001	-1.27511E-003	10	..........a	-327.74
	1008	20.18	-5.09050E-001	-1.12194E-004	0.00000E+000	-5.08000E-001	-1.27844E-003	10	..........a	-327.74
	1015	20.32	-5.15953E-001	-1.27024E-004	0.00000E+000	-5.15000E-001	-1.25261E-003	10	..........a	-327.74
	1022	20.46	-5.23056E-001	-1.43442E-004	0.00000E+000	-5.22000E-001	-1.28427E-003	10	..........a	-327.74
	1029	20.6	-5.30001E-001	-1.60173E-004	0.00000E+000	-5.29000E-001	-1.26511E-003	10	..........a	-327.74
	1036	20.74	-5.37030E-001	-1.77096E-004	0.00000E+000	-5.36000E-001	-1.26427E-003	10	..........a	-327.74
	1043	20.88	-5.44013E-001	-1.93049E-004	0.00000E+000	-5.43000E-001	-1.32344E-003	10	..........a	-327.74
	1050	21.02	-5.51001E-001	-2.07065E-004	0.00000E+000	-5.50000E-001	-1.23511E-003	10	..........a	-327.74
	1057	21.16	-5.58046E-001	-2.17078E-004	0.00000E+000	-5.57000E-001	-1.34177E-003	10	..........a	-327.74
	1064	21.3	-5.64961E-001	-2.22872E-004	0.00000E+000	-5.64000E-001	-1.29261E-003	10	..........a	-327.74
	1071	21.44	-5.71946E-001	-2.23307E-004	0.00000E+000	-5.71000E-001	-1.28511E-003	10	..........a	-327.74
	1078	21.58	-5.79035E-001	-2.18707E-004	0.00000E+000	-5.78000E-001	-1.27677E-003	10	..........a	-327.74
	1085	21.72	-5.85977E-001	-2.11067E-004	0.00000E+000	-5.85000E-001	-1.28177E-003	10	..........a	-327.74
	1092	21.86	-5.93007E-001	-2.01062E-004	0.00000E+000	-5.92000E-001	-1.30427E-003	10	..........a	-327.74
	1099	22	-5.99987E-001	-1.91378E-004	0.00000E+000	-5.99000E-001	-1.29594E-003	10	..........a	-327.74
	1106	22.14	-6.06970E-001	-1.81707E-004	0.00000E+000	-6.06000E-001	-1.24011E-003	10	..........a	-327.74
	1113	22.28	-6.14003E-001	-1.72981E-004	0.00000E+000	-6.13000E-001	-1.27677E-003	10	..........a	-327.74
	1120	22.42	-6.21010E-001	-1.65215E-004	0.00000E+000	-6.20000E-001	-1.28427E-003	10	..........a	-327.74
	1127	22.56	-6.27948E-001	-1.58472E-004	0.00000E+000	-6.27000E-001	-1.27094E-003	10	..........a	-327.74
	1134	22.7	-6.35014E-001	-1.52106E-004	0.00000E+000	-6.34000E-001	-1.29927E-003	10	..........a	-327.74
	1141	22.84	-6.41950E-001	-1.46892E-004	0.00000E+000	-6.41000E-001	-1.26094E-003	10	..........a	-327.74
	1148	22.98	-6.48888E-001	-1.42448E-004	0.00000E+000	-6.48000E-001	-1.27427E-003	10	..........a	-327.74
	1155	23.12	-6.55963E-001	-1.37731E-004	0.00000E+000	-6.55000E-001	-1.26511E-003	10	..........a	-327.74
	1162	23.26	-6.62893E-001	-1.34126E-004	0.00000E+000	-6.62000E-001	-1.27094E-003	10	..........a	-327.74
	1169	23.4	-6.69945E-001	-1.29781E-004	0.00000E+000	-6.69000E-001	-1.27344E-003	10	..........a	-327.74
	1176	23.54	-6.76907E-001	-1.26552E-004	0.00000E+000	-6.76000E-001	-1.22594E-003	10	..........a	-327.74
	1183	23.68	-6.83939E-001	-1.23382E-004	0.00000E+000	-6.83000E-001	-1.26344E-003	10	..........a	-327.74
	1190	23.82	-6.90980E-001	-1.20566E-004	0.00000E+000	-6.90000E-001	-1.26011E-003	10	..........a	-327.74
	1197	23.96	-6.97941E-001	-1.17851E-004	0.00000E+000	-6.97000E-001	-1.29594E-003	10	..........a	-327.74
	1204	24.1	-7.04928E-001	-1.15010E-004	0.00000E+000	-7.04000E-001	-1.26677E-003	10	..........a	-327.74
	1211	24.24	-7.11937E-001	-1.12545E-004	0.00000E+000	-7.11000E-001	-1.26261E-003	10	..........a	-327.74
	1218	24.38	-7.18841E-001	-1.10477E-004	0.00000E+000	-7.18000E-001	-1.22844E-003	10	..........a	-327.74
	1225	24.52	-7.25944E-001	-1.08276E-004	0.00000E+000	-7.25000E-001	-1.21011E-003	10	..........a	-327.74
	1232	24.66	-7.32946E-001	-1.06070E-004	0.00000E+000	-7.32000E-001	-1.27177E-003	10	..........a	-327.74
	1239	24.8	-7.39903E-001	-1.04412E-004	0.00000E+000	-7.39000E-001	-1.27677E-003	10	..........a	-327.74
	1246	24.94	-7.46931E-001	-1.02645E-004	0.00000E+000	-7.46000E-001	-1.25761E-003	10	..........a	-327.74
	1253	25.08	-7.53917E-001	-1.00769E-004	0.00000E+000	-7.53000E-001	-1.29927E-003	10	..........a	-327.74
	1260	25.22	-7.60931E-001	-9.91815E-005	0.00000E+000	-7.60000E-001	-1.24427E-003	10	..........a	-327.74
	1267	25.36	-7.67915E-001	-9.74395E-005	0.00000E+000	-7.67000E-001	-1.28344E-003	10	..........a	-327.74
	1274	25.5	-7.74849E-001	-9.60275E-005	0.00000E+000	-7.74000E-001	-1.25261E-003	10	..........a	-327.74
	1281	25.64	-7.81891E-001	-9.48912E-005	0.00000E+000	-7.81000E-001	-1.17011E-003	10	..........a	-327.74
	1288	25.78	-7.88917E-001	-9.35753E-005	0.00000E+000	-7.88000E-001	-1.22594E-003	10	..........a	-327.74
	1295	25.92	-7.95841E-001	-9.20129E-005	0.00000E+000	-7.95000E-001	-1.23011E-003	10	..........a	-327.74
	1302	26.06	-8.02976E-001	-9.07597E-005	0.00000E+000	-8.02000E-001	-1.25927E-003	10	..........a	-327.74
	1309	26.2	-8.09919E-001	-8.96902E-005	0.00000E+000	-8.09000E-001	-1.22594E-003	10	..........a	-327.74
	1316	26.34	-8.16907E-001	-8.85623E-005	0.00000E+000	-8.16000E-001	-1.25927E-003	10	..........a	-327.74
	1323	26.48	-8.23907E-001	-8.73216E-005	0.00000E+000	-8.23000E-001	-1.27511E-003	10	..........a	-327.74
	1330	26.62	-8.30783E-001	-8.64652E-005	0.00000E+000	-8.30000E-001	-1.24011E-003	10	..........a	-327.74
	1337	26.76	-8.37873E-001	-8.53916E-005	0.00000E+000	-8.37000E-001	-1.28344E-003	10	..........a	-327.74
	1344	26.9	-8.44855E-001	-8.46564E-005	0.00000E+000	-8.44000E-001	-1.29094E-003	10	..........a	-327.74
	1351	27.04	-8.51896E-001	-8.35368E-005	0.00000E+000	-8.51000E-001	-1.27677E-003	10	..........a	-327.74
	1358	27.18	-8.58808E-001	-8.26930E-005	0.00000E+000	-8.58000E-001	-1.26261E-003	10	..........a	-327.74
	1365	27.32	-8.65875E-001	-8.17698E-005	0.00000E+000	-8.65000E-001	-1.27261E-003	10	..........a	-327.74
	1372	27.46	-8.72811E-001	-8.09886E-005	0.00000E+000	-8.72000E-001	-1.29927E-003	10	..........a	-327.74
	1379	27.6	-8.79858E-001	-8.01113E-005	0.00000E+000	-8.79000E-001	-1.30344E-003	10	..........a	-327.74
	1386	27.74	-8.86796E-001	-7.90795E-005	0.00000E+000	-8.86000E-001	-1.25427E-003	10	..........a	-327.74
	1393	27.88	-8.93853E-001	-7.85364E-005	0.00000E+000	-8.93000E-001	-1.26344E-003	10	..........a	-327.74
	1400	28.02	-9.00792E-001	-7.78722E-005	0.00000E+000	-9.00000E-001	-1.23011E-003	10	..........a	-327.74
	1407	28.16	-9.07716E-001	-7.71077E-005	0.00000E+000	-9.07000E-001	-1.28927E-003	10	..........a	-327.74
	1414	28.3	-9.14834E-001	-7.62722E-005	0.00000E+000	-9.14000E-001	-1.25094E-003	10	..........a	-327.74
	1421	28.44	-9.21898E-001	-7.55913E-005	0.00000E+000	-9.21000E-001	-1.27177E-003	10	..........a	-327.74
	1428	28.58	-9.28861E-001	-7.49730E-005	0.00000E+000	-9.28000E-001	-1.26594E-003	10	..........a	-327.74
	1435	28.72	-9.35849E-001	-7.43589E-005	0.00000E+000	-9.35000E-001	-1.29261E-003	10	..........a	-327.74
	1442	28.86	-9.42812E-001	-7.36362E-005	0.00000E+000	-9.42000E-001	-1.28927E-003	10	..........a	-327.74
	1449	29	-9.49828E-001	-7.31600E-005	0.00000E+000	-9.49000E-001	-1.30844E-003	10	..........a	-327.74
	1456	29.14	-9.56823E-001	-7.25710E-005	0.00000E+000	-9.56000E-001	-1.32094E-003	10	..........a	-327.74
	1463	29.28	-9.63829E-001	-7.20864E-005	0.00000E+000	-9.63000E-001	-1.34427E-003	10	..........a	-327.74
	1470	29.42	-9.70814E-001	-7.13971E-005	0.00000E+000	-9.70000E-001	-1.31261E-003	10	..........a	-327.74
	1477	29.56	-9.77781E-001	-7.09626E-005	0.00000E+000	-9.77000E-001	-1.32427E-003	10	..........a	-327.74
	1484	29.7	-9.84768E-001	-7.05198E-005	0.00000E+000	-9.84000E-001	-1.28594E-003	10	..........a	-327.74
	1491	29.84	-9.91820E-001	-7.01689E-005	0.00000E+000	-9.91000E-001	-1.33427E-003	10	..........a	-327.74
	1498	29.98	-9.98762E-001	-6.97512E-005	0.00000E+000	-9.98000E-001	-1.28177E-003	10	..........a	-327.74
	1505	30.12	-9.95779E-001	-6.82932E-005	0.00000E+000	-9.95000E-001	-1.31011E-003	10	..........a	-327.74
	1512	30.26	-9.88780E-001	-6.68687E-005	0.00000E+000	-9.88000E-001	-1.31594E-003	10	..........a	-327.74
	1519	30.4	-9.81863E-001	-6.60875E-005	0.00000E+000	-9.81000E-001	-1.27094E-003	10	..........a	-327.74
	1526	30.54	-9.74779E-001	-6.51142E-005	0.00000E+000	-9.74000E-001	-1.30427E-003	10	..........a	-327.74
	1533	30.68	-9.67808E-001	-6.43873E-005	0.00000E+000	-9.67000E-001	-1.29011E-003	10	..........a	-327.74
	1540	30.82	-9.60795E-001	-6.40573E-005	0.00000E+000	-9.60000E-001	-1.28677E-003	10	..........a	-327.74
	1547	30.96	-9.53810E-001	-6.34223E-005	0.00000E+000	-9.53000E-001	-1.30011E-003	10	..........a	-327.74
	1554	31.1	-9.46779E-001	-6.29962E-005	0.00000E+000	-9.46000E-001	-1.24594E-003	10	..........a	-327.74
	1561	31.24	-9.39794E-001	-6.25743E-005	0.00000E+000	-9.39000E-001	-1.27011E-003	10	..........a	-327.74
	1568	31.38	-9.32817E-001	-6.19685E-005	0.00000E+000	-9.32000E-001	-1.30344E-003	10	..........a	-327.74
	1575	31.52	-9.25809E-001	-6.16510E-005	0.00000E+000	-9.25000E-001	-1.25594E-003	10	..........a	-327.74
	1582	31.66	-9.18810E-001	-6.10035E-005	0.00000E+000	-9.18000E-001	-1.30844E-003	10	..........a	-327.74
	1589	31.8	-9.11819E-001	-6.05858E-005	0.00000E+000	-9.11000E-001	-1.25177E-003	10	..........a	-327.74
	1596	31.94	-9.04926E-001	-5.99633E-005	0.00000E+000	-9.04000E-001	-1.28344E-003	10	..........a	-327.74
	1603	32.08	-8.97896E-001	-5.95456E-005	0.00000E+000	-8.97000E-001	-1.26261E-003	10	..........a	-327.74
	1610	32.22	-8.90861E-001	-5.93576E-005	0.00000E+000	-8.90000E-001	-1.25094E-003	10	..........a	-327.74
	1617	32.36	-8.83814E-001	-5.88438E-005	0.00000E+000	-8.83000E-001	-1.26761E-003	10	..........a	-327.74
	1624	32.5	-8.76866E-001	-5.86098E-005	0.00000E+000	-8.76000E-001	-1.26344E-003	10	..........a	-327.74
	1631	32.64	-8.69908E-001	-5.82172E-005	0.00000E+000	-8.69000E-001	-1.26094E-003	10	..........a	-327.74
	1638	32.78	-8.62832E-001	-5.76741E-005	0.00000E+000	-8.62000E-001	-1.28594E-003	10	..........a	-327.74
	1645	32.92	-8.55917E-001	-5.74777E-005	0.00000E+000	-8.55000E-001	-1.26011E-003	10	..........a	-327.74
	1652	33.06	-8.48846E-001	-5.71811E-005	0.00000E+000	-8.48000E-001	-1.28761E-003	10	..........a	-327.74
	1659	33.2	-8.41865E-001	-5.68302E-005	0.00000E+000	-8.41000E-001	-1.25594E-003	10	..........a	-327.74
	1666	33.34	-8.34866E-001	-5.63749E-005	0.00000E+000	-8.34000E-001	-1.29094E-003	10	..........a	-327.74
	1673	33.48	-8.27882E-001	-5.58945E-005	0.00000E+000	-8.27000E-001	-1.30177E-003	10	..........a	-327.74
	1680	33.62	-8.20816E-001	-5.59655E-005	0.00000E+000	-8.20000E-001	-1.23761E-003	10	..........a	-327.74
	1687	33.76	-8.13935E-001	-5.52428E-005	0.00000E+000	-8.13000E-001	-1.30177E-003	10	..........a	-327.74
	1694	33.9	-8.06915E-001	-5.51342E-005	0.00000E+000	-8.06000E-001	-1.26511E-003	10	..........a	-327.74
	1701	34.04	-7.99930E-001	-5.45034E-005	0.00000E+000	-7.99000E-001	-1.30844E-003	10	..........a	-327.74
	1708	34.18	-7.92887E-001	-5.43822E-005	0.00000E+000	-7.92000E-001	-1.31511E-003	10	..........a	-327.74
	1715	34.32	-7.85933E-001	-5.39352E-005	0.00000E+000	-7.85000E-001	-1.27927E-003	10	..........a	-327.74
	1722	34.46	-7.79002E-001	-5.35217E-005	0.00000E+000	-7.78000E-001	-1.34344E-003	10	..........a	-327.74
	1729	34.6	-7.71903E-001	-5.33838E-005	0.00000E+000	-7.71000E-001	-1.29177E-003	10	..........a	-327.74
	1736	34.74	-7.65002E-001	-5.29702E-005	0.00000E+000	-7.64000E-001	-1.32761E-003	10	..........a	-327.74
	1743	34.88	-7.57945E-001	-5.25358E-005	0.00000E+000	-7.57000E-001	-1.33011E-003	10	..........a	-327.74
	1750	35.02	-7.50985E-001	-5.23896E-005	0.00000E+000	-7.50000E-001	-1.32344E-003	10	..........a	-327.74
	1757	35.16	-7.43944E-001	-5.20387E-005	0.00000E+000	-7.43000E-001	-1.30844E-003	10	..........a	-327.74
	1764	35.3	-7.37007E-001	-5.17086E-005	0.00000E+000	-7.36000E-001	-1.30177E-003	10	..........a	-327.74
	1771	35.44	-7.29956E-001	-5.11948E-005	0.00000E+000	-7.29000E-001	-1.30511E-003	10	..........a	-327.74
	1778	35.58	-7.22972E-001	-5.10570E-005	0.00000E+000	-7.22000E-001	-1.29594E-003	10	..........a	-327.74
	1785	35.72	-7.15941E-001	-5.06893E-005	0.00000E+000	-7.15000E-001	-1.27177E-003	10	..........a	-327.74
	1792	35.86	-7.09009E-001	-5.03301E-005	0.00000E+000	-7.08000E-001	-1.31427E-003	10	..........a	-327.74
	1799	36	-7.01940E-001	-4.99165E-005	0.00000E+000	-7.01000E-001	-1.30594E-003	10	..........a	-327.74
	1806	36.14	-6.94873E-001	-4.95197E-005	0.00000E+000	-6.94000E-001	-1.28927E-003	10	..........a	-327.74
	1813	36.28	-6.87953E-001	-4.92398E-005	0.00000E+000	-6.87000E-001	-1.27511E-003	10	..........a	-327.74
	1820	36.42	-6.80955E-001	-4.87259E-005	0.00000E+000	-6.80000E-001	-1.28261E-003	10	..........a	-327.74
	1827	36.56	-6.74021E-001	-4.82706E-005	0.00000E+000	-6.73000E-001	-1.27261E-003	10	..........a	-327.74
	1834	36.7	-6.66940E-001	-4.78152E-005	0.00000E+000	-6.66000E-001	-1.24927E-003	10	..........a	-327.74
	1841	36.84	-6.59948E-001	-4.70090E-005	0.00000E+000	-6.59000E-001	-1.27011E-003	10	..........a	-327.74
	1848	36.98	-6.52963E-001	-4.65286E-005	0.00000E+000	-6.52000E-001	-1.24094E-003	10	..........a	-327.74
	1855	37.12	-6.45926E-001	-4.60231E-005	0.00000E+000	-6.45000E-001	-1.24844E-003	10	..........a	-327.74
	1862	37.26	-6.38915E-001	-4.53422E-005	0.00000E+000	-6.38000E-001	-1.25427E-003	10	..........a	-327.74
	1869	37.4	-6.31986E-001	-4.45150E-005	0.00000E+000	-6.31000E-001	-1.29177E-003	10	..........a	-327.74
	1876	37.54	-6.25101E-001	-4.33829E-005	0.00000E+000	-6.24000E-001	-1.28177E-003	10	..........a	-327.74
	1883	37.68	-6.17965E-001	-4.21213E-005	0.00000E+000	-6.17000E-001	-1.28344E-003	10	..........a	-327.74
	1890	37.82	-6.11066E-001	-4.02122E-005	0.00000E+000	-6.10000E-001	-1.28677E-003	10	..........a	-327.74
	1897	37.96	-6.03990E-001	-3.74802E-005	0.00000E+000	-6.03000E-001	-1.31094E-003	10	..........a	-327.74
	1904	38.1	-5.97073E-001	-3.31272E-005	0.00000E+000	-5.96000E-001	-1.29427E-003	10	..........a	-327.74
	1911	38.24	-5.90026E-001	-2.72913E-005	0.00000E+000	-5.89000E-001	-1.28844E-003	10	..........a	-327.74
	1918	38.38	-5.83004E-001	-1.93123E-005	0.00000E+000	-5.82000E-001	-1.34927E-003	10	..........a	-327.74
	1925	38.52	-5.76000E-001	-7.61540E-006	0.00000E+000	-5.75000E-001	-1.28261E-003	10	..........a	-327.74
	1932	38.66	-5.69062E-001	6.70499E-006	0.00000E+000	-5.68000E-001	-1.35177E-003	10	..........a	-327.74
	1939	38.8	-5.62018E-001	2.38828E-005	0.00000E+000	-5.61000E-001	-1.32511E-003	10	..........a	-327.74
	1946	38.94	-5.55061E-001	4.25310E-005	0.00000E+000	-5.54000E-001	-1.31511E-003	10	..........a	-327.74
	1953	39.08	-5.48135E-001	6.20189E-005	0.00000E+000	-5.47000E-001	-1.33261E-003	10	..........a	-327.74
	1960	39.22	-5.41016E-001	8.01325E-005	0.00000E+000	-5.40000E-001	-1.29344E-003	10	..........a	-327.74
	1967	39.36	-5.34041E-001	9.64831E-005	0.00000E+000	-5.33000E-001	-1.32177E-003	10	..........a	-327.74
	1974	39.5	-5.27020E-001	1.09684E-004	0.00000E+000	-5.26000E-001	-1.30177E-003	10	..........a	-327.74
	1981	39.64	-5.20063E-001	1.19768E-004	0.00000E+000	-5.19000E-001	-1.31927E-003	10	..........a	-327.74
	1988	39.78	-5.13064E-001	1.27359E-004	0.00000E+000	-5.12000E-001	-1.34427E-003	10	..........a	-327.74
	1995	39.92	-5.06049E-001	1.32230E-004	0.00000E+000	-5.05000E-001	-1.31761E-003	10	..........a	-327.74
	2002	40.06	-4.99076E-001	1.35024E-004	0.00000E+000	-4.98000E-001	-1.31177E-003	10	..........a	-327.74
	2009	40.2	-4.92025E-001	1.35843E-004	0.00000E+000	-4.91000E-001	-1.32761E-003	10	..........a	-327.74
	2016	40.34	-4.85084E-001	1.35292E-004	0.00000E+000	-4.84000E-001	-1.34844E-003	10	..........a	-327.74
	2023	40.48	-4.78079E-001	1.33044E-004	0.00000E+000	-4.77000E-001	-1.28761E-003	10	..........a	-327.74
	2030	40.62	-4.70931E-001	1.29648E-004	0.00000E+000	-4.70000E-001	-1.28677E-003	10	..........a	-327.74
	2037	40.76	-4.64090E-001	1.25141E-004	0.00000E+000	-4.63000E-001	-1.29844E-003	10	..........a	-327.74
	2044	40.9	-4.57056E-001	1.20658E-004	0.00000E+000	-4.56000E-001	-1.26344E-003	10	..........a	-327.74
	2051	41.04	-4.50046E-001	1.15420E-004	0.00000E+000	-4.49000E-001	-1.27344E-003	10	..........a	-327.74
	2058	41.18	-4.43093E-001	1.10436E-004	0.00000E+000	-4.42000E-001	-1.27094E-003	10	..........a	-327.74
	2065	41.32	-4.36009E-001	1.05201E-004	0.00000E+000	-4.35000E-001	-1.24177E-003	10	..........a	-327.74
	2072	41.46	-4.29103E-001	9.97165E-005	0.00000E+000	-4.28000E-001	-1.27927E-003	10	..........a	-327.74
	2079	41.6	-4.22061E-001	9.53802E-005	0.00000E+000	-4.21000E-001	-1.25427E-003	10	..........a	-327.74
	2086	41.74	-4.15026E-001	9.02879E-005	0.00000E+000	-4.14000E-001	-1.25511E-003	10	..........a	-327.74
	2093	41.88	-4.08101E-001	8.63110E-005	0.00000E+000	-4.07000E-001	-1.24761E-003	10	..........a	-327.74
	2100	42.02	-4.01074E-001	8.21627E-005	0.00000E+000	-4.00000E-001	-1.23261E-003	10	..........a	-327.74
	2107	42.16	-3.94058E-001	7.90923E-005	0.00000E+000	-3.93000E-001	-1.29677E-003	10	..........a	-327.74
	2114	42.3	-3.87086E-001	7.46809E-005	0.00000E+000	-3.86000E-001	-1.22177E-003	10	..........a	-327.74
	2121	42.44	-3.80091E-001	7.19906E-005	0.00000E+000	-3.79000E-001	-1.28677E-003	10	..........a	-327.74
	2128	42.58	-3.73113E-001	6.90789E-005	0.00000E+000	-3.72000E-001	-1.28094E-003	10	..........a	-327.74
	2135	42.72	-3.66026E-001	6.65390E-005	0.00000E+000	-3.65000E-001	-1.27177E-003	10	..........a	-327.74
	2142	42.86	-3.59027E-001	6.42330E-005	0.00000E+000	-3.58000E-001	-1.31927E-003	10	..........a	-327.74
	2149	43	-3.52101E-001	6.19980E-005	0.00000E+000	-3.51000E-001	-1.28511E-003	10	..........a	-327.74
	2156	43.14	-3.45098E-001	5.96420E-005	0.00000E+000	-3.44000E-001	-1.32427E-003	10	..........a	-327.74
	2163	43.28	-3.38005E-001	5.78122E-005	0.00000E+000	-3.37000E-001	-1.26177E-003	10	..........a	-327.74
	2170	43.42	-3.31113E-001	5.57778E-005	0.00000E+000	-3.30000E-001	-1.30177E-003	10	..........a	-327.74
	2177	43.56	-3.24108E-001	5.42363E-005	0.00000E+000	-3.23000E-001	-1.29344E-003	10	..........a	-327.74
	2184	43.7	-3.17127E-001	5.27784E-005	0.00000E+000	-3.16000E-001	-1.25011E-003	10	..........a	-327.74
	2191	43.84	-3.10096E-001	5.10823E-005	0.00000E+000	-3.09000E-001	-1.28594E-003	10	..........a	-327.74
	2198	43.98	-3.03069E-001	4.98291E-005	0.00000E+000	-3.02000E-001	-1.29011E-003	10	..........a	-327.74
	2205	44.12	-2.96095E-001	4.85257E-005	0.00000E+000	-2.95000E-001	-1.29594E-003	10	..........a	-327.74
	2212	44.26	-2.89137E-001	4.73769E-005	0.00000E+000	-2.88000E-001	-1.32594E-003	10	..........a	-327.74
	2219	44.4	-2.82038E-001	4.63200E-005	0.00000E+000	-2.81000E-001	-1.28927E-003	10	..........a	-327.74
	2226	44.54	-2.75123E-001	4.50083E-005	0.00000E+000	-2.74000E-001	-1.30677E-003	10	..........a	-327.74
	2233	44.68	-2.68212E-001	4.36464E-005	0.00000E+000	-2.67000E-001	-1.33011E-003	10	..........a	-327.74
	2240	44.82	-2.61112E-001	4.24600E-005	0.00000E+000	-2.60000E-001	-1.29344E-003	10	..........a	-327.74
	2247	44.96	-2.54139E-001	4.16203E-005	0.00000E+000	-2.53000E-001	-1.28177E-003	10	..........a	-327.74
	2254	45.1	-2.47113E-001	4.05843E-005	0.00000E+000	-2.46000E-001	-1.28761E-003	10	..........a	-327.74
	2261	45.24	-2.40130E-001	3.95859E-005	0.00000E+000	-2.39000E-001	-1.31261E-003	10	..........a	-327.74
	2268	45.38	-2.33115E-001	3.89969E-005	0.00000E+000	-2.32000E-001	-1.30511E-003	10	..........a	-327.74
	2275	45.52	-2.26086E-001	3.81238E-005	0.00000E+000	-2.25000E-001	-1.27261E-003	10	..........a	-327.74
	2282	45.66	-2.19132E-001	3.75180E-005	0.00000E+000	-2.18000E-001	-1.28677E-003	10	..........a	-327.74
	2289	45.8	-2.12226E-001	3.65572E-005	0.00000E+000	-2.11000E-001	-1.23844E-003	10	..........a	-327.74
	2296	45.94	-2.05127E-001	3.58805E-005	0.00000E+000	-2.04000E-001	-1.29094E-003	10	..........a	-327.74
	2303	46.08	-1.98152E-001	3.48445E-005	0.00000E+000	-1.97000E-001	-1.28594E-003	10	..........a	-327.74
	2310	46.22	-1.91029E-001	3.40382E-005	0.00000E+000	-1.90000E-001	-1.25177E-003	10	..........a	-327.74
	2317	46.36	-1.84090E-001	3.35411E-005	0.00000E+000	-1.83000E-001	-1.29677E-003	10	..........a	-327.74
	2324	46.5	-1.77162E-001	3.26931E-005	0.00000E+000	-1.76000E-001	-1.28761E-003	10	..........a	-327.74
	2331	46.64	-1.70147E-001	3.21458E-005	0.00000E+000	-1.69000E-001	-1.30511E-003	10	..........a	-327.74
	2338	46.78	-1.63184E-001	3.14064E-005	0.00000E+000	-1.62000E-001	-1.30594E-003	10	..........a	-327.74
	2345	46.92	-1.56199E-001	3.08884E-005	0.00000E+000	-1.55000E-001	-1.30011E-003	10	..........a	-327.74
	2352	47.06	-1.49155E-001	3.02576E-005	0.00000E+000	-1.48000E-001	-1.33094E-003	10	..........a	-327.74
	2359	47.2	-1.42164E-001	2.96769E-005	0.00000E+000	-1.41000E-001	-1.25844E-003	10	..........a	-327.74
	2366	47.34	-1.35169E-001	2.92926E-005	0.00000E+000	-1.34000E-001	-1.31761E-003	10	..........a	-327.74
	2373	47.48	-1.28262E-001	2.86200E-005	0.00000E+000	-1.27000E-001	-1.32844E-003	10	..........a	-327.74
	2380	47.62	-1.21166E-001	2.80644E-005	0.00000E+000	-1.20000E-001	-1.31594E-003	10	..........a	-327.74
	2387	47.76	-1.14200E-001	2.77636E-005	0.00000E+000	-1.13000E-001	-1.31594E-003	10	..........a	-327.74
	2394	47.9	-1.07174E-001	2.72122E-005	0.00000E+000	-1.06000E-001	-1.28844E-003	10	..........a	-327.74
	2401	48.04	-1.00192E-001	2.66399E-005	0.00000E+000	-9.90000E-002	-1.33261E-003	10	..........a	-327.74
	2408	48.18	-9.31810E-002	2.64268E-005	0.00000E+000	-9.20000E-002	-1.32177E-003	10	..........a	-327.74
	2415	48.32	-8.62723E-002	2.59590E-005	0.00000E+000	-8.50000E-002	-1.29011E-003	10	..........a	-327.74
	2422	48.46	-7.91419E-002	2.58504E-005	0.00000E+000	-7.80000E-002	-1.27844E-003	10	..........a	-327.74
	2429	48.6	-7.21898E-002	2.53616E-005	0.00000E+000	-7.10000E-002	-1.28427E-003	10	..........a	-327.74
	2436	48.74	-6.51839E-002	2.52446E-005	0.00000E+000	-6.40000E-002	-1.29594E-003	10	..........a	-327.74
	2443	48.88	-5.82194E-002	2.48937E-005	0.00000E+000	-5.70000E-002	-1.32677E-003	10	..........a	-327.74
	2450	49.02	-5.11614E-002	2.45386E-005	0.00000E+000	-5.00000E-002	-1.29844E-003	10	..........a	-327.74
	2457	49.16	-4.42269E-002	2.45136E-005	0.00000E+000	-4.30000E-002	-1.33094E-003	10	..........a	-327.74
	2464	49.3	-3.71744E-002	2.42253E-005	0.00000E+000	-3.60000E-002	-1.29761E-003	10	..........a	-327.74
	2471	49.44	-3.02694E-002	2.41334E-005	0.00000E+000	-2.90000E-002	-1.36927E-003	10	..........a	-327.74
	2478	49.58	-2.32202E-002	2.40582E-005	0.00000E+000	-2.20000E-002	-1.34844E-003	10	..........a	-327.74
	2485	49.72	-1.62323E-002	2.41209E-005	0.00000E+000	-1.50000E-002	-1.29677E-003	10	..........a	-327.74
	2492	49.86	-9.24852E-003	2.41961E-005	0.00000E+000	-8.00000E-003	-1.34427E-003	10	..........a	-327.74
	2499	50	-2.18227E-003	2.42044E-005	0.00000E+000	-1.00000E-003	-1.33427E-003	10	..........a	-327.74
	2506	50.14	4.79606E-003	2.41084E-005	0.00000E+000	5.99998E-003	-1.31511E-003	10	..........a	-327.74
	2513	50.28	1.17636E-002	2.40457E-005	0.00000E+000	1.30000E-002	-1.32511E-003	10	..........a	-327.74
	2520	50.42	1.88327E-002	2.40833E-005	0.00000E+000	2.00000E-002	-1.29511E-003	10	..........a	-327.74
	2527	50.56	2.57331E-002	2.40708E-005	0.00000E+000	2.70000E-002	-1.33094E-003	10	..........a	-327.74
	2534	50.7	3.28002E-002	2.39329E-005	0.00000E+000	3.40000E-002	-1.29261E-003	10	..........a	-327.74
	2541	50.84	3.98169E-002	2.41251E-005	0.00000E+000	4.10000E-002	-1.35927E-003	10	..........a	-327.74
	2548	50.98	4.67852E-002	2.41084E-005	0.00000E+000	4.80000E-002	-1.33927E-003	10	..........a	-327.74
	2555	51.12	5.37911E-002	2.41376E-005	0.00000E+000	5.50000E-002	-1.31427E-003	10	..........a	-327.74
	2562	51.26	6.07531E-002	2.38034E-005	0.00000E+000	6.20000E-002	-1.34844E-003	10	..........a	-327.74
	2569	51.4	6.77548E-002	2.38786E-005	0.00000E+000	6.90000E-002	-1.31677E-003	10	..........a	-327.74
	2576	51.54	7.47823E-002	2.36822E-005	0.00000E+000	7.60000E-002	-1.34261E-003	10	..........a	-327.74
	2583	51.68	8.17115E-002	2.33230E-005	0.00000E+000	8.30000E-002	-1.33094E-003	10	..........a	-327.74
	2590	51.82	8.87594E-002	2.30723E-005	0.00000E+000	9.00000E-002	-1.35761E-003	10	..........a	-327.74
	2597	51.96	9.57206E-002	2.26922E-005	0.00000E+000	9.70000E-002	-1.33927E-003	10	..........a	-327.74
	2604	52.1	1.02714E-001	2.23287E-005	0.00000E+000	1.04000E-001	-1.27677E-003	10	..........a	-327.74
	2611	52.24	1.09738E-001	2.18442E-005	0.00000E+000	1.11000E-001	-1.31177E-003	10	..........a	-327.74
	2618	52.38	1.16638E-001	2.15852E-005	0.00000E+000	1.18000E-001	-1.31344E-003	10	..........a	-327.74
	2625	52.52	1.23687E-001	2.11758E-005	0.00000E+000	1.25000E-001	-1.31094E-003	10	..........a	-327.74
	2632	52.66	1.30726E-001	2.07580E-005	0.00000E+000	1.32000E-001	-1.30427E-003	10	..........a	-327.74
	2639	52.8	1.37714E-001	2.05241E-005	0.00000E+000	1.39000E-001	-1.29011E-003	10	..........a	-327.74
	2646	52.94	1.44624E-001	1.99894E-005	0.00000E+000	1.46000E-001	-1.29594E-003	10	..........a	-327.74
	2653	53.08	1.51689E-001	1.98933E-005	0.00000E+000	1.53000E-001	-1.32677E-003	10	..........a	-327.74
	2660	53.22	1.58705E-001	1.92499E-005	0.00000E+000	1.60000E-001	-1.30261E-003	10	..........a	-327.74
	2667	53.36	1.65739E-001	1.91288E-005	0.00000E+000	1.67000E-001	-1.31427E-003	10	..........a	-327.74
	2674	53.5	1.72699E-001	1.89074E-005	0.00000E+000	1.74000E-001	-1.27511E-003	10	..........a	-327.74
	2681	53.64	1.79714E-001	1.84771E-005	0.00000E+000	1.81000E-001	-1.27677E-003	10	..........a	-327.74
	2688	53.78	1.86773E-001	1.83518E-005	0.00000E+000	1.88000E-001	-1.26677E-003	10	..........a	-327.74
	2695	53.92	1.93685E-001	1.81011E-005	0.00000E+000	1.95000E-001	-1.26261E-003	10	..........a	-327.74
	2702	54.06	2.00765E-001	1.78505E-005	0.00000E+000	2.02000E-001	-1.29261E-003	10	..........a	-327.74
	2709	54.2	2.07705E-001	1.76207E-005	0.00000E+000	2.09000E-001	-1.26677E-003	10	..........a	-327.74
	2716	54.34	2.14685E-001	1.74620E-005	0.00000E+000	2.16000E-001	-1.29427E-003	10	..........a	-327.74
	2723	54.48	2.21819E-001	1.69983E-005	0.00000E+000	2.23000E-001	-1.29177E-003	10	..........a	-327.74
	2730	54.62	2.28736E-001	1.70735E-005	0.00000E+000	2.30000E-001	-1.25761E-003	10	..........a	-327.74
	2737	54.76	2.35680E-001	1.67936E-005	0.00000E+000	2.37000E-001	-1.27761E-003	10	..........a	-327.74
	2744	54.9	2.42722E-001	1.66181E-005	0.00000E+000	2.44000E-001	-1.27927E-003	10	..........a	-327.74
	2751	55.04	2.49684E-001	1.63006E-005	0.00000E+000	2.51000E-001	-1.28094E-003	10	..........a	-327.74
	2758	55.18	2.56698E-001	1.64636E-005	0.00000E+000	2.58000E-001	-1.32427E-003	10	..........a	-327.74
	2765	55.32	2.63682E-001	1.62380E-005	0.00000E+000	2.65000E-001	-1.31261E-003	10	..........a	-327.74
	2772	55.46	2.70655E-001	1.62422E-005	0.00000E+000	2.72000E-001	-1.31511E-003	10	..........a	-327.74
	2779	55.6	2.77748E-001	1.62463E-005	0.00000E+000	2.79000E-001	-1.30594E-003	10	..........a	-327.74
	2786	55.74	2.84651E-001	1.62213E-005	0.00000E+000	2.86000E-001	-1.32344E-003	10	..........a	-327.74
	2793	55.88	2.91675E-001	1.61210E-005	0.00000E+000	2.93000E-001	-1.28344E-003	10	..........a	-327.74
	2800	56.02	2.98701E-001	1.60208E-005	0.00000E+000	3.00000E-001	-1.31761E-003	10	..........a	-327.74
	2807	56.16	3.05679E-001	1.59372E-005	0.00000E+000	3.07000E-001	-1.35594E-003	10	..........a	-327.74
	2814	56.3	3.12648E-001	1.59873E-005	0.00000E+000	3.14000E-001	-1.32094E-003	10	..........a	-327.74
	2821	56.44	3.19650E-001	1.58202E-005	0.00000E+000	3.21000E-001	-1.35177E-003	10	..........a	-327.74
	2828	56.58	3.26655E-001	1.56490E-005	0.00000E+000	3.28000E-001	-1.30761E-003	10	..........a	-327.74
	2835	56.72	3.33668E-001	1.55863E-005	0.00000E+000	3.35000E-001	-1.31261E-003	10	..........a	-327.74
	2842	56.86	3.40634E-001	1.56448E-005	0.00000E+000	3.42000E-001	-1.34177E-003	10	..........a	-327.74
	2849	57	3.47664E-001	1.53941E-005	0.00000E+000	3.49000E-001	-1.33011E-003	10	..........a	-327.74
	2856	57.14	3.54703E-001	1.53941E-005	0.00000E+000	3.56000E-001	-1.30844E-003	10	..........a	-327.74
	2863	57.28	3.61655E-001	1.52605E-005	0.00000E+000	3.63000E-001	-1.26094E-003	10	..........a	-327.74
	2870	57.42	3.68654E-001	1.50182E-005	0.00000E+000	3.70000E-001	-1.26344E-003	10	..........a	-327.74
	2877	57.56	3.75643E-001	1.48385E-005	0.00000E+000	3.77000E-001	-1.30427E-003	10	..........a	-327.74
	2884	57.7	3.82655E-001	1.45754E-005	0.00000E+000	3.84000E-001	-1.26177E-003	10	..........a	-327.74
	2891	57.84	3.89646E-001	1.44166E-005	0.00000E+000	3.91000E-001	-1.26427E-003	10	..........a	-327.74
	2898	57.98	3.96634E-001	1.39195E-005	0.00000E+000	3.98000E-001	-1.25511E-003	10	..........a	-327.74
	2905	58.12	4.03666E-001	1.41618E-005	0.00000E+000	4.05000E-001	-1.25761E-003	10	..........a	-327.74
	2912	58.26	4.10702E-001	1.39529E-005	0.00000E+000	4.12000E-001	-1.28677E-003	10	..........a	-327.74
	2919	58.4	4.17646E-001	1.40156E-005	0.00000E+000	4.19000E-001	-1.26511E-003	10	..........a	-327.74
	2926	58.54	4.24534E-001	1.39613E-005	0.00000E+000	4.26000E-001	-1.28094E-003	10	..........a	-327.74
	2933	58.68	4.31662E-001	1.35352E-005	0.00000E+000	4.33000E-001	-1.24511E-003	10	..........a	-327.74
	2940	58.82	4.38633E-001	1.34683E-005	0.00000E+000	4.40000E-001	-1.23594E-003	10	..........a	-327.74
	2947	58.96	4.45640E-001	1.29712E-005	0.00000E+000	4.47000E-001	-1.23511E-003	10	..........a	-327.74
	2954	59.1	4.52550E-001	1.28083E-005	0.00000E+000	4.54000E-001	-1.26427E-003	10	..........a	-327.74
	2961	59.24	4.59654E-001	1.29378E-005	0.00000E+000	4.61000E-001	-1.27094E-003	10	..........a	-327.74
	2968	59.38	4.66636E-001	1.28501E-005	0.00000E+000	4.68000E-001	-1.26927E-003	10	..........a	-327.74
	2975	59.52	4.73635E-001	1.27707E-005	0.00000E+000	4.75000E-001	-1.24344E-003	10	..........a	-327.74
	2982	59.66	4.80510E-001	1.28793E-005	0.00000E+000	4.82000E-001	-1.28677E-003	10	..........a	-327.74
	2989	59.8	4.87614E-001	1.26913E-005	0.00000E+000	4.89000E-001	-1.26677E-003	10	..........a	-327.74
	2996	59.94	4.94579E-001	1.25284E-005	0.00000E+000	4.96000E-001	-1.29844E-003	10	..........a	-327.74
	3000	60.02	4.98585E-001	1.24323E-005	0.00000E+000	5.00000E-001	-1.30094E-003	10	..........a	-327.74
CURVE2	TABLE
	Pt	T	Vf	Im	Vu	Sig	Ach	IERange	Over	Temp
	#	s	V vs. Ref.	A	V	V	V	#	bits	deg C
	3001	60.04	4.98599E-001	1.23488E-005	0.00000E+000	5.00000E-001	-1.31761E-003	10	..........a	-327.74