File: data/02-SI/Figures_S9_S11_RDE/14btmapaq-rde/1mkcl-5mmolar14btmapaq-nitrogen-6000mvpers.DTA
EXPLAIN
TAG	CV
TITLE	LABEL	Cyclic Voltammetry	Test &Identifier
DATE	LABEL	1/31/2023	Date
TIME	LABEL	14:06:01	Time
NOTES	NOTES	1	&Notes...

PSTAT	PSTAT	REF3000-21108	Potentiostat
VINIT	POTEN	5.00000E-001	F	Initial &E (V)
VLIMIT1	POTEN	-1.00000E+000	F	Scan Limit &1 (V)
VLIMIT2	POTEN	5.00000E-001	F	Scan Limit &2 (V)
VFINAL	POTEN	5.00000E-001	F	Final &E (V)
SCANRATE	QUANT	5.99999E+003	&Scan Rate (mV/s)
STEPSIZE	QUANT	1.00000E+000	St&ep Size (mV)
CYCLES	IQUANT	1	C&ycles (#)
IMODE	SELECTOR	1	I/E Range &Mode
IRANGE	QUANT	1.00000E+001	&Max Current (mA)
AREA	QUANT	1.00000E+000	Electrode &Area (cm^2)
ELECTRODETYPE	SELECTOR	0	Electrode Type
STRIPPING	TOGGLE	F	Used for Stripping
POLARITY	TOGGLE	F	Signal Polarity
CONDIT	TWOPARAM	F	1.50000E+001	0.00000E+000	Conditionin&g	Time(s)	E(V)
DELAY	TWOPARAM	F	5.00000E+000	0.00000E+000	Init. De&lay	Time(s)	Stab.(mV/s)
EQDELAY	QUANT	0.00000E+000	Equil. &Time (s)
IRCOMP	SELECTOR	0	IRCom&p
PFCOR	QUANT	5.00000E+001	PF Corr. (ohm)
SAMPLINGMODE	SELECTOR	1	Sampling &Mode
EOC	QUANT	0	Open Circuit (V)
PSTATMODEL	IQUANT	5	Pstat Model
PSTATSECTION	LABEL	REF3000-21108	Pstat Section
PSTATSERIALNO	LABEL	21108	Pstat Serial Number
CTRLMODE	IQUANT	1	Control Mode
ELECTROMETER	IQUANT	0	RE=0 or CS=1
IESTAB	IQUANT	2	I/E Stability
CASPEED	IQUANT	4	Control Amp Speed
CONVENTION	IQUANT	1	Current Convention
ICHRANGE	IQUANT	2	Ich Range
ICHRANGEMODE	TOGGLE	F	Ich Auto Range
ICHOFFSETENABLE	TOGGLE	F	Ich Offset Enable
ICHOFFSET	QUANT	0	Ich Offset (V)
ICHFILTER	IQUANT	1	Ich Filter
VCHRANGE	IQUANT	2	Vch Range
VCHRANGEMODE	TOGGLE	F	Vch Auto Range
VCHOFFSETENABLE	TOGGLE	F	Vch Offset Enable
VCHOFFSET	QUANT	0	Vch Offset (V)
VCHFILTER	IQUANT	1	Vch Filter
ACHRANGE	IQUANT	2	Ach Range
ACHOFFSETENABLE	TOGGLE	F	Ach Offset Enable
ACHOFFSET	QUANT	0	Ach Offset (V)
ACHFILTER	IQUANT	0	Ach Filter
IERANGELOWERLIMIT	IQUANT	2	I/E Range Lower Limit
IERANGEMODE	TOGGLE	F	I/E AutoRange
IERANGE	IQUANT	10	I/E Range
POSFEEDENABLE	TOGGLE	F	Positive Feedback IR Comp
POSFEEDRESISTANCE	QUANT	0	Positive Feedback Resistance (ohm)
ACHSELECT	IQUANT	0	Ach Select
SENSECABLEID	IQUANT	14	Sense Cable ID
PWRCABLEID	IQUANT	7	Power Cable ID
DCCALDATE	LABEL	11/9/2022	DC Calibration Date
ACCALDATE	LABEL	11/9/2022	AC Calibration Date
THERMOSELECT	IQUANT	1	Thermo Select
FRAMEWORKVERSION	LABEL	7.8.2	Framework Version
INSTRUMENTVERSION	LABEL	4.40	Instrument Version
COMPLIANCEVOLTAGE	IQUANT	0	Compliance Voltage
CURVE1	TABLE
	Pt	T	Vf	Im	Vu	Sig	Ach	IERange	Over	Temp
	#	s	V vs. Ref.	A	V	V	V	#	bits	deg C
	0	0.000167	4.98691E-001	3.66432E-005	0.00000E+000	5.00000E-001	-8.29272E-004	10	..........a	-327.74
	7	0.001333	4.91591E-001	-5.00812E-005	0.00000E+000	4.93000E-001	-8.29272E-004	10	..........a	-327.74
	14	0.0025	4.84741E-001	-6.06084E-005	0.00000E+000	4.86000E-001	-7.29272E-004	10	..........a	-327.74
	21	0.003667	4.77591E-001	-6.86292E-005	0.00000E+000	4.79000E-001	-8.29272E-004	10	..........a	-327.74
	28	0.004833	4.70691E-001	-6.91305E-005	0.00000E+000	4.72000E-001	-8.29272E-004	10	..........a	-327.74
	35	0.006	4.63791E-001	-7.51461E-005	0.00000E+000	4.65000E-001	-6.29272E-004	10	..........a	-327.74
	42	0.007167	4.56491E-001	-7.96577E-005	0.00000E+000	4.58000E-001	-7.29272E-004	10	..........a	-327.74
	49	0.008333	4.49641E-001	-8.06603E-005	0.00000E+000	4.51000E-001	-7.29272E-004	10	..........a	-327.74
	56	0.0095	4.42641E-001	-8.31668E-005	0.00000E+000	4.44000E-001	-8.29272E-004	10	..........a	-327.74
	63	0.010667	4.35691E-001	-8.61746E-005	0.00000E+000	4.37000E-001	-8.29272E-004	10	..........a	-327.74
	70	0.011833	4.28641E-001	-8.81798E-005	0.00000E+000	4.30000E-001	-7.29272E-004	10	..........a	-327.74
	77	0.013	4.21741E-001	-8.81798E-005	0.00000E+000	4.23000E-001	-7.29272E-004	10	..........a	-327.74
	84	0.014167	4.14841E-001	-9.01850E-005	0.00000E+000	4.16000E-001	-9.29272E-004	10	..........a	-327.74
	91	0.015333	4.07841E-001	-9.01850E-005	0.00000E+000	4.09000E-001	-7.29272E-004	10	..........a	-327.74
	98	0.0165	4.00741E-001	-9.16889E-005	0.00000E+000	4.02000E-001	-9.29272E-004	10	..........a	-327.74
	105	0.017667	3.93891E-001	-9.72031E-005	0.00000E+000	3.95000E-001	-7.29272E-004	10	..........a	-327.74
	112	0.018833	3.86741E-001	-9.62005E-005	0.00000E+000	3.88000E-001	-9.29272E-004	10	..........a	-327.74
	119	0.02	3.79791E-001	-9.72031E-005	0.00000E+000	3.81000E-001	-6.29272E-004	10	..........a	-327.74
	126	0.021167	3.72791E-001	-1.01715E-004	0.00000E+000	3.74000E-001	-8.29272E-004	10	..........a	-327.74
	133	0.022333	3.65791E-001	-9.92083E-005	0.00000E+000	3.67000E-001	-7.29272E-004	10	..........a	-327.74
	140	0.0235	3.58691E-001	-1.02216E-004	0.00000E+000	3.60000E-001	-8.29272E-004	10	..........a	-327.74
	147	0.024667	3.51741E-001	-1.02717E-004	0.00000E+000	3.53000E-001	-8.29272E-004	10	..........a	-327.74
	154	0.025833	3.44741E-001	-1.02216E-004	0.00000E+000	3.46000E-001	-7.29272E-004	10	..........a	-327.74
	161	0.027	3.37891E-001	-1.04221E-004	0.00000E+000	3.39000E-001	-7.29272E-004	10	..........a	-327.74
	168	0.028167	3.30691E-001	-1.11239E-004	0.00000E+000	3.32000E-001	-5.29272E-004	10	..........a	-327.74
	175	0.029333	3.23641E-001	-1.10738E-004	0.00000E+000	3.25000E-001	-7.29272E-004	10	..........a	-327.74
	182	0.0305	3.16791E-001	-1.12743E-004	0.00000E+000	3.18000E-001	-8.29272E-004	10	..........a	-327.74
	189	0.031667	3.09791E-001	-1.12743E-004	0.00000E+000	3.11000E-001	-8.29272E-004	10	..........a	-327.74
	196	0.032833	3.02741E-001	-1.17255E-004	0.00000E+000	3.04000E-001	-6.29272E-004	10	..........a	-327.74
	203	0.034	2.95791E-001	-1.19260E-004	0.00000E+000	2.97000E-001	-8.29272E-004	10	..........a	-327.74
	210	0.035167	2.88791E-001	-1.18759E-004	0.00000E+000	2.90000E-001	-8.29272E-004	10	..........a	-327.74
	217	0.036333	2.81641E-001	-1.20764E-004	0.00000E+000	2.83000E-001	-8.29272E-004	10	..........a	-327.74
	224	0.0375	2.74791E-001	-1.22769E-004	0.00000E+000	2.76000E-001	-7.29272E-004	10	..........a	-327.74
	231	0.038667	2.67791E-001	-1.23772E-004	0.00000E+000	2.69000E-001	-7.29272E-004	10	..........a	-327.74
	238	0.039833	2.60691E-001	-1.32294E-004	0.00000E+000	2.62000E-001	-8.29272E-004	10	..........a	-327.74
	245	0.041	2.53791E-001	-1.27782E-004	0.00000E+000	2.55000E-001	-8.29272E-004	10	..........a	-327.74
	252	0.042167	2.46841E-001	-1.27782E-004	0.00000E+000	2.48000E-001	-9.29272E-004	10	..........a	-327.74
	259	0.043333	2.39691E-001	-1.32795E-004	0.00000E+000	2.41000E-001	-8.29272E-004	10	..........a	-327.74
	266	0.0445	2.32841E-001	-1.33297E-004	0.00000E+000	2.34000E-001	-8.29272E-004	10	..........a	-327.74
	273	0.045667	2.25791E-001	-1.32294E-004	0.00000E+000	2.27000E-001	-7.29272E-004	10	..........a	-327.74
	280	0.046833	2.18791E-001	-1.34299E-004	0.00000E+000	2.20000E-001	-8.29272E-004	10	..........a	-327.74
	287	0.048	2.11841E-001	-1.37307E-004	0.00000E+000	2.13000E-001	-7.29272E-004	10	..........a	-327.74
	294	0.049167	2.04841E-001	-1.38811E-004	0.00000E+000	2.06000E-001	-9.29272E-004	10	..........a	-327.74
	301	0.050333	1.97841E-001	-1.38811E-004	0.00000E+000	1.99000E-001	-8.29272E-004	10	..........a	-327.74
	308	0.0515	1.90791E-001	-1.43824E-004	0.00000E+000	1.92000E-001	-7.29272E-004	10	..........a	-327.74
	315	0.052667	1.83691E-001	-1.43322E-004	0.00000E+000	1.85000E-001	-9.29272E-004	10	..........a	-327.74
	322	0.053833	1.76891E-001	-1.39312E-004	0.00000E+000	1.78000E-001	-8.29272E-004	10	..........a	-327.74
	329	0.055	1.69591E-001	-1.42320E-004	0.00000E+000	1.71000E-001	-8.29272E-004	10	..........a	-327.74
	336	0.056167	1.62841E-001	-1.40816E-004	0.00000E+000	1.64000E-001	-6.29272E-004	10	..........a	-327.74
	343	0.057333	1.55741E-001	-1.45328E-004	0.00000E+000	1.57000E-001	-7.29272E-004	10	..........a	-327.74
	350	0.0585	1.48791E-001	-1.44325E-004	0.00000E+000	1.50000E-001	-6.29272E-004	10	..........a	-327.74
	357	0.059667	1.41841E-001	-1.47333E-004	0.00000E+000	1.43000E-001	-6.29272E-004	10	..........a	-327.74
	364	0.060833	1.34691E-001	-1.51343E-004	0.00000E+000	1.36000E-001	-9.29272E-004	10	..........a	-327.74
	371	0.062	1.27991E-001	-1.43824E-004	0.00000E+000	1.29000E-001	-6.29272E-004	10	..........a	-327.74
	378	0.063167	1.20991E-001	-1.47834E-004	0.00000E+000	1.22000E-001	-9.29272E-004	10	..........a	-327.74
	385	0.064333	1.13891E-001	-1.47333E-004	0.00000E+000	1.15000E-001	-6.29272E-004	10	..........a	-327.74
	392	0.0655	1.06891E-001	-1.50341E-004	0.00000E+000	1.08000E-001	-7.29272E-004	10	..........a	-327.74
	399	0.066667	9.97410E-002	-1.49839E-004	0.00000E+000	1.01000E-001	-8.29272E-004	10	..........a	-327.74
	406	0.067833	9.28410E-002	-1.49839E-004	0.00000E+000	9.40000E-002	-8.29272E-004	10	..........a	-327.74
	413	0.069	8.57910E-002	-1.54852E-004	0.00000E+000	8.70000E-002	-8.29272E-004	10	..........a	-327.74
	420	0.070167	7.88910E-002	-1.53348E-004	0.00000E+000	8.00000E-002	-9.29272E-004	10	..........a	-327.74
	427	0.071333	7.17410E-002	-1.49839E-004	0.00000E+000	7.30000E-002	-8.29272E-004	10	..........a	-327.74
	434	0.0725	6.48910E-002	-1.52346E-004	0.00000E+000	6.60000E-002	-7.29272E-004	10	..........a	-327.74
	441	0.073667	5.77410E-002	-1.49839E-004	0.00000E+000	5.90000E-002	-8.29272E-004	10	..........a	-327.74
	448	0.074833	5.08410E-002	-1.50842E-004	0.00000E+000	5.20000E-002	-8.29272E-004	10	..........a	-327.74
	455	0.076	4.38410E-002	-1.54852E-004	0.00000E+000	4.50000E-002	-8.29272E-004	10	..........a	-327.74
	462	0.077167	3.68410E-002	-1.51845E-004	0.00000E+000	3.80000E-002	-7.29272E-004	10	..........a	-327.74
	469	0.078333	2.97910E-002	-1.54852E-004	0.00000E+000	3.10000E-002	-7.29272E-004	10	..........a	-327.74
	476	0.0795	2.27910E-002	-1.53348E-004	0.00000E+000	2.40000E-002	-7.29272E-004	10	..........a	-327.74
	483	0.080667	1.57910E-002	-1.52346E-004	0.00000E+000	1.70000E-002	-7.29272E-004	10	..........a	-327.74
	490	0.081833	8.89100E-003	-1.52346E-004	0.00000E+000	9.99999E-003	-9.29272E-004	10	..........a	-327.74
	497	0.083	2.04100E-003	-1.55354E-004	0.00000E+000	2.99999E-003	-8.29272E-004	10	..........a	-327.74
	504	0.084167	-5.10900E-003	-1.54351E-004	0.00000E+000	-4.00001E-003	-9.29272E-004	10	..........a	-327.74
	511	0.085333	-1.23590E-002	-1.54852E-004	0.00000E+000	-1.10000E-002	-8.29272E-004	10	..........a	-327.74
	518	0.0865	-1.91090E-002	-1.54351E-004	0.00000E+000	-1.80000E-002	-8.29272E-004	10	..........a	-327.74
	525	0.087667	-2.61590E-002	-1.54351E-004	0.00000E+000	-2.50000E-002	-8.29272E-004	10	..........a	-327.74
	532	0.088833	-3.31090E-002	-1.53850E-004	0.00000E+000	-3.20000E-002	-7.29272E-004	10	..........a	-327.74
	539	0.09	-4.00090E-002	-1.52346E-004	0.00000E+000	-3.90000E-002	-6.29272E-004	10	..........a	-327.74
	546	0.091167	-4.70090E-002	-1.51845E-004	0.00000E+000	-4.60000E-002	-7.29272E-004	10	..........a	-327.74
	553	0.092333	-5.42090E-002	-1.50341E-004	0.00000E+000	-5.30000E-002	-8.29272E-004	10	..........a	-327.74
	560	0.0935	-6.10090E-002	-1.51845E-004	0.00000E+000	-6.00000E-002	-8.29272E-004	10	..........a	-327.74
	567	0.094667	-6.82590E-002	-1.54852E-004	0.00000E+000	-6.70000E-002	-9.29272E-004	10	..........a	-327.74
	574	0.095833	-7.51590E-002	-1.53348E-004	0.00000E+000	-7.40000E-002	-7.29272E-004	10	..........a	-327.74
	581	0.097	-8.19590E-002	-1.56857E-004	0.00000E+000	-8.10000E-002	-7.29272E-004	10	..........a	-327.74
	588	0.098167	-8.90090E-002	-1.45328E-004	0.00000E+000	-8.80000E-002	-7.29272E-004	10	..........a	-327.74
	595	0.099333	-9.60090E-002	-1.48837E-004	0.00000E+000	-9.50000E-002	-7.29272E-004	10	..........a	-327.74
	602	0.1005	-1.03059E-001	-1.49839E-004	0.00000E+000	-1.02000E-001	-7.29272E-004	10	..........a	-327.74
	609	0.101667	-1.09959E-001	-1.49839E-004	0.00000E+000	-1.09000E-001	-8.29272E-004	10	..........a	-327.74
	616	0.102833	-1.17109E-001	-1.50341E-004	0.00000E+000	-1.16000E-001	-8.29272E-004	10	..........a	-327.74
	623	0.104	-1.24009E-001	-1.45328E-004	0.00000E+000	-1.23000E-001	-6.29272E-004	10	..........a	-327.74
	630	0.105167	-1.31159E-001	-1.50341E-004	0.00000E+000	-1.30000E-001	-7.29272E-004	10	..........a	-327.74
	637	0.106333	-1.38159E-001	-1.46832E-004	0.00000E+000	-1.37000E-001	-9.29272E-004	10	..........a	-327.74
	644	0.1075	-1.45109E-001	-1.45328E-004	0.00000E+000	-1.44000E-001	-8.29272E-004	10	..........a	-327.74
	651	0.108667	-1.52159E-001	-1.46330E-004	0.00000E+000	-1.51000E-001	-7.29272E-004	10	..........a	-327.74
	658	0.109833	-1.59059E-001	-1.48335E-004	0.00000E+000	-1.58000E-001	-6.29272E-004	10	..........a	-327.74
	665	0.111	-1.66059E-001	-1.47834E-004	0.00000E+000	-1.65000E-001	-8.29272E-004	10	..........a	-327.74
	672	0.112167	-1.73059E-001	-1.47333E-004	0.00000E+000	-1.72000E-001	-8.29272E-004	10	..........a	-327.74
	679	0.113333	-1.80009E-001	-1.50842E-004	0.00000E+000	-1.79000E-001	-7.29272E-004	10	..........a	-327.74
	686	0.1145	-1.87159E-001	-1.47834E-004	0.00000E+000	-1.86000E-001	-7.29272E-004	10	..........a	-327.74
	693	0.115667	-1.94009E-001	-1.46330E-004	0.00000E+000	-1.93000E-001	-8.29272E-004	10	..........a	-327.74
	700	0.116833	-2.01109E-001	-1.48837E-004	0.00000E+000	-2.00000E-001	-8.29272E-004	10	..........a	-327.74
	707	0.118	-2.08159E-001	-1.47333E-004	0.00000E+000	-2.07000E-001	-8.29272E-004	10	..........a	-327.74
	714	0.119167	-2.15059E-001	-1.46330E-004	0.00000E+000	-2.14000E-001	-7.29272E-004	10	..........a	-327.74
	721	0.120333	-2.22009E-001	-1.46330E-004	0.00000E+000	-2.21000E-001	-7.29272E-004	10	..........a	-327.74
	728	0.1215	-2.28909E-001	-1.44826E-004	0.00000E+000	-2.28000E-001	-7.29272E-004	10	..........a	-327.74
	735	0.122667	-2.35909E-001	-1.48335E-004	0.00000E+000	-2.35000E-001	-7.29272E-004	10	..........a	-327.74
	742	0.123833	-2.43009E-001	-1.49338E-004	0.00000E+000	-2.42000E-001	-8.29272E-004	10	..........a	-327.74
	749	0.125	-2.50109E-001	-1.49839E-004	0.00000E+000	-2.49000E-001	-7.29272E-004	10	..........a	-327.74
	756	0.126167	-2.57009E-001	-1.54852E-004	0.00000E+000	-2.56000E-001	-8.29272E-004	10	..........a	-327.74
	763	0.127333	-2.64009E-001	-1.50341E-004	0.00000E+000	-2.63000E-001	-7.29272E-004	10	..........a	-327.74
	770	0.1285	-2.71009E-001	-1.53348E-004	0.00000E+000	-2.70000E-001	-7.29272E-004	10	..........a	-327.74
	777	0.129667	-2.77959E-001	-1.55354E-004	0.00000E+000	-2.77000E-001	-8.29272E-004	10	..........a	-327.74
	784	0.130833	-2.84959E-001	-1.55855E-004	0.00000E+000	-2.84000E-001	-7.29272E-004	10	..........a	-327.74
	791	0.132	-2.91959E-001	-1.53850E-004	0.00000E+000	-2.91000E-001	-8.29272E-004	10	..........a	-327.74
	798	0.133167	-2.99009E-001	-1.62372E-004	0.00000E+000	-2.98000E-001	-8.29272E-004	10	..........a	-327.74
	805	0.134333	-3.06009E-001	-1.60367E-004	0.00000E+000	-3.05000E-001	-9.29272E-004	10	..........a	-327.74
	812	0.1355	-3.13109E-001	-1.64878E-004	0.00000E+000	-3.12000E-001	-8.29272E-004	10	..........a	-327.74
	819	0.136667	-3.19959E-001	-1.65881E-004	0.00000E+000	-3.19000E-001	-8.29272E-004	10	..........a	-327.74
	826	0.137833	-3.26909E-001	-1.66382E-004	0.00000E+000	-3.26000E-001	-8.29272E-004	10	..........a	-327.74
	833	0.139	-3.34059E-001	-1.76408E-004	0.00000E+000	-3.33000E-001	-7.29272E-004	10	..........a	-327.74
	840	0.140167	-3.41109E-001	-1.77912E-004	0.00000E+000	-3.40000E-001	-6.29272E-004	10	..........a	-327.74
	847	0.141333	-3.48009E-001	-1.78915E-004	0.00000E+000	-3.47000E-001	-7.29272E-004	10	..........a	-327.74
	854	0.1425	-3.54959E-001	-1.87938E-004	0.00000E+000	-3.54000E-001	-8.29272E-004	10	..........a	-327.74
	861	0.143667	-3.62009E-001	-1.93953E-004	0.00000E+000	-3.61000E-001	-6.29272E-004	10	..........a	-327.74
	868	0.144833	-3.68909E-001	-1.96961E-004	0.00000E+000	-3.68000E-001	-9.29272E-004	10	..........a	-327.74
	875	0.146	-3.76109E-001	-2.09494E-004	0.00000E+000	-3.75000E-001	-6.29272E-004	10	..........a	-327.74
	882	0.147167	-3.82909E-001	-2.17514E-004	0.00000E+000	-3.82000E-001	-8.29272E-004	10	..........a	-327.74
	889	0.148333	-3.89959E-001	-2.21525E-004	0.00000E+000	-3.89000E-001	-7.29272E-004	10	..........a	-327.74
	896	0.1495	-3.97059E-001	-2.37065E-004	0.00000E+000	-3.96000E-001	-7.29272E-004	10	..........a	-327.74
	903	0.150667	-4.03859E-001	-2.49096E-004	0.00000E+000	-4.03000E-001	-7.29272E-004	10	..........a	-327.74
	910	0.151833	-4.10859E-001	-2.65138E-004	0.00000E+000	-4.10000E-001	-7.29272E-004	10	..........a	-327.74
	917	0.153	-4.17959E-001	-2.79675E-004	0.00000E+000	-4.17000E-001	-6.29272E-004	10	..........a	-327.74
	924	0.154167	-4.24809E-001	-3.04239E-004	0.00000E+000	-4.24000E-001	-9.29272E-004	10	..........a	-327.74
	931	0.155333	-4.31909E-001	-3.30306E-004	0.00000E+000	-4.31000E-001	-8.29272E-004	10	..........a	-327.74
	938	0.1565	-4.38959E-001	-3.66400E-004	0.00000E+000	-4.38000E-001	-9.29272E-004	10	..........a	-327.74
	945	0.157667	-4.45959E-001	-3.99485E-004	0.00000E+000	-4.45000E-001	-9.29272E-004	10	..........a	-327.74
	952	0.158833	-4.52859E-001	-4.52121E-004	0.00000E+000	-4.52000E-001	-5.29272E-004	10	..........a	-327.74
	959	0.16	-4.60009E-001	-5.05760E-004	0.00000E+000	-4.59000E-001	-7.29272E-004	10	..........a	-327.74
	966	0.161167	-4.66959E-001	-5.66918E-004	0.00000E+000	-4.66000E-001	-6.29272E-004	10	..........a	-327.74
	973	0.162333	-4.74009E-001	-6.31586E-004	0.00000E+000	-4.73000E-001	-6.29272E-004	10	..........a	-327.74
	980	0.1635	-4.80809E-001	-7.00765E-004	0.00000E+000	-4.80000E-001	-7.29272E-004	10	..........a	-327.74
	987	0.164667	-4.87959E-001	-7.76461E-004	0.00000E+000	-4.87000E-001	-6.29272E-004	10	..........a	-327.74
	994	0.165833	-4.94859E-001	-8.58172E-004	0.00000E+000	-4.94000E-001	-6.29272E-004	10	..........a	-327.74
	1001	0.167	-5.02009E-001	-9.44896E-004	0.00000E+000	-5.01000E-001	-8.29272E-004	10	..........a	-327.74
	1008	0.168167	-5.09009E-001	-1.03262E-003	0.00000E+000	-5.08000E-001	-9.29272E-004	10	..........a	-327.74
	1015	0.169333	-5.15859E-001	-1.12536E-003	0.00000E+000	-5.15000E-001	-5.29272E-004	10	..........a	-327.74
	1022	0.1705	-5.23159E-001	-1.23114E-003	0.00000E+000	-5.22000E-001	-9.29272E-004	10	..........a	-327.74
	1029	0.171667	-5.29959E-001	-1.34794E-003	0.00000E+000	-5.29000E-001	-8.29272E-004	10	..........a	-327.74
	1036	0.172833	-5.36859E-001	-1.47226E-003	0.00000E+000	-5.36000E-001	-7.29272E-004	10	..........a	-327.74
	1043	0.174	-5.43909E-001	-1.60611E-003	0.00000E+000	-5.43000E-001	-7.29272E-004	10	..........a	-327.74
	1050	0.175167	-5.50809E-001	-1.75048E-003	0.00000E+000	-5.50000E-001	-7.29272E-004	10	..........a	-327.74
	1057	0.176333	-5.57959E-001	-1.90689E-003	0.00000E+000	-5.57000E-001	-7.29272E-004	10	..........a	-327.74
	1064	0.1775	-5.64859E-001	-2.06580E-003	0.00000E+000	-5.64000E-001	-7.29272E-004	10	..........a	-327.74
	1071	0.178667	-5.71809E-001	-2.22370E-003	0.00000E+000	-5.71000E-001	-9.29272E-004	10	..........a	-327.74
	1078	0.179833	-5.78759E-001	-2.37610E-003	0.00000E+000	-5.78000E-001	-8.29272E-004	10	..........a	-327.74
	1085	0.181	-5.85859E-001	-2.51696E-003	0.00000E+000	-5.85000E-001	-9.29272E-004	10	..........a	-327.74
	1092	0.182167	-5.93009E-001	-2.65181E-003	0.00000E+000	-5.92000E-001	-8.29272E-004	10	..........a	-327.74
	1099	0.183333	-5.99959E-001	-2.76360E-003	0.00000E+000	-5.99000E-001	-8.29272E-004	10	..........a	-327.74
	1106	0.1845	-6.06859E-001	-2.85333E-003	0.00000E+000	-6.06000E-001	-9.29272E-004	10	..........a	-327.74
	1113	0.185667	-6.13959E-001	-2.90747E-003	0.00000E+000	-6.13000E-001	-9.29272E-004	10	..........a	-327.74
	1120	0.186833	-6.20959E-001	-2.93304E-003	0.00000E+000	-6.20000E-001	-8.29272E-004	10	..........a	-327.74
	1127	0.188	-6.27859E-001	-2.93705E-003	0.00000E+000	-6.27000E-001	-7.29272E-004	10	..........a	-327.74
	1134	0.189167	-6.34859E-001	-2.90146E-003	0.00000E+000	-6.34000E-001	-9.29272E-004	10	..........a	-327.74
	1141	0.190333	-6.41859E-001	-2.84632E-003	0.00000E+000	-6.41000E-001	-7.29272E-004	10	..........a	-327.74
	1148	0.1915	-6.48809E-001	-2.77463E-003	0.00000E+000	-6.48000E-001	-7.29272E-004	10	..........a	-327.74
	1155	0.192667	-6.55959E-001	-2.69192E-003	0.00000E+000	-6.55000E-001	-9.29272E-004	10	..........a	-327.74
	1162	0.193833	-6.62809E-001	-2.60519E-003	0.00000E+000	-6.62000E-001	-8.29272E-004	10	..........a	-327.74
	1169	0.195	-6.69759E-001	-2.52498E-003	0.00000E+000	-6.69000E-001	-7.29272E-004	10	..........a	-327.74
	1176	0.196167	-6.77109E-001	-2.44578E-003	0.00000E+000	-6.76000E-001	-6.29272E-004	10	..........a	-327.74
	1183	0.197333	-6.83759E-001	-2.37560E-003	0.00000E+000	-6.83000E-001	-9.29272E-004	10	..........a	-327.74
	1190	0.1985	-6.90809E-001	-2.31193E-003	0.00000E+000	-6.90000E-001	-7.29272E-004	10	..........a	-327.74
	1197	0.199667	-6.97959E-001	-2.25629E-003	0.00000E+000	-6.97000E-001	-9.29272E-004	10	..........a	-327.74
	1204	0.200833	-7.04709E-001	-2.20065E-003	0.00000E+000	-7.04000E-001	-9.29272E-004	10	..........a	-327.74
	1211	0.202	-7.11909E-001	-2.14851E-003	0.00000E+000	-7.11000E-001	-6.29272E-004	10	..........a	-327.74
	1218	0.203167	-7.18809E-001	-2.10239E-003	0.00000E+000	-7.18000E-001	-7.29272E-004	10	..........a	-327.74
	1225	0.204333	-7.25959E-001	-2.05527E-003	0.00000E+000	-7.25000E-001	-6.29272E-004	10	..........a	-327.74
	1232	0.2055	-7.32809E-001	-2.00865E-003	0.00000E+000	-7.32000E-001	-6.29272E-004	10	..........a	-327.74
	1239	0.206667	-7.39809E-001	-1.96303E-003	0.00000E+000	-7.39000E-001	-8.29272E-004	10	..........a	-327.74
	1246	0.207833	-7.46909E-001	-1.91591E-003	0.00000E+000	-7.46000E-001	-8.29272E-004	10	..........a	-327.74
	1253	0.209	-7.53959E-001	-1.87631E-003	0.00000E+000	-7.53000E-001	-8.29272E-004	10	..........a	-327.74
	1260	0.210167	-7.60859E-001	-1.83219E-003	0.00000E+000	-7.60000E-001	-7.29272E-004	10	..........a	-327.74
	1267	0.211333	-7.67859E-001	-1.78908E-003	0.00000E+000	-7.67000E-001	-8.29272E-004	10	..........a	-327.74
	1274	0.2125	-7.74759E-001	-1.75349E-003	0.00000E+000	-7.74000E-001	-6.29272E-004	10	..........a	-327.74
	1281	0.213667	-7.81809E-001	-1.71288E-003	0.00000E+000	-7.81000E-001	-8.29272E-004	10	..........a	-327.74
	1288	0.214833	-7.88909E-001	-1.67729E-003	0.00000E+000	-7.88000E-001	-9.29272E-004	10	..........a	-327.74
	1295	0.216	-7.95859E-001	-1.64320E-003	0.00000E+000	-7.95000E-001	-9.29272E-004	10	..........a	-327.74
	1302	0.217167	-8.02759E-001	-1.60360E-003	0.00000E+000	-8.02000E-001	-9.29272E-004	10	..........a	-327.74
	1309	0.218333	-8.09809E-001	-1.57854E-003	0.00000E+000	-8.09000E-001	-9.29272E-004	10	..........a	-327.74
	1316	0.2195	-8.16709E-001	-1.54545E-003	0.00000E+000	-8.16000E-001	-7.29272E-004	10	..........a	-327.74
	1323	0.220667	-8.23809E-001	-1.51337E-003	0.00000E+000	-8.23000E-001	-5.29272E-004	10	..........a	-327.74
	1330	0.221833	-8.30759E-001	-1.48780E-003	0.00000E+000	-8.30000E-001	-7.29272E-004	10	..........a	-327.74
	1337	0.223	-8.37809E-001	-1.45672E-003	0.00000E+000	-8.37000E-001	-8.29272E-004	10	..........a	-327.74
	1344	0.224167	-8.44759E-001	-1.43416E-003	0.00000E+000	-8.44000E-001	-7.29272E-004	10	..........a	-327.74
	1351	0.225333	-8.51709E-001	-1.40759E-003	0.00000E+000	-8.51000E-001	-9.29272E-004	10	..........a	-327.74
	1358	0.2265	-8.58709E-001	-1.38002E-003	0.00000E+000	-8.58000E-001	-7.29272E-004	10	..........a	-327.74
	1365	0.227667	-8.65809E-001	-1.35897E-003	0.00000E+000	-8.65000E-001	-8.29272E-004	10	..........a	-327.74
	1372	0.228833	-8.72609E-001	-1.33741E-003	0.00000E+000	-8.72000E-001	-7.29272E-004	10	..........a	-327.74
	1379	0.23	-8.79609E-001	-1.31636E-003	0.00000E+000	-8.79000E-001	-7.29272E-004	10	..........a	-327.74
	1386	0.231167	-8.86759E-001	-1.29881E-003	0.00000E+000	-8.86000E-001	-7.29272E-004	10	..........a	-327.74
	1393	0.232333	-8.93859E-001	-1.27625E-003	0.00000E+000	-8.93000E-001	-7.29272E-004	10	..........a	-327.74
	1400	0.2335	-9.00709E-001	-1.26121E-003	0.00000E+000	-9.00000E-001	-9.29272E-004	10	..........a	-327.74
	1407	0.234667	-9.07609E-001	-1.24016E-003	0.00000E+000	-9.07000E-001	-8.29272E-004	10	..........a	-327.74
	1414	0.235833	-9.14759E-001	-1.22412E-003	0.00000E+000	-9.14000E-001	-8.29272E-004	10	..........a	-327.74
	1421	0.237	-9.21909E-001	-1.20908E-003	0.00000E+000	-9.21000E-001	-8.29272E-004	10	..........a	-327.74
	1428	0.238167	-9.28659E-001	-1.19655E-003	0.00000E+000	-9.28000E-001	-7.29272E-004	10	..........a	-327.74
	1435	0.239333	-9.35759E-001	-1.17800E-003	0.00000E+000	-9.35000E-001	-7.29272E-004	10	..........a	-327.74
	1442	0.2405	-9.42659E-001	-1.16346E-003	0.00000E+000	-9.42000E-001	-7.29272E-004	10	..........a	-327.74
	1449	0.241667	-9.49609E-001	-1.14943E-003	0.00000E+000	-9.49000E-001	-8.29272E-004	10	..........a	-327.74
	1456	0.242833	-9.56809E-001	-1.14441E-003	0.00000E+000	-9.56000E-001	-8.29272E-004	10	..........a	-327.74
	1463	0.244	-9.63709E-001	-1.13088E-003	0.00000E+000	-9.63000E-001	-7.29272E-004	10	..........a	-327.74
	1470	0.245167	-9.70759E-001	-1.11684E-003	0.00000E+000	-9.70000E-001	-7.29272E-004	10	..........a	-327.74
	1477	0.246333	-9.77759E-001	-1.10280E-003	0.00000E+000	-9.77000E-001	-8.29272E-004	10	..........a	-327.74
	1484	0.2475	-9.84709E-001	-1.09077E-003	0.00000E+000	-9.84000E-001	-7.29272E-004	10	..........a	-327.74
	1491	0.248667	-9.91659E-001	-1.08125E-003	0.00000E+000	-9.91000E-001	-6.29272E-004	10	..........a	-327.74
	1498	0.249833	-9.98759E-001	-1.07523E-003	0.00000E+000	-9.98000E-001	-7.29272E-004	10	..........a	-327.74
	1505	0.251	-9.95609E-001	-8.42632E-004	0.00000E+000	-9.95000E-001	-7.29272E-004	10	..........a	-327.74
	1512	0.252167	-9.88709E-001	-7.63928E-004	0.00000E+000	-9.88000E-001	-8.29272E-004	10	..........a	-327.74
	1519	0.253333	-9.81659E-001	-7.16305E-004	0.00000E+000	-9.81000E-001	-7.29272E-004	10	..........a	-327.74
	1526	0.2545	-9.74759E-001	-6.80212E-004	0.00000E+000	-9.74000E-001	-7.29272E-004	10	..........a	-327.74
	1533	0.255667	-9.67809E-001	-6.50635E-004	0.00000E+000	-9.67000E-001	-8.29272E-004	10	..........a	-327.74
	1540	0.256833	-9.60609E-001	-6.28578E-004	0.00000E+000	-9.60000E-001	-9.29272E-004	10	..........a	-327.74
	1547	0.258	-9.53609E-001	-6.08526E-004	0.00000E+000	-9.53000E-001	-6.29272E-004	10	..........a	-327.74
	1554	0.259167	-9.46759E-001	-5.92986E-004	0.00000E+000	-9.46000E-001	-8.29272E-004	10	..........a	-327.74
	1561	0.260333	-9.39559E-001	-5.79451E-004	0.00000E+000	-9.39000E-001	-9.29272E-004	10	..........a	-327.74
	1568	0.2615	-9.32759E-001	-5.64913E-004	0.00000E+000	-9.32000E-001	-7.29272E-004	10	..........a	-327.74
	1575	0.262667	-9.25659E-001	-5.55890E-004	0.00000E+000	-9.25000E-001	-9.29272E-004	10	..........a	-327.74
	1582	0.263833	-9.18709E-001	-5.43859E-004	0.00000E+000	-9.18000E-001	-7.29272E-004	10	..........a	-327.74
	1589	0.265	-9.11659E-001	-5.35337E-004	0.00000E+000	-9.11000E-001	-7.29272E-004	10	..........a	-327.74
	1596	0.266167	-9.04609E-001	-5.22804E-004	0.00000E+000	-9.04000E-001	-7.29272E-004	10	..........a	-327.74
	1603	0.267333	-8.97559E-001	-5.10272E-004	0.00000E+000	-8.97000E-001	-9.29272E-004	10	..........a	-327.74
	1610	0.2685	-8.90659E-001	-5.07765E-004	0.00000E+000	-8.90000E-001	-7.29272E-004	10	..........a	-327.74
	1617	0.269667	-8.83659E-001	-5.02752E-004	0.00000E+000	-8.83000E-001	-7.29272E-004	10	..........a	-327.74
	1624	0.270833	-8.76759E-001	-4.92726E-004	0.00000E+000	-8.76000E-001	-6.29272E-004	10	..........a	-327.74
	1631	0.272	-8.69709E-001	-4.85207E-004	0.00000E+000	-8.69000E-001	-7.29272E-004	10	..........a	-327.74
	1638	0.273167	-8.62559E-001	-4.78189E-004	0.00000E+000	-8.62000E-001	-9.29272E-004	10	..........a	-327.74
	1645	0.274333	-8.55909E-001	-4.73176E-004	0.00000E+000	-8.55000E-001	-8.29272E-004	10	..........a	-327.74
	1652	0.2755	-8.48409E-001	-4.66158E-004	0.00000E+000	-8.48000E-001	-8.29272E-004	10	..........a	-327.74
	1659	0.276667	-8.41759E-001	-4.61646E-004	0.00000E+000	-8.41000E-001	-9.29272E-004	10	..........a	-327.74
	1666	0.277833	-8.34709E-001	-4.56132E-004	0.00000E+000	-8.34000E-001	-8.29272E-004	10	..........a	-327.74
	1673	0.279	-8.27759E-001	-4.47108E-004	0.00000E+000	-8.27000E-001	-7.29272E-004	10	..........a	-327.74
	1680	0.280167	-8.20809E-001	-4.46106E-004	0.00000E+000	-8.20000E-001	-8.29272E-004	10	..........a	-327.74
	1687	0.281333	-8.13809E-001	-4.36581E-004	0.00000E+000	-8.13000E-001	-7.29272E-004	10	..........a	-327.74
	1694	0.2825	-8.06809E-001	-4.31568E-004	0.00000E+000	-8.06000E-001	-8.29272E-004	10	..........a	-327.74
	1701	0.283667	-7.99659E-001	-4.27057E-004	0.00000E+000	-7.99000E-001	-7.29272E-004	10	..........a	-327.74
	1708	0.284833	-7.92759E-001	-4.18534E-004	0.00000E+000	-7.92000E-001	-8.29272E-004	10	..........a	-327.74
	1715	0.286	-7.85859E-001	-4.19537E-004	0.00000E+000	-7.85000E-001	-7.29272E-004	10	..........a	-327.74
	1722	0.287167	-7.78609E-001	-4.06002E-004	0.00000E+000	-7.78000E-001	-8.29272E-004	10	..........a	-327.74
	1729	0.288333	-7.71809E-001	-4.00989E-004	0.00000E+000	-7.71000E-001	-7.29272E-004	10	..........a	-327.74
	1736	0.2895	-7.64809E-001	-3.96979E-004	0.00000E+000	-7.64000E-001	-1.02927E-003	10	..........a	-327.74
	1743	0.290667	-7.57809E-001	-3.92968E-004	0.00000E+000	-7.57000E-001	-8.29272E-004	10	..........a	-327.74
	1750	0.291833	-7.50759E-001	-3.84948E-004	0.00000E+000	-7.50000E-001	-8.29272E-004	10	..........a	-327.74
	1757	0.293	-7.43909E-001	-3.77929E-004	0.00000E+000	-7.43000E-001	-9.29272E-004	10	..........a	-327.74
	1764	0.294167	-7.36659E-001	-3.71914E-004	0.00000E+000	-7.36000E-001	-5.29272E-004	10	..........a	-327.74
	1771	0.295333	-7.29659E-001	-3.61888E-004	0.00000E+000	-7.29000E-001	-9.29272E-004	10	..........a	-327.74
	1778	0.2965	-7.22809E-001	-3.57376E-004	0.00000E+000	-7.22000E-001	-7.29272E-004	10	..........a	-327.74
	1785	0.297667	-7.15809E-001	-3.49857E-004	0.00000E+000	-7.15000E-001	-7.29272E-004	10	..........a	-327.74
	1792	0.298833	-7.08709E-001	-3.41335E-004	0.00000E+000	-7.08000E-001	-7.29272E-004	10	..........a	-327.74
	1799	0.3	-7.01859E-001	-3.36823E-004	0.00000E+000	-7.01000E-001	-7.29272E-004	10	..........a	-327.74
	1806	0.301167	-6.94759E-001	-3.22787E-004	0.00000E+000	-6.94000E-001	-9.29272E-004	10	..........a	-327.74
	1813	0.302333	-6.87809E-001	-3.17272E-004	0.00000E+000	-6.87000E-001	-7.29272E-004	10	..........a	-327.74
	1820	0.3035	-6.80859E-001	-3.04740E-004	0.00000E+000	-6.80000E-001	-7.29272E-004	10	..........a	-327.74
	1827	0.304667	-6.73609E-001	-2.91706E-004	0.00000E+000	-6.73000E-001	-7.29272E-004	10	..........a	-327.74
	1834	0.305833	-6.66809E-001	-2.76667E-004	0.00000E+000	-6.66000E-001	-9.29272E-004	10	..........a	-327.74
	1841	0.307	-6.59809E-001	-2.60626E-004	0.00000E+000	-6.59000E-001	-9.29272E-004	10	..........a	-327.74
	1848	0.308167	-6.52709E-001	-2.45086E-004	0.00000E+000	-6.52000E-001	-9.29272E-004	10	..........a	-327.74
	1855	0.309333	-6.45759E-001	-2.24533E-004	0.00000E+000	-6.45000E-001	-9.29272E-004	10	..........a	-327.74
	1862	0.3105	-6.38759E-001	-2.04982E-004	0.00000E+000	-6.38000E-001	-6.29272E-004	10	..........a	-327.74
	1869	0.311667	-6.31809E-001	-1.76909E-004	0.00000E+000	-6.31000E-001	-8.29272E-004	10	..........a	-327.74
	1876	0.312833	-6.24759E-001	-1.49839E-004	0.00000E+000	-6.24000E-001	-8.29272E-004	10	..........a	-327.74
	1883	0.314	-6.17759E-001	-1.12242E-004	0.00000E+000	-6.17000E-001	-8.29272E-004	10	..........a	-327.74
	1890	0.315167	-6.11009E-001	-7.86551E-005	0.00000E+000	-6.10000E-001	-8.29272E-004	10	..........a	-327.74
	1897	0.316333	-6.03809E-001	-3.05306E-005	0.00000E+000	-6.03000E-001	-7.29272E-004	10	..........a	-327.74
	1904	0.3175	-5.96759E-001	2.11030E-005	0.00000E+000	-5.96000E-001	-8.29272E-004	10	..........a	-327.74
	1911	0.318667	-5.89909E-001	7.97547E-005	0.00000E+000	-5.89000E-001	-8.29272E-004	10	..........a	-327.74
	1918	0.319833	-5.82909E-001	1.48432E-004	0.00000E+000	-5.82000E-001	-9.29272E-004	10	..........a	-327.74
	1925	0.321	-5.75859E-001	2.17611E-004	0.00000E+000	-5.75000E-001	-9.29272E-004	10	..........a	-327.74
	1932	0.322167	-5.68909E-001	2.97819E-004	0.00000E+000	-5.68000E-001	-9.29272E-004	10	..........a	-327.74
	1939	0.323333	-5.61759E-001	3.82538E-004	0.00000E+000	-5.61000E-001	-8.29272E-004	10	..........a	-327.74
	1946	0.3245	-5.54959E-001	4.71268E-004	0.00000E+000	-5.54000E-001	-9.29272E-004	10	..........a	-327.74
	1953	0.325667	-5.47809E-001	5.59496E-004	0.00000E+000	-5.47000E-001	-8.29272E-004	10	..........a	-327.74
	1960	0.326833	-5.40809E-001	6.56246E-004	0.00000E+000	-5.40000E-001	-8.29272E-004	10	..........a	-327.74
	1967	0.328	-5.33909E-001	7.47984E-004	0.00000E+000	-5.33000E-001	-9.29272E-004	10	..........a	-327.74
	1974	0.329167	-5.26859E-001	8.38217E-004	0.00000E+000	-5.26000E-001	-8.29272E-004	10	..........a	-327.74
	1981	0.330333	-5.19959E-001	9.23939E-004	0.00000E+000	-5.19000E-001	-9.29272E-004	10	..........a	-327.74
	1988	0.3315	-5.12959E-001	1.00565E-003	0.00000E+000	-5.12000E-001	-6.29272E-004	10	..........a	-327.74
	1995	0.332667	-5.05909E-001	1.08586E-003	0.00000E+000	-5.05000E-001	-8.29272E-004	10	..........a	-327.74
	2002	0.333833	-4.98909E-001	1.15804E-003	0.00000E+000	-4.98000E-001	-8.29272E-004	10	..........a	-327.74
	2009	0.335	-4.91809E-001	1.22271E-003	0.00000E+000	-4.91000E-001	-6.29272E-004	10	..........a	-327.74
	2016	0.336167	-4.84759E-001	1.28588E-003	0.00000E+000	-4.84000E-001	-8.29272E-004	10	..........a	-327.74
	2023	0.337333	-4.77909E-001	1.33049E-003	0.00000E+000	-4.77000E-001	-8.29272E-004	10	..........a	-327.74
	2030	0.3385	-4.70909E-001	1.37110E-003	0.00000E+000	-4.70000E-001	-6.29272E-004	10	..........a	-327.74
	2037	0.339667	-4.63909E-001	1.39867E-003	0.00000E+000	-4.63000E-001	-9.29272E-004	10	..........a	-327.74
	2044	0.340833	-4.56909E-001	1.41772E-003	0.00000E+000	-4.56000E-001	-8.29272E-004	10	..........a	-327.74
	2051	0.342	-4.50009E-001	1.42373E-003	0.00000E+000	-4.49000E-001	-7.29272E-004	10	..........a	-327.74
	2058	0.343167	-4.42809E-001	1.42323E-003	0.00000E+000	-4.42000E-001	-8.29272E-004	10	..........a	-327.74
	2065	0.344333	-4.35859E-001	1.41621E-003	0.00000E+000	-4.35000E-001	-8.29272E-004	10	..........a	-327.74
	2072	0.3455	-4.28909E-001	1.40067E-003	0.00000E+000	-4.28000E-001	-8.29272E-004	10	..........a	-327.74
	2079	0.346667	-4.21959E-001	1.37912E-003	0.00000E+000	-4.21000E-001	-8.29272E-004	10	..........a	-327.74
	2086	0.347833	-4.14909E-001	1.35756E-003	0.00000E+000	-4.14000E-001	-8.29272E-004	10	..........a	-327.74
	2093	0.349	-4.07959E-001	1.33450E-003	0.00000E+000	-4.07000E-001	-8.29272E-004	10	..........a	-327.74
	2100	0.350167	-4.00809E-001	1.31144E-003	0.00000E+000	-4.00000E-001	-8.29272E-004	10	..........a	-327.74
	2107	0.351333	-3.93909E-001	1.28437E-003	0.00000E+000	-3.93000E-001	-8.29272E-004	10	..........a	-327.74
	2114	0.3525	-3.86959E-001	1.26282E-003	0.00000E+000	-3.86000E-001	-8.29272E-004	10	..........a	-327.74
	2121	0.353667	-3.79959E-001	1.23875E-003	0.00000E+000	-3.79000E-001	-8.29272E-004	10	..........a	-327.74
	2128	0.354833	-3.72859E-001	1.21569E-003	0.00000E+000	-3.72000E-001	-8.29272E-004	10	..........a	-327.74
	2135	0.356	-3.65959E-001	1.19664E-003	0.00000E+000	-3.65000E-001	-8.29272E-004	10	..........a	-327.74
	2142	0.357167	-3.58909E-001	1.17509E-003	0.00000E+000	-3.58000E-001	-8.29272E-004	10	..........a	-327.74
	2149	0.358333	-3.52009E-001	1.15704E-003	0.00000E+000	-3.51000E-001	-8.29272E-004	10	..........a	-327.74
	2156	0.3595	-3.45159E-001	1.14351E-003	0.00000E+000	-3.44000E-001	-8.29272E-004	10	..........a	-327.74
	2163	0.360667	-3.37909E-001	1.12696E-003	0.00000E+000	-3.37000E-001	-7.29272E-004	10	..........a	-327.74
	2170	0.361833	-3.31009E-001	1.11142E-003	0.00000E+000	-3.30000E-001	-6.29272E-004	10	..........a	-327.74
	2177	0.363	-3.24009E-001	1.10040E-003	0.00000E+000	-3.23000E-001	-8.29272E-004	10	..........a	-327.74
	2184	0.364167	-3.16809E-001	1.08435E-003	0.00000E+000	-3.16000E-001	-1.02927E-003	10	..........a	-327.74
	2191	0.365333	-3.10059E-001	1.07282E-003	0.00000E+000	-3.09000E-001	-8.29272E-004	10	..........a	-327.74
	2198	0.3665	-3.02909E-001	1.05929E-003	0.00000E+000	-3.02000E-001	-6.29272E-004	10	..........a	-327.74
	2205	0.367667	-2.96059E-001	1.04976E-003	0.00000E+000	-2.95000E-001	-6.29272E-004	10	..........a	-327.74
	2212	0.368833	-2.88909E-001	1.03723E-003	0.00000E+000	-2.88000E-001	-7.29272E-004	10	..........a	-327.74
	2219	0.37	-2.82059E-001	1.02320E-003	0.00000E+000	-2.81000E-001	-6.29272E-004	10	..........a	-327.74
	2226	0.371167	-2.74909E-001	1.01267E-003	0.00000E+000	-2.74000E-001	-7.29272E-004	10	..........a	-327.74
	2233	0.372333	-2.67909E-001	9.98131E-004	0.00000E+000	-2.67000E-001	-6.29272E-004	10	..........a	-327.74
	2240	0.3735	-2.60959E-001	9.83593E-004	0.00000E+000	-2.60000E-001	-9.29272E-004	10	..........a	-327.74
	2247	0.374667	-2.54059E-001	9.70559E-004	0.00000E+000	-2.53000E-001	-7.29272E-004	10	..........a	-327.74
	2254	0.375833	-2.46909E-001	9.56022E-004	0.00000E+000	-2.46000E-001	-7.29272E-004	10	..........a	-327.74
	2261	0.377	-2.40159E-001	9.39479E-004	0.00000E+000	-2.39000E-001	-9.29272E-004	10	..........a	-327.74
	2268	0.378167	-2.32959E-001	9.25443E-004	0.00000E+000	-2.32000E-001	-8.29272E-004	10	..........a	-327.74
	2275	0.379333	-2.26009E-001	9.11406E-004	0.00000E+000	-2.25000E-001	-9.29272E-004	10	..........a	-327.74
	2282	0.3805	-2.19059E-001	8.94864E-004	0.00000E+000	-2.18000E-001	-8.29272E-004	10	..........a	-327.74
	2289	0.381667	-2.11909E-001	8.81830E-004	0.00000E+000	-2.11000E-001	-6.29272E-004	10	..........a	-327.74
	2296	0.382833	-2.05059E-001	8.63282E-004	0.00000E+000	-2.04000E-001	-8.29272E-004	10	..........a	-327.74
	2303	0.384	-1.97959E-001	8.53757E-004	0.00000E+000	-1.97000E-001	-8.29272E-004	10	..........a	-327.74
	2310	0.385167	-1.90859E-001	8.32703E-004	0.00000E+000	-1.90000E-001	-1.02927E-003	10	..........a	-327.74
	2317	0.386333	-1.84009E-001	8.14656E-004	0.00000E+000	-1.83000E-001	-9.29272E-004	10	..........a	-327.74
	2324	0.3875	-1.76909E-001	8.08139E-004	0.00000E+000	-1.76000E-001	-8.29272E-004	10	..........a	-327.74
	2331	0.388667	-1.70059E-001	7.92599E-004	0.00000E+000	-1.69000E-001	-9.29272E-004	10	..........a	-327.74
	2338	0.389833	-1.63109E-001	7.80067E-004	0.00000E+000	-1.62000E-001	-8.29272E-004	10	..........a	-327.74
	2345	0.391	-1.55959E-001	7.68537E-004	0.00000E+000	-1.55000E-001	-8.29272E-004	10	..........a	-327.74
	2352	0.392167	-1.49009E-001	7.51994E-004	0.00000E+000	-1.48000E-001	-8.29272E-004	10	..........a	-327.74
	2359	0.393333	-1.42009E-001	7.40965E-004	0.00000E+000	-1.41000E-001	-8.29272E-004	10	..........a	-327.74
	2366	0.3945	-1.35059E-001	7.31942E-004	0.00000E+000	-1.34000E-001	-9.29272E-004	10	..........a	-327.74
	2373	0.395667	-1.27959E-001	7.17405E-004	0.00000E+000	-1.27000E-001	-8.29272E-004	10	..........a	-327.74
	2380	0.396833	-1.21009E-001	7.06376E-004	0.00000E+000	-1.20000E-001	-8.29272E-004	10	..........a	-327.74
	2387	0.398	-1.14009E-001	6.93342E-004	0.00000E+000	-1.13000E-001	-7.29272E-004	10	..........a	-327.74
	2394	0.399167	-1.07209E-001	6.84820E-004	0.00000E+000	-1.06000E-001	-9.29272E-004	10	..........a	-327.74
	2401	0.400333	-1.00009E-001	6.78805E-004	0.00000E+000	-9.90000E-002	-8.29272E-004	10	..........a	-327.74
	2408	0.4015	-9.30590E-002	6.69280E-004	0.00000E+000	-9.20000E-002	-8.29272E-004	10	..........a	-327.74
	2415	0.402667	-8.60090E-002	6.66272E-004	0.00000E+000	-8.50000E-002	-7.29272E-004	10	..........a	-327.74
	2422	0.403833	-7.90090E-002	6.58753E-004	0.00000E+000	-7.80000E-002	-8.29272E-004	10	..........a	-327.74
	2429	0.405	-7.21090E-002	6.54742E-004	0.00000E+000	-7.10000E-002	-9.29272E-004	10	..........a	-327.74
	2436	0.406167	-6.50590E-002	6.46220E-004	0.00000E+000	-6.40000E-002	-8.29272E-004	10	..........a	-327.74
	2443	0.407333	-5.80090E-002	6.39703E-004	0.00000E+000	-5.70000E-002	-8.29272E-004	10	..........a	-327.74
	2450	0.4085	-5.10090E-002	6.44716E-004	0.00000E+000	-5.00000E-002	-7.29272E-004	10	..........a	-327.74
	2457	0.409667	-4.39590E-002	6.36696E-004	0.00000E+000	-4.30000E-002	-7.29272E-004	10	..........a	-327.74
	2464	0.410833	-3.70590E-002	6.37197E-004	0.00000E+000	-3.60000E-002	-8.29272E-004	10	..........a	-327.74
	2471	0.412	-2.99590E-002	6.37698E-004	0.00000E+000	-2.90000E-002	-9.29272E-004	10	..........a	-327.74
	2478	0.413167	-2.29090E-002	6.37197E-004	0.00000E+000	-2.20000E-002	-6.29272E-004	10	..........a	-327.74
	2485	0.414333	-1.60090E-002	6.34691E-004	0.00000E+000	-1.50000E-002	-7.29272E-004	10	..........a	-327.74
	2492	0.4155	-9.10900E-003	6.35693E-004	0.00000E+000	-8.00000E-003	-8.29272E-004	10	..........a	-327.74
	2499	0.416667	-2.05900E-003	6.38200E-004	0.00000E+000	-1.00000E-003	-6.29272E-004	10	..........a	-327.74
	2506	0.417833	4.94100E-003	6.41709E-004	0.00000E+000	5.99998E-003	-6.29272E-004	10	..........a	-327.74
	2513	0.419	1.19910E-002	6.48727E-004	0.00000E+000	1.30000E-002	-9.29272E-004	10	..........a	-327.74
	2520	0.420167	1.90410E-002	6.54241E-004	0.00000E+000	2.00000E-002	-8.29272E-004	10	..........a	-327.74
	2527	0.421333	2.58910E-002	6.53740E-004	0.00000E+000	2.70000E-002	-8.29272E-004	10	..........a	-327.74
	2534	0.4225	3.29910E-002	6.62763E-004	0.00000E+000	3.40000E-002	-8.29272E-004	10	..........a	-327.74
	2541	0.423667	3.98410E-002	6.68277E-004	0.00000E+000	4.10000E-002	-8.29272E-004	10	..........a	-327.74
	2548	0.424833	4.67910E-002	6.74293E-004	0.00000E+000	4.80000E-002	-8.29272E-004	10	..........a	-327.74
	2555	0.426	5.38410E-002	6.77301E-004	0.00000E+000	5.50000E-002	-7.29272E-004	10	..........a	-327.74
	2562	0.427167	6.08910E-002	6.87828E-004	0.00000E+000	6.20000E-002	-1.02927E-003	10	..........a	-327.74
	2569	0.428333	6.79410E-002	7.00360E-004	0.00000E+000	6.90000E-002	-6.29272E-004	10	..........a	-327.74
	2576	0.4295	7.48910E-002	7.02366E-004	0.00000E+000	7.60000E-002	-8.29272E-004	10	..........a	-327.74
	2583	0.430667	8.19410E-002	7.12893E-004	0.00000E+000	8.30000E-002	-6.29272E-004	10	..........a	-327.74
	2590	0.431833	8.88910E-002	7.17906E-004	0.00000E+000	9.00000E-002	-8.29272E-004	10	..........a	-327.74
	2597	0.433	9.58410E-002	7.21415E-004	0.00000E+000	9.70000E-002	-7.29272E-004	10	..........a	-327.74
	2604	0.434167	1.02791E-001	7.25927E-004	0.00000E+000	1.04000E-001	-8.29272E-004	10	..........a	-327.74
	2611	0.435333	1.09891E-001	7.30940E-004	0.00000E+000	1.11000E-001	-8.29272E-004	10	..........a	-327.74
	2618	0.4365	1.16791E-001	7.34950E-004	0.00000E+000	1.18000E-001	-6.29272E-004	10	..........a	-327.74
	2625	0.437667	1.23991E-001	7.39963E-004	0.00000E+000	1.25000E-001	-9.29272E-004	10	..........a	-327.74
	2632	0.438833	1.30941E-001	7.35451E-004	0.00000E+000	1.32000E-001	-9.29272E-004	10	..........a	-327.74
	2639	0.44	1.37791E-001	7.32443E-004	0.00000E+000	1.39000E-001	-7.29272E-004	10	..........a	-327.74
	2646	0.441167	1.44941E-001	7.31942E-004	0.00000E+000	1.46000E-001	-8.29272E-004	10	..........a	-327.74
	2653	0.442333	1.51741E-001	7.30940E-004	0.00000E+000	1.53000E-001	-8.29272E-004	10	..........a	-327.74
	2660	0.4435	1.58891E-001	7.15901E-004	0.00000E+000	1.60000E-001	-1.02927E-003	10	..........a	-327.74
	2667	0.444667	1.65841E-001	7.03870E-004	0.00000E+000	1.67000E-001	-9.29272E-004	10	..........a	-327.74
	2674	0.445833	1.72891E-001	6.94846E-004	0.00000E+000	1.74000E-001	-8.29272E-004	10	..........a	-327.74
	2681	0.447	1.79891E-001	6.81812E-004	0.00000E+000	1.81000E-001	-9.29272E-004	10	..........a	-327.74
	2688	0.448167	1.86891E-001	6.69280E-004	0.00000E+000	1.88000E-001	-8.29272E-004	10	..........a	-327.74
	2695	0.449333	1.93791E-001	6.56748E-004	0.00000E+000	1.95000E-001	-8.29272E-004	10	..........a	-327.74
	2702	0.4505	2.00841E-001	6.45218E-004	0.00000E+000	2.02000E-001	-8.29272E-004	10	..........a	-327.74
	2709	0.451667	2.07891E-001	6.28675E-004	0.00000E+000	2.09000E-001	-8.29272E-004	10	..........a	-327.74
	2716	0.452833	2.14941E-001	6.13135E-004	0.00000E+000	2.16000E-001	-8.29272E-004	10	..........a	-327.74
	2723	0.454	2.21741E-001	6.03109E-004	0.00000E+000	2.23000E-001	-6.29272E-004	10	..........a	-327.74
	2730	0.455167	2.28891E-001	5.90576E-004	0.00000E+000	2.30000E-001	-8.29272E-004	10	..........a	-327.74
	2737	0.456333	2.35941E-001	5.78545E-004	0.00000E+000	2.37000E-001	-9.29272E-004	10	..........a	-327.74
	2744	0.4575	2.42891E-001	5.65512E-004	0.00000E+000	2.44000E-001	-8.29272E-004	10	..........a	-327.74
	2751	0.458667	2.49791E-001	5.56488E-004	0.00000E+000	2.51000E-001	-9.29272E-004	10	..........a	-327.74
	2758	0.459833	2.56891E-001	5.47465E-004	0.00000E+000	2.58000E-001	-7.29272E-004	10	..........a	-327.74
	2765	0.461	2.63841E-001	5.32927E-004	0.00000E+000	2.65000E-001	-8.29272E-004	10	..........a	-327.74
	2772	0.462167	2.70741E-001	5.26912E-004	0.00000E+000	2.72000E-001	-7.29272E-004	10	..........a	-327.74
	2779	0.463333	2.77941E-001	5.15883E-004	0.00000E+000	2.79000E-001	-6.29272E-004	10	..........a	-327.74
	2786	0.4645	2.84841E-001	5.10369E-004	0.00000E+000	2.86000E-001	-8.29272E-004	10	..........a	-327.74
	2793	0.465667	2.91641E-001	4.98839E-004	0.00000E+000	2.93000E-001	-8.29272E-004	10	..........a	-327.74
	2800	0.466833	2.98791E-001	4.92823E-004	0.00000E+000	3.00000E-001	-7.29272E-004	10	..........a	-327.74
	2807	0.468	3.05741E-001	4.86808E-004	0.00000E+000	3.07000E-001	-9.29272E-004	10	..........a	-327.74
	2814	0.469167	3.12991E-001	4.80792E-004	0.00000E+000	3.14000E-001	-8.29272E-004	10	..........a	-327.74
	2821	0.470333	3.19791E-001	4.73273E-004	0.00000E+000	3.21000E-001	-9.29272E-004	10	..........a	-327.74
	2828	0.4715	3.26791E-001	4.67759E-004	0.00000E+000	3.28000E-001	-8.29272E-004	10	..........a	-327.74
	2835	0.472667	3.33791E-001	4.63247E-004	0.00000E+000	3.35000E-001	-7.29272E-004	10	..........a	-327.74
	2842	0.473833	3.40841E-001	4.58234E-004	0.00000E+000	3.42000E-001	-9.29272E-004	10	..........a	-327.74
	2849	0.475	3.47941E-001	4.54224E-004	0.00000E+000	3.49000E-001	-6.29272E-004	10	..........a	-327.74
	2856	0.476167	3.54791E-001	4.55226E-004	0.00000E+000	3.56000E-001	-8.29272E-004	10	..........a	-327.74
	2863	0.477333	3.61691E-001	4.45200E-004	0.00000E+000	3.63000E-001	-9.29272E-004	10	..........a	-327.74
	2870	0.4785	3.68741E-001	4.43696E-004	0.00000E+000	3.70000E-001	-9.29272E-004	10	..........a	-327.74
	2877	0.479667	3.75641E-001	4.40689E-004	0.00000E+000	3.77000E-001	-9.29272E-004	10	..........a	-327.74
	2884	0.480833	3.82841E-001	4.39686E-004	0.00000E+000	3.84000E-001	-8.29272E-004	10	..........a	-327.74
	2891	0.482	3.89841E-001	4.38683E-004	0.00000E+000	3.91000E-001	-8.29272E-004	10	..........a	-327.74
	2898	0.483167	3.96791E-001	4.35676E-004	0.00000E+000	3.98000E-001	-8.29272E-004	10	..........a	-327.74
	2905	0.484333	4.03641E-001	4.32668E-004	0.00000E+000	4.05000E-001	-7.29272E-004	10	..........a	-327.74
	2912	0.4855	4.10791E-001	4.36177E-004	0.00000E+000	4.12000E-001	-1.02927E-003	10	..........a	-327.74
	2919	0.486667	4.17641E-001	4.30663E-004	0.00000E+000	4.19000E-001	-8.29272E-004	10	..........a	-327.74
	2926	0.487833	4.24891E-001	4.33169E-004	0.00000E+000	4.26000E-001	-7.29272E-004	10	..........a	-327.74
	2933	0.489	4.31791E-001	4.32167E-004	0.00000E+000	4.33000E-001	-6.29272E-004	10	..........a	-327.74
	2940	0.490167	4.38791E-001	4.32167E-004	0.00000E+000	4.40000E-001	-6.29272E-004	10	..........a	-327.74
	2947	0.491333	4.45891E-001	4.27655E-004	0.00000E+000	4.47000E-001	-7.29272E-004	10	..........a	-327.74
	2954	0.4925	4.52791E-001	4.28657E-004	0.00000E+000	4.54000E-001	-9.29272E-004	10	..........a	-327.74
	2961	0.493667	4.59691E-001	4.26151E-004	0.00000E+000	4.61000E-001	-8.29272E-004	10	..........a	-327.74
	2968	0.494833	4.66841E-001	4.29159E-004	0.00000E+000	4.68000E-001	-8.29272E-004	10	..........a	-327.74
	2975	0.496	4.73841E-001	4.24146E-004	0.00000E+000	4.75000E-001	-6.29272E-004	10	..........a	-327.74
	2982	0.497167	4.80791E-001	4.20637E-004	0.00000E+000	4.82000E-001	-6.29272E-004	10	..........a	-327.74
	2989	0.498333	4.87891E-001	4.21639E-004	0.00000E+000	4.89000E-001	-8.29272E-004	10	..........a	-327.74
	2996	0.4995	4.94841E-001	4.15122E-004	0.00000E+000	4.96000E-001	-8.29272E-004	10	..........a	-327.74
	3000	0.500167	4.98791E-001	4.16125E-004	0.00000E+000	5.00000E-001	-8.29272E-004	10	..........a	-327.74
CURVE2	TABLE
	Pt	T	Vf	Im	Vu	Sig	Ach	IERange	Over	Temp
	#	s	V vs. Ref.	A	V	V	V	#	bits	deg C
	3001	0.500333	4.98791E-001	3.65995E-004	0.00000E+000	5.00000E-001	-9.29272E-004	10	..........a	-327.74