File: data/02-SI/Figures_S9_S11_RDE/14btmapaq-rde/1mkcl-5mmolar14btmapaq-nitrogen-200mvpers.DTA
EXPLAIN
TAG	CV
TITLE	LABEL	Cyclic Voltammetry	Test &Identifier
DATE	LABEL	1/31/2023	Date
TIME	LABEL	14:02:00	Time
NOTES	NOTES	1	&Notes...

PSTAT	PSTAT	REF3000-21108	Potentiostat
VINIT	POTEN	5.00000E-001	F	Initial &E (V)
VLIMIT1	POTEN	-1.00000E+000	F	Scan Limit &1 (V)
VLIMIT2	POTEN	5.00000E-001	F	Scan Limit &2 (V)
VFINAL	POTEN	5.00000E-001	F	Final &E (V)
SCANRATE	QUANT	2.00000E+002	&Scan Rate (mV/s)
STEPSIZE	QUANT	1.00000E+000	St&ep Size (mV)
CYCLES	IQUANT	1	C&ycles (#)
IMODE	SELECTOR	1	I/E Range &Mode
IRANGE	QUANT	1.00000E+001	&Max Current (mA)
AREA	QUANT	1.00000E+000	Electrode &Area (cm^2)
ELECTRODETYPE	SELECTOR	0	Electrode Type
STRIPPING	TOGGLE	F	Used for Stripping
POLARITY	TOGGLE	F	Signal Polarity
CONDIT	TWOPARAM	F	1.50000E+001	0.00000E+000	Conditionin&g	Time(s)	E(V)
DELAY	TWOPARAM	F	5.00000E+000	0.00000E+000	Init. De&lay	Time(s)	Stab.(mV/s)
EQDELAY	QUANT	0.00000E+000	Equil. &Time (s)
IRCOMP	SELECTOR	0	IRCom&p
PFCOR	QUANT	5.00000E+001	PF Corr. (ohm)
SAMPLINGMODE	SELECTOR	1	Sampling &Mode
EOC	QUANT	0	Open Circuit (V)
PSTATMODEL	IQUANT	5	Pstat Model
PSTATSECTION	LABEL	REF3000-21108	Pstat Section
PSTATSERIALNO	LABEL	21108	Pstat Serial Number
CTRLMODE	IQUANT	1	Control Mode
ELECTROMETER	IQUANT	0	RE=0 or CS=1
IESTAB	IQUANT	2	I/E Stability
CASPEED	IQUANT	4	Control Amp Speed
CONVENTION	IQUANT	1	Current Convention
ICHRANGE	IQUANT	2	Ich Range
ICHRANGEMODE	TOGGLE	F	Ich Auto Range
ICHOFFSETENABLE	TOGGLE	F	Ich Offset Enable
ICHOFFSET	QUANT	0	Ich Offset (V)
ICHFILTER	IQUANT	2	Ich Filter
VCHRANGE	IQUANT	2	Vch Range
VCHRANGEMODE	TOGGLE	F	Vch Auto Range
VCHOFFSETENABLE	TOGGLE	F	Vch Offset Enable
VCHOFFSET	QUANT	0	Vch Offset (V)
VCHFILTER	IQUANT	2	Vch Filter
ACHRANGE	IQUANT	2	Ach Range
ACHOFFSETENABLE	TOGGLE	F	Ach Offset Enable
ACHOFFSET	QUANT	0	Ach Offset (V)
ACHFILTER	IQUANT	0	Ach Filter
IERANGELOWERLIMIT	IQUANT	2	I/E Range Lower Limit
IERANGEMODE	TOGGLE	F	I/E AutoRange
IERANGE	IQUANT	10	I/E Range
POSFEEDENABLE	TOGGLE	F	Positive Feedback IR Comp
POSFEEDRESISTANCE	QUANT	0	Positive Feedback Resistance (ohm)
ACHSELECT	IQUANT	0	Ach Select
SENSECABLEID	IQUANT	14	Sense Cable ID
PWRCABLEID	IQUANT	7	Power Cable ID
DCCALDATE	LABEL	11/9/2022	DC Calibration Date
ACCALDATE	LABEL	11/9/2022	AC Calibration Date
THERMOSELECT	IQUANT	1	Thermo Select
FRAMEWORKVERSION	LABEL	7.8.2	Framework Version
INSTRUMENTVERSION	LABEL	4.40	Instrument Version
COMPLIANCEVOLTAGE	IQUANT	0	Compliance Voltage
CURVE1	TABLE
	Pt	T	Vf	Im	Vu	Sig	Ach	IERange	Over	Temp
	#	s	V vs. Ref.	A	V	V	V	#	bits	deg C
	0	0.005	4.98833E-001	6.57745E-005	0.00000E+000	5.00000E-001	-7.95939E-004	10	..........a	-327.74
	7	0.04	4.91768E-001	4.55388E-005	0.00000E+000	4.93000E-001	-8.12605E-004	10	..........a	-327.74
	14	0.075	4.84831E-001	3.63149E-005	0.00000E+000	4.86000E-001	-8.32606E-004	10	..........a	-327.74
	21	0.11	4.77878E-001	3.08675E-005	0.00000E+000	4.79000E-001	-8.42605E-004	10	..........a	-327.74
	28	0.145	4.70833E-001	2.73918E-005	0.00000E+000	4.72000E-001	-7.79272E-004	10	..........a	-327.74
	35	0.18	4.63826E-001	2.42337E-005	0.00000E+000	4.65000E-001	-7.85939E-004	10	..........a	-327.74
	42	0.215	4.56834E-001	2.18107E-005	0.00000E+000	4.58000E-001	-8.05939E-004	10	..........a	-327.74
	49	0.25	4.49784E-001	2.02400E-005	0.00000E+000	4.51000E-001	-7.95939E-004	10	..........a	-327.74
	56	0.285	4.42861E-001	1.88197E-005	0.00000E+000	4.44000E-001	-7.92605E-004	10	..........a	-327.74
	63	0.32	4.35863E-001	1.75497E-005	0.00000E+000	4.37000E-001	-8.05939E-004	10	..........a	-327.74
	70	0.355	4.28844E-001	1.66140E-005	0.00000E+000	4.30000E-001	-7.99272E-004	10	..........a	-327.74
	77	0.39	4.21859E-001	1.54108E-005	0.00000E+000	4.23000E-001	-8.22606E-004	10	..........a	-327.74
	84	0.425	4.14838E-001	1.49764E-005	0.00000E+000	4.16000E-001	-8.29272E-004	10	..........a	-327.74
	91	0.46	4.07833E-001	1.43748E-005	0.00000E+000	4.09000E-001	-8.35939E-004	10	..........a	-327.74
	98	0.495	4.00858E-001	1.35728E-005	0.00000E+000	4.02000E-001	-7.49272E-004	10	..........a	-327.74
	105	0.53	3.93833E-001	1.29378E-005	0.00000E+000	3.95000E-001	-7.69272E-004	10	..........a	-327.74
	112	0.565	3.86846E-001	1.22861E-005	0.00000E+000	3.88000E-001	-7.52606E-004	10	..........a	-327.74
	119	0.6	3.79798E-001	1.16678E-005	0.00000E+000	3.81000E-001	-7.92605E-004	10	..........a	-327.74
	126	0.635	3.72809E-001	1.12334E-005	0.00000E+000	3.74000E-001	-7.85939E-004	10	..........a	-327.74
	133	0.67	3.65879E-001	1.06819E-005	0.00000E+000	3.67000E-001	-7.55939E-004	10	..........a	-327.74
	140	0.705	3.58848E-001	1.03979E-005	0.00000E+000	3.60000E-001	-7.45939E-004	10	..........a	-327.74
	147	0.74	3.51926E-001	9.77961E-006	0.00000E+000	3.53000E-001	-7.85939E-004	10	..........a	-327.74
	154	0.775	3.44884E-001	9.59580E-006	0.00000E+000	3.46000E-001	-7.72606E-004	10	..........a	-327.74
	161	0.81	3.37853E-001	9.37857E-006	0.00000E+000	3.39000E-001	-7.72606E-004	10	..........a	-327.74
	168	0.845	3.30918E-001	8.32585E-006	0.00000E+000	3.32000E-001	-7.89272E-004	10	..........a	-327.74
	175	0.88	3.23956E-001	8.54308E-006	0.00000E+000	3.25000E-001	-7.79272E-004	10	..........a	-327.74
	182	0.915	3.16884E-001	8.24230E-006	0.00000E+000	3.18000E-001	-7.95939E-004	10	..........a	-327.74
	189	0.95	3.09934E-001	7.75771E-006	0.00000E+000	3.11000E-001	-8.49272E-004	10	..........a	-327.74
	196	0.985	3.02938E-001	7.55719E-006	0.00000E+000	3.04000E-001	-7.89272E-004	10	..........a	-327.74
	203	1.02	2.95831E-001	7.17287E-006	0.00000E+000	2.97000E-001	-7.62605E-004	10	..........a	-327.74
	210	1.055	2.88924E-001	6.80525E-006	0.00000E+000	2.90000E-001	-8.15939E-004	10	..........a	-327.74
	217	1.09	2.81909E-001	6.90551E-006	0.00000E+000	2.83000E-001	-8.52606E-004	10	..........a	-327.74
	224	1.125	2.74906E-001	6.67157E-006	0.00000E+000	2.76000E-001	-7.95939E-004	10	..........a	-327.74
	231	1.16	2.67938E-001	6.30395E-006	0.00000E+000	2.69000E-001	-8.25939E-004	10	..........a	-327.74
	238	1.195	2.60899E-001	5.95304E-006	0.00000E+000	2.62000E-001	-8.32606E-004	10	..........a	-327.74
	245	1.23	2.53984E-001	5.85278E-006	0.00000E+000	2.55000E-001	-7.95939E-004	10	..........a	-327.74
	252	1.265	2.46889E-001	5.55201E-006	0.00000E+000	2.48000E-001	-7.82606E-004	10	..........a	-327.74
	259	1.3	2.39893E-001	5.58543E-006	0.00000E+000	2.41000E-001	-8.05939E-004	10	..........a	-327.74
	266	1.335	2.32913E-001	5.51859E-006	0.00000E+000	2.34000E-001	-8.05939E-004	10	..........a	-327.74
	273	1.37	2.25894E-001	5.30136E-006	0.00000E+000	2.27000E-001	-7.69272E-004	10	..........a	-327.74
	280	1.405	2.18828E-001	5.00058E-006	0.00000E+000	2.20000E-001	-7.79272E-004	10	..........a	-327.74
	287	1.44	2.11894E-001	4.80006E-006	0.00000E+000	2.13000E-001	-8.25939E-004	10	..........a	-327.74
	294	1.475	2.04928E-001	5.00058E-006	0.00000E+000	2.06000E-001	-8.25939E-004	10	..........a	-327.74
	301	1.51	1.97993E-001	4.95045E-006	0.00000E+000	1.99000E-001	-8.05939E-004	10	..........a	-327.74
	308	1.545	1.90921E-001	5.08413E-006	0.00000E+000	1.92000E-001	-8.12605E-004	10	..........a	-327.74
	315	1.58	1.83934E-001	4.85019E-006	0.00000E+000	1.85000E-001	-8.15939E-004	10	..........a	-327.74
	322	1.615	1.77016E-001	4.44915E-006	0.00000E+000	1.78000E-001	-8.19272E-004	10	..........a	-327.74
	329	1.65	1.69929E-001	4.13166E-006	0.00000E+000	1.71000E-001	-8.05939E-004	10	..........a	-327.74
	336	1.685	1.62919E-001	3.93115E-006	0.00000E+000	1.64000E-001	-8.05939E-004	10	..........a	-327.74
	343	1.72	1.55914E-001	3.93115E-006	0.00000E+000	1.57000E-001	-7.89272E-004	10	..........a	-327.74
	350	1.755	1.48919E-001	3.66379E-006	0.00000E+000	1.50000E-001	-8.12605E-004	10	..........a	-327.74
	357	1.79	1.41969E-001	3.74734E-006	0.00000E+000	1.43000E-001	-8.59272E-004	10	..........a	-327.74
	364	1.825	1.34921E-001	3.34630E-006	0.00000E+000	1.36000E-001	-8.29272E-004	10	..........a	-327.74
	371	1.86	1.27969E-001	3.49669E-006	0.00000E+000	1.29000E-001	-8.02606E-004	10	..........a	-327.74
	378	1.895	1.21073E-001	3.09565E-006	0.00000E+000	1.22000E-001	-8.42605E-004	10	..........a	-327.74
	385	1.93	1.13969E-001	2.94526E-006	0.00000E+000	1.15000E-001	-8.52606E-004	10	..........a	-327.74
	392	1.965	1.06974E-001	2.86171E-006	0.00000E+000	1.08000E-001	-8.09272E-004	10	..........a	-327.74
	399	2	1.00023E-001	2.54422E-006	0.00000E+000	1.01000E-001	-8.45939E-004	10	..........a	-327.74
	406	2.035	9.29694E-002	2.66119E-006	0.00000E+000	9.40000E-002	-8.15939E-004	10	..........a	-327.74
	413	2.07	8.60111E-002	2.49409E-006	0.00000E+000	8.70000E-002	-7.99272E-004	10	..........a	-327.74
	420	2.105	7.89944E-002	2.09306E-006	0.00000E+000	8.00000E-002	-8.19272E-004	10	..........a	-327.74
	427	2.14	7.20394E-002	2.39384E-006	0.00000E+000	7.30000E-002	-8.32606E-004	10	..........a	-327.74
	434	2.175	6.51177E-002	2.09306E-006	0.00000E+000	6.60000E-002	-8.45939E-004	10	..........a	-327.74
	441	2.21	5.79961E-002	1.89254E-006	0.00000E+000	5.90000E-002	-8.19272E-004	10	..........a	-327.74
	448	2.245	5.10261E-002	2.09306E-006	0.00000E+000	5.20000E-002	-7.89272E-004	10	..........a	-327.74
	455	2.28	4.40827E-002	1.80899E-006	0.00000E+000	4.50000E-002	-8.39272E-004	10	..........a	-327.74
	462	2.315	3.70211E-002	1.79228E-006	0.00000E+000	3.80000E-002	-8.12605E-004	10	..........a	-327.74
	469	2.35	3.00444E-002	1.12388E-006	0.00000E+000	3.10000E-002	-8.12605E-004	10	..........a	-327.74
	476	2.385	2.30577E-002	1.19072E-006	0.00000E+000	2.40000E-002	-8.09272E-004	10	..........a	-327.74
	483	2.42	1.60644E-002	1.42466E-006	0.00000E+000	1.70000E-002	-7.92605E-004	10	..........a	-327.74
	490	2.455	9.04439E-003	1.07375E-006	0.00000E+000	9.99999E-003	-7.82606E-004	10	..........a	-327.74
	497	2.49	2.04106E-003	7.39555E-007	0.00000E+000	2.99999E-003	-8.05939E-004	10	..........a	-327.74
	504	2.525	-4.92727E-003	7.56265E-007	0.00000E+000	-4.00001E-003	-8.09272E-004	10	..........a	-327.74
	511	2.56	-1.19306E-002	7.72975E-007	0.00000E+000	-1.10000E-002	-8.09272E-004	10	..........a	-327.74
	518	2.595	-1.89923E-002	4.22067E-007	0.00000E+000	-1.80000E-002	-8.05939E-004	10	..........a	-327.74
	525	2.63	-2.59656E-002	3.05098E-007	0.00000E+000	-2.50000E-002	-8.22606E-004	10	..........a	-327.74
	532	2.665	-3.29556E-002	3.05098E-007	0.00000E+000	-3.20000E-002	-8.55939E-004	10	..........a	-327.74
	539	2.7	-3.99573E-002	5.44490E-008	0.00000E+000	-3.90000E-002	-8.42605E-004	10	..........a	-327.74
	546	2.735	-4.69323E-002	-1.79490E-007	0.00000E+000	-4.60000E-002	-8.49272E-004	10	..........a	-327.74
	553	2.77	-5.39256E-002	1.71418E-007	0.00000E+000	-5.30000E-002	-8.15939E-004	10	..........a	-327.74
	560	2.805	-6.09089E-002	5.44490E-008	0.00000E+000	-6.00000E-002	-8.05939E-004	10	..........a	-327.74
	567	2.84	-6.79473E-002	-3.96718E-007	0.00000E+000	-6.70000E-002	-8.19272E-004	10	..........a	-327.74
	574	2.875	-7.49639E-002	-4.58103E-008	0.00000E+000	-7.40000E-002	-8.45939E-004	10	..........a	-327.74
	581	2.91	-8.19506E-002	-7.14206E-007	0.00000E+000	-8.10000E-002	-7.99272E-004	10	..........a	-327.74
	588	2.945	-8.89639E-002	-8.14466E-007	0.00000E+000	-8.80000E-002	-8.42605E-004	10	..........a	-327.74
	595	2.98	-9.59489E-002	-4.96978E-007	0.00000E+000	-9.50000E-002	-8.55939E-004	10	..........a	-327.74
	602	3.015	-1.02922E-001	-7.14206E-007	0.00000E+000	-1.02000E-001	-8.22606E-004	10	..........a	-327.74
	609	3.05	-1.09947E-001	-4.96978E-007	0.00000E+000	-1.09000E-001	-7.99272E-004	10	..........a	-327.74
	616	3.085	-1.16954E-001	-7.14206E-007	0.00000E+000	-1.16000E-001	-8.72606E-004	10	..........a	-327.74
	623	3.12	-1.23942E-001	-7.97756E-007	0.00000E+000	-1.23000E-001	-8.22606E-004	10	..........a	-327.74
	630	3.155	-1.30939E-001	-8.14466E-007	0.00000E+000	-1.30000E-001	-8.45939E-004	10	..........a	-327.74
	637	3.19	-1.37941E-001	-1.09853E-006	0.00000E+000	-1.37000E-001	-8.12605E-004	10	..........a	-327.74
	644	3.225	-1.44947E-001	-1.04840E-006	0.00000E+000	-1.44000E-001	-8.49272E-004	10	..........a	-327.74
	651	3.26	-1.51951E-001	-1.33247E-006	0.00000E+000	-1.51000E-001	-8.12605E-004	10	..........a	-327.74
	658	3.295	-1.58872E-001	-1.58312E-006	0.00000E+000	-1.58000E-001	-7.69272E-004	10	..........a	-327.74
	665	3.33	-1.65927E-001	-1.59983E-006	0.00000E+000	-1.65000E-001	-8.45939E-004	10	..........a	-327.74
	672	3.365	-1.72926E-001	-1.41602E-006	0.00000E+000	-1.72000E-001	-8.05939E-004	10	..........a	-327.74
	679	3.4	-1.79867E-001	-1.46615E-006	0.00000E+000	-1.79000E-001	-8.05939E-004	10	..........a	-327.74
	686	3.435	-1.86924E-001	-1.44944E-006	0.00000E+000	-1.86000E-001	-8.12605E-004	10	..........a	-327.74
	693	3.47	-1.93926E-001	-1.68338E-006	0.00000E+000	-1.93000E-001	-7.79272E-004	10	..........a	-327.74
	700	3.505	-2.00952E-001	-2.08442E-006	0.00000E+000	-2.00000E-001	-7.85939E-004	10	..........a	-327.74
	707	3.54	-2.07907E-001	-2.11784E-006	0.00000E+000	-2.07000E-001	-7.62605E-004	10	..........a	-327.74
	714	3.575	-2.14841E-001	-2.30165E-006	0.00000E+000	-2.14000E-001	-7.52606E-004	10	..........a	-327.74
	721	3.61	-2.21899E-001	-2.21810E-006	0.00000E+000	-2.21000E-001	-7.55939E-004	10	..........a	-327.74
	728	3.645	-2.28911E-001	-2.53559E-006	0.00000E+000	-2.28000E-001	-7.82606E-004	10	..........a	-327.74
	735	3.68	-2.35837E-001	-3.07030E-006	0.00000E+000	-2.35000E-001	-7.79272E-004	10	..........a	-327.74
	742	3.715	-2.42861E-001	-3.02017E-006	0.00000E+000	-2.42000E-001	-7.62605E-004	10	..........a	-327.74
	749	3.75	-2.49892E-001	-3.23740E-006	0.00000E+000	-2.49000E-001	-7.49272E-004	10	..........a	-327.74
	756	3.785	-2.56884E-001	-3.15385E-006	0.00000E+000	-2.56000E-001	-7.95939E-004	10	..........a	-327.74
	763	3.82	-2.63906E-001	-3.18727E-006	0.00000E+000	-2.63000E-001	-7.89272E-004	10	..........a	-327.74
	770	3.855	-2.70879E-001	-3.87238E-006	0.00000E+000	-2.70000E-001	-7.79272E-004	10	..........a	-327.74
	777	3.89	-2.77907E-001	-3.53818E-006	0.00000E+000	-2.77000E-001	-8.32606E-004	10	..........a	-327.74
	784	3.925	-2.84921E-001	-3.85567E-006	0.00000E+000	-2.84000E-001	-7.79272E-004	10	..........a	-327.74
	791	3.96	-2.91844E-001	-4.25670E-006	0.00000E+000	-2.91000E-001	-7.99272E-004	10	..........a	-327.74
	798	3.995	-2.98862E-001	-4.65774E-006	0.00000E+000	-2.98000E-001	-7.45939E-004	10	..........a	-327.74
	805	4.03	-3.05907E-001	-4.59090E-006	0.00000E+000	-3.05000E-001	-7.59272E-004	10	..........a	-327.74
	812	4.065	-3.12826E-001	-5.17575E-006	0.00000E+000	-3.12000E-001	-7.59272E-004	10	..........a	-327.74
	819	4.1	-3.19886E-001	-4.75800E-006	0.00000E+000	-3.19000E-001	-7.75939E-004	10	..........a	-327.74
	826	4.135	-3.26822E-001	-5.52666E-006	0.00000E+000	-3.26000E-001	-7.72606E-004	10	..........a	-327.74
	833	4.17	-3.33854E-001	-5.45982E-006	0.00000E+000	-3.33000E-001	-7.75939E-004	10	..........a	-327.74
	840	4.205	-3.40827E-001	-6.07808E-006	0.00000E+000	-3.40000E-001	-7.72606E-004	10	..........a	-327.74
	847	4.24	-3.47834E-001	-6.22847E-006	0.00000E+000	-3.47000E-001	-7.65939E-004	10	..........a	-327.74
	854	4.275	-3.54856E-001	-6.74648E-006	0.00000E+000	-3.54000E-001	-7.65939E-004	10	..........a	-327.74
	861	4.31	-3.61801E-001	-7.13081E-006	0.00000E+000	-3.61000E-001	-7.95939E-004	10	..........a	-327.74
	868	4.345	-3.68829E-001	-8.16682E-006	0.00000E+000	-3.68000E-001	-7.99272E-004	10	..........a	-327.74
	875	4.38	-3.75841E-001	-9.55374E-006	0.00000E+000	-3.75000E-001	-7.65939E-004	10	..........a	-327.74
	882	4.415	-3.82812E-001	-1.02221E-005	0.00000E+000	-3.82000E-001	-7.89272E-004	10	..........a	-327.74
	889	4.45	-3.89892E-001	-1.20602E-005	0.00000E+000	-3.89000E-001	-7.99272E-004	10	..........a	-327.74
	896	4.485	-3.96799E-001	-1.43328E-005	0.00000E+000	-3.96000E-001	-7.82606E-004	10	..........a	-327.74
	903	4.52	-4.03796E-001	-1.67724E-005	0.00000E+000	-4.03000E-001	-7.55939E-004	10	..........a	-327.74
	910	4.555	-4.10819E-001	-2.02481E-005	0.00000E+000	-4.10000E-001	-7.49272E-004	10	..........a	-327.74
	917	4.59	-4.17826E-001	-2.50104E-005	0.00000E+000	-4.17000E-001	-7.79272E-004	10	..........a	-327.74
	924	4.625	-4.24791E-001	-3.06751E-005	0.00000E+000	-4.24000E-001	-7.52606E-004	10	..........a	-327.74
	931	4.66	-4.31907E-001	-3.70081E-005	0.00000E+000	-4.31000E-001	-7.72606E-004	10	..........a	-327.74
	938	4.695	-4.38794E-001	-4.50456E-005	0.00000E+000	-4.38000E-001	-8.22606E-004	10	..........a	-327.74
	945	4.73	-4.45762E-001	-5.43697E-005	0.00000E+000	-4.45000E-001	-8.15939E-004	10	..........a	-327.74
	952	4.765	-4.52802E-001	-6.51309E-005	0.00000E+000	-4.52000E-001	-7.49272E-004	10	..........a	-327.74
	959	4.8	-4.59786E-001	-7.76132E-005	0.00000E+000	-4.59000E-001	-7.95939E-004	10	..........a	-327.74
	966	4.835	-4.66806E-001	-9.08474E-005	0.00000E+000	-4.66000E-001	-7.79272E-004	10	..........a	-327.74
	973	4.87	-4.73836E-001	-1.05552E-004	0.00000E+000	-4.73000E-001	-7.62605E-004	10	..........a	-327.74
	980	4.905	-4.80801E-001	-1.22011E-004	0.00000E+000	-4.80000E-001	-7.52606E-004	10	..........a	-327.74
	987	4.94	-4.87846E-001	-1.39807E-004	0.00000E+000	-4.87000E-001	-7.65939E-004	10	..........a	-327.74
	994	4.975	-4.94776E-001	-1.59341E-004	0.00000E+000	-4.94000E-001	-7.95939E-004	10	..........a	-327.74
	1001	5.01	-5.01817E-001	-1.80780E-004	0.00000E+000	-5.01000E-001	-7.75939E-004	10	..........a	-327.74
	1008	5.045	-5.08804E-001	-2.05060E-004	0.00000E+000	-5.08000E-001	-7.99272E-004	10	..........a	-327.74
	1015	5.08	-5.15786E-001	-2.31528E-004	0.00000E+000	-5.15000E-001	-7.12606E-004	10	..........a	-327.74
	1022	5.115	-5.22834E-001	-2.59751E-004	0.00000E+000	-5.22000E-001	-7.35939E-004	10	..........a	-327.74
	1029	5.15	-5.29819E-001	-2.90664E-004	0.00000E+000	-5.29000E-001	-8.09272E-004	10	..........a	-327.74
	1036	5.185	-5.36797E-001	-3.21945E-004	0.00000E+000	-5.36000E-001	-8.29272E-004	10	..........a	-327.74
	1043	5.22	-5.43791E-001	-3.52474E-004	0.00000E+000	-5.43000E-001	-7.69272E-004	10	..........a	-327.74
	1050	5.255	-5.50786E-001	-3.80998E-004	0.00000E+000	-5.50000E-001	-7.55939E-004	10	..........a	-327.74
	1057	5.29	-5.57836E-001	-4.04576E-004	0.00000E+000	-5.57000E-001	-7.85939E-004	10	..........a	-327.74
	1064	5.325	-5.64791E-001	-4.21670E-004	0.00000E+000	-5.64000E-001	-7.92605E-004	10	..........a	-327.74
	1071	5.36	-5.71696E-001	-4.29657E-004	0.00000E+000	-5.71000E-001	-7.72606E-004	10	..........a	-327.74
	1078	5.395	-5.78797E-001	-4.28421E-004	0.00000E+000	-5.78000E-001	-7.62605E-004	10	..........a	-327.74
	1085	5.43	-5.85801E-001	-4.18495E-004	0.00000E+000	-5.85000E-001	-7.72606E-004	10	..........a	-327.74
	1092	5.465	-5.92751E-001	-4.02704E-004	0.00000E+000	-5.92000E-001	-7.79272E-004	10	..........a	-327.74
	1099	5.5	-5.99811E-001	-3.83505E-004	0.00000E+000	-5.99000E-001	-7.85939E-004	10	..........a	-327.74
	1106	5.535	-6.06761E-001	-3.63937E-004	0.00000E+000	-6.06000E-001	-7.95939E-004	10	..........a	-327.74
	1113	5.57	-6.13739E-001	-3.44972E-004	0.00000E+000	-6.13000E-001	-7.72606E-004	10	..........a	-327.74
	1120	5.605	-6.20726E-001	-3.27961E-004	0.00000E+000	-6.20000E-001	-7.75939E-004	10	..........a	-327.74
	1127	5.64	-6.27724E-001	-3.13239E-004	0.00000E+000	-6.27000E-001	-7.79272E-004	10	..........a	-327.74
	1134	5.675	-6.34761E-001	-3.00156E-004	0.00000E+000	-6.34000E-001	-7.92605E-004	10	..........a	-327.74
	1141	5.71	-6.41691E-001	-2.88609E-004	0.00000E+000	-6.41000E-001	-8.35939E-004	10	..........a	-327.74
	1148	5.745	-6.48766E-001	-2.78282E-004	0.00000E+000	-6.48000E-001	-7.59272E-004	10	..........a	-327.74
	1155	5.78	-6.55706E-001	-2.69526E-004	0.00000E+000	-6.55000E-001	-8.15939E-004	10	..........a	-327.74
	1162	5.815	-6.62759E-001	-2.61405E-004	0.00000E+000	-6.62000E-001	-7.99272E-004	10	..........a	-327.74
	1169	5.85	-6.69709E-001	-2.54203E-004	0.00000E+000	-6.69000E-001	-7.99272E-004	10	..........a	-327.74
	1176	5.885	-6.76741E-001	-2.47102E-004	0.00000E+000	-6.76000E-001	-7.25939E-004	10	..........a	-327.74
	1183	5.92	-6.83701E-001	-2.40702E-004	0.00000E+000	-6.83000E-001	-7.82606E-004	10	..........a	-327.74
	1190	5.955	-6.90719E-001	-2.34603E-004	0.00000E+000	-6.90000E-001	-7.62605E-004	10	..........a	-327.74
	1197	5.99	-6.97822E-001	-2.28286E-004	0.00000E+000	-6.97000E-001	-7.59272E-004	10	..........a	-327.74
	1204	6.025	-7.04706E-001	-2.22789E-004	0.00000E+000	-7.04000E-001	-7.79272E-004	10	..........a	-327.74
	1211	6.06	-7.11701E-001	-2.18160E-004	0.00000E+000	-7.11000E-001	-7.82606E-004	10	..........a	-327.74
	1218	6.095	-7.18712E-001	-2.13047E-004	0.00000E+000	-7.18000E-001	-7.72606E-004	10	..........a	-327.74
	1225	6.13	-7.25666E-001	-2.08485E-004	0.00000E+000	-7.25000E-001	-7.65939E-004	10	..........a	-327.74
	1232	6.165	-7.32717E-001	-2.04141E-004	0.00000E+000	-7.32000E-001	-7.75939E-004	10	..........a	-327.74
	1239	6.2	-7.39664E-001	-2.00230E-004	0.00000E+000	-7.39000E-001	-7.75939E-004	10	..........a	-327.74
	1246	6.235	-7.46719E-001	-1.96354E-004	0.00000E+000	-7.46000E-001	-7.35939E-004	10	..........a	-327.74
	1253	6.27	-7.53701E-001	-1.92611E-004	0.00000E+000	-7.53000E-001	-8.32606E-004	10	..........a	-327.74
	1260	6.305	-7.60699E-001	-1.89486E-004	0.00000E+000	-7.60000E-001	-8.09272E-004	10	..........a	-327.74
	1267	6.34	-7.67737E-001	-1.86595E-004	0.00000E+000	-7.67000E-001	-7.55939E-004	10	..........a	-327.74
	1274	6.375	-7.74669E-001	-1.82986E-004	0.00000E+000	-7.74000E-001	-7.59272E-004	10	..........a	-327.74
	1281	6.41	-7.81707E-001	-1.79811E-004	0.00000E+000	-7.81000E-001	-7.62605E-004	10	..........a	-327.74
	1288	6.445	-7.88721E-001	-1.77154E-004	0.00000E+000	-7.88000E-001	-7.82606E-004	10	..........a	-327.74
	1295	6.48	-7.95631E-001	-1.74347E-004	0.00000E+000	-7.95000E-001	-8.05939E-004	10	..........a	-327.74
	1302	6.515	-8.02736E-001	-1.72241E-004	0.00000E+000	-8.02000E-001	-8.02606E-004	10	..........a	-327.74
	1309	6.55	-8.09694E-001	-1.70353E-004	0.00000E+000	-8.09000E-001	-7.92605E-004	10	..........a	-327.74
	1316	6.585	-8.16676E-001	-1.67446E-004	0.00000E+000	-8.16000E-001	-7.39272E-004	10	..........a	-327.74
	1323	6.62	-8.23629E-001	-1.65140E-004	0.00000E+000	-8.23000E-001	-7.69272E-004	10	..........a	-327.74
	1330	6.655	-8.30687E-001	-1.62850E-004	0.00000E+000	-8.30000E-001	-7.75939E-004	10	..........a	-327.74
	1337	6.69	-8.37617E-001	-1.60912E-004	0.00000E+000	-8.37000E-001	-8.02606E-004	10	..........a	-327.74
	1344	6.725	-8.44651E-001	-1.59174E-004	0.00000E+000	-8.44000E-001	-7.85939E-004	10	..........a	-327.74
	1351	6.76	-8.51581E-001	-1.57052E-004	0.00000E+000	-8.51000E-001	-7.95939E-004	10	..........a	-327.74
	1358	6.795	-8.58629E-001	-1.55331E-004	0.00000E+000	-8.58000E-001	-7.85939E-004	10	..........a	-327.74
	1365	6.83	-8.65586E-001	-1.53944E-004	0.00000E+000	-8.65000E-001	-7.75939E-004	10	..........a	-327.74
	1372	6.865	-8.72536E-001	-1.51989E-004	0.00000E+000	-8.72000E-001	-7.55939E-004	10	..........a	-327.74
	1379	6.9	-8.79612E-001	-1.49950E-004	0.00000E+000	-8.79000E-001	-7.82606E-004	10	..........a	-327.74
	1386	6.935	-8.86634E-001	-1.48764E-004	0.00000E+000	-8.86000E-001	-7.72606E-004	10	..........a	-327.74
	1393	6.97	-8.93614E-001	-1.46809E-004	0.00000E+000	-8.93000E-001	-7.85939E-004	10	..........a	-327.74
	1400	7.005	-9.00596E-001	-1.45790E-004	0.00000E+000	-9.00000E-001	-8.02606E-004	10	..........a	-327.74
	1407	7.04	-9.07591E-001	-1.44286E-004	0.00000E+000	-9.07000E-001	-7.99272E-004	10	..........a	-327.74
	1414	7.075	-9.14611E-001	-1.43066E-004	0.00000E+000	-9.14000E-001	-8.09272E-004	10	..........a	-327.74
	1421	7.11	-9.21579E-001	-1.41779E-004	0.00000E+000	-9.21000E-001	-7.92605E-004	10	..........a	-327.74
	1428	7.145	-9.28522E-001	-1.40509E-004	0.00000E+000	-9.28000E-001	-8.12605E-004	10	..........a	-327.74
	1435	7.18	-9.35579E-001	-1.39273E-004	0.00000E+000	-9.35000E-001	-7.72606E-004	10	..........a	-327.74
	1442	7.215	-9.42637E-001	-1.38521E-004	0.00000E+000	-9.42000E-001	-7.95939E-004	10	..........a	-327.74
	1449	7.25	-9.49527E-001	-1.37669E-004	0.00000E+000	-9.49000E-001	-7.52606E-004	10	..........a	-327.74
	1456	7.285	-9.56617E-001	-1.36282E-004	0.00000E+000	-9.56000E-001	-7.52606E-004	10	..........a	-327.74
	1463	7.32	-9.63562E-001	-1.35028E-004	0.00000E+000	-9.63000E-001	-7.65939E-004	10	..........a	-327.74
	1470	7.355	-9.70609E-001	-1.34159E-004	0.00000E+000	-9.70000E-001	-7.45939E-004	10	..........a	-327.74
	1477	7.39	-9.77566E-001	-1.33123E-004	0.00000E+000	-9.77000E-001	-7.39272E-004	10	..........a	-327.74
	1484	7.425	-9.84549E-001	-1.31887E-004	0.00000E+000	-9.84000E-001	-7.69272E-004	10	..........a	-327.74
	1491	7.46	-9.91581E-001	-1.31586E-004	0.00000E+000	-9.91000E-001	-7.19272E-004	10	..........a	-327.74
	1498	7.495	-9.98606E-001	-1.30584E-004	0.00000E+000	-9.98000E-001	-7.75939E-004	10	..........a	-327.74
	1505	7.53	-9.95576E-001	-1.25771E-004	0.00000E+000	-9.95000E-001	-7.59272E-004	10	..........a	-327.74
	1512	7.565	-9.88589E-001	-1.22579E-004	0.00000E+000	-9.88000E-001	-7.79272E-004	10	..........a	-327.74
	1519	7.6	-9.81574E-001	-1.20340E-004	0.00000E+000	-9.81000E-001	-7.62605E-004	10	..........a	-327.74
	1526	7.635	-9.74551E-001	-1.18536E-004	0.00000E+000	-9.74000E-001	-7.62605E-004	10	..........a	-327.74
	1533	7.67	-9.67596E-001	-1.16865E-004	0.00000E+000	-9.67000E-001	-7.39272E-004	10	..........a	-327.74
	1540	7.705	-9.60591E-001	-1.15611E-004	0.00000E+000	-9.60000E-001	-7.42605E-004	10	..........a	-327.74
	1547	7.74	-9.53589E-001	-1.13924E-004	0.00000E+000	-9.53000E-001	-7.59272E-004	10	..........a	-327.74
	1554	7.775	-9.46602E-001	-1.13005E-004	0.00000E+000	-9.46000E-001	-8.12605E-004	10	..........a	-327.74
	1561	7.81	-9.39571E-001	-1.12086E-004	0.00000E+000	-9.39000E-001	-7.39272E-004	10	..........a	-327.74
	1568	7.845	-9.32594E-001	-1.11133E-004	0.00000E+000	-9.32000E-001	-7.72606E-004	10	..........a	-327.74
	1575	7.88	-9.25567E-001	-1.10064E-004	0.00000E+000	-9.25000E-001	-7.72606E-004	10	..........a	-327.74
	1582	7.915	-9.18647E-001	-1.09178E-004	0.00000E+000	-9.18000E-001	-7.62605E-004	10	..........a	-327.74
	1589	7.95	-9.11604E-001	-1.08042E-004	0.00000E+000	-9.11000E-001	-8.02606E-004	10	..........a	-327.74
	1596	7.985	-9.04557E-001	-1.07390E-004	0.00000E+000	-9.04000E-001	-7.92605E-004	10	..........a	-327.74
	1603	8.02	-8.97584E-001	-1.06254E-004	0.00000E+000	-8.97000E-001	-7.92605E-004	10	..........a	-327.74
	1610	8.055	-8.90627E-001	-1.05602E-004	0.00000E+000	-8.90000E-001	-7.52606E-004	10	..........a	-327.74
	1617	8.09	-8.83592E-001	-1.04516E-004	0.00000E+000	-8.83000E-001	-7.32606E-004	10	..........a	-327.74
	1624	8.125	-8.76667E-001	-1.04032E-004	0.00000E+000	-8.76000E-001	-7.55939E-004	10	..........a	-327.74
	1631	8.16	-8.69619E-001	-1.02912E-004	0.00000E+000	-8.69000E-001	-7.82606E-004	10	..........a	-327.74
	1638	8.195	-8.62619E-001	-1.02361E-004	0.00000E+000	-8.62000E-001	-7.39272E-004	10	..........a	-327.74
	1645	8.23	-8.55674E-001	-1.01692E-004	0.00000E+000	-8.55000E-001	-7.49272E-004	10	..........a	-327.74
	1652	8.265	-8.48634E-001	-1.01174E-004	0.00000E+000	-8.48000E-001	-7.82606E-004	10	..........a	-327.74
	1659	8.3	-8.41619E-001	-1.00690E-004	0.00000E+000	-8.41000E-001	-7.15939E-004	10	..........a	-327.74
	1666	8.335	-8.34652E-001	-9.97371E-005	0.00000E+000	-8.34000E-001	-7.55939E-004	10	..........a	-327.74
	1673	8.37	-8.27662E-001	-9.88180E-005	0.00000E+000	-8.27000E-001	-7.75939E-004	10	..........a	-327.74
	1680	8.405	-8.20636E-001	-9.81998E-005	0.00000E+000	-8.20000E-001	-7.89272E-004	10	..........a	-327.74
	1687	8.44	-8.13686E-001	-9.75815E-005	0.00000E+000	-8.13000E-001	-7.59272E-004	10	..........a	-327.74
	1694	8.475	-8.06686E-001	-9.68797E-005	0.00000E+000	-8.06000E-001	-7.79272E-004	10	..........a	-327.74
	1701	8.51	-7.99674E-001	-9.65288E-005	0.00000E+000	-7.99000E-001	-8.25939E-004	10	..........a	-327.74
	1708	8.545	-7.92647E-001	-9.57768E-005	0.00000E+000	-7.92000E-001	-7.82606E-004	10	..........a	-327.74
	1715	8.58	-7.85666E-001	-9.51920E-005	0.00000E+000	-7.85000E-001	-8.05939E-004	10	..........a	-327.74
	1722	8.615	-7.78681E-001	-9.42395E-005	0.00000E+000	-7.78000E-001	-8.15939E-004	10	..........a	-327.74
	1729	8.65	-7.71661E-001	-9.35377E-005	0.00000E+000	-7.71000E-001	-7.72606E-004	10	..........a	-327.74
	1736	8.685	-7.64741E-001	-9.32035E-005	0.00000E+000	-7.64000E-001	-7.49272E-004	10	..........a	-327.74
	1743	8.72	-7.57716E-001	-9.24850E-005	0.00000E+000	-7.57000E-001	-7.82606E-004	10	..........a	-327.74
	1750	8.755	-7.50734E-001	-9.17163E-005	0.00000E+000	-7.50000E-001	-7.89272E-004	10	..........a	-327.74
	1757	8.79	-7.43687E-001	-9.11983E-005	0.00000E+000	-7.43000E-001	-8.25939E-004	10	..........a	-327.74
	1764	8.825	-7.36697E-001	-9.05968E-005	0.00000E+000	-7.36000E-001	-7.89272E-004	10	..........a	-327.74
	1771	8.86	-7.29694E-001	-9.01289E-005	0.00000E+000	-7.29000E-001	-7.82606E-004	10	..........a	-327.74
	1778	8.895	-7.22702E-001	-8.96443E-005	0.00000E+000	-7.22000E-001	-7.39272E-004	10	..........a	-327.74
	1785	8.93	-7.15692E-001	-8.89592E-005	0.00000E+000	-7.15000E-001	-7.75939E-004	10	..........a	-327.74
	1792	8.965	-7.08742E-001	-8.78062E-005	0.00000E+000	-7.08000E-001	-7.62605E-004	10	..........a	-327.74
	1799	9	-7.01676E-001	-8.68705E-005	0.00000E+000	-7.01000E-001	-7.92605E-004	10	..........a	-327.74
	1806	9.035	-6.94699E-001	-8.65195E-005	0.00000E+000	-6.94000E-001	-7.45939E-004	10	..........a	-327.74
	1813	9.07	-6.87731E-001	-8.54835E-005	0.00000E+000	-6.87000E-001	-7.75939E-004	10	..........a	-327.74
	1820	9.105	-6.80722E-001	-8.46647E-005	0.00000E+000	-6.80000E-001	-7.92605E-004	10	..........a	-327.74
	1827	9.14	-6.73734E-001	-8.37791E-005	0.00000E+000	-6.73000E-001	-7.39272E-004	10	..........a	-327.74
	1834	9.175	-6.66729E-001	-8.24089E-005	0.00000E+000	-6.66000E-001	-7.89272E-004	10	..........a	-327.74
	1841	9.21	-6.59717E-001	-8.15400E-005	0.00000E+000	-6.59000E-001	-7.89272E-004	10	..........a	-327.74
	1848	9.245	-6.52734E-001	-7.99358E-005	0.00000E+000	-6.52000E-001	-7.72606E-004	10	..........a	-327.74
	1855	9.28	-6.45689E-001	-7.86325E-005	0.00000E+000	-6.45000E-001	-7.52606E-004	10	..........a	-327.74
	1862	9.315	-6.38759E-001	-7.68946E-005	0.00000E+000	-6.38000E-001	-7.52606E-004	10	..........a	-327.74
	1869	9.35	-6.31761E-001	-7.51401E-005	0.00000E+000	-6.31000E-001	-7.95939E-004	10	..........a	-327.74
	1876	9.385	-6.24726E-001	-7.27172E-005	0.00000E+000	-6.24000E-001	-7.99272E-004	10	..........a	-327.74
	1883	9.42	-6.17744E-001	-6.95924E-005	0.00000E+000	-6.17000E-001	-7.65939E-004	10	..........a	-327.74
	1890	9.455	-6.10771E-001	-6.51643E-005	0.00000E+000	-6.10000E-001	-7.95939E-004	10	..........a	-327.74
	1897	9.49	-6.03744E-001	-5.98673E-005	0.00000E+000	-6.03000E-001	-8.02606E-004	10	..........a	-327.74
	1904	9.525	-5.96811E-001	-5.18298E-005	0.00000E+000	-5.96000E-001	-7.49272E-004	10	..........a	-327.74
	1911	9.56	-5.89732E-001	-4.02665E-005	0.00000E+000	-5.89000E-001	-7.72606E-004	10	..........a	-327.74
	1918	9.595	-5.82774E-001	-2.56454E-005	0.00000E+000	-5.82000E-001	-7.72606E-004	10	..........a	-327.74
	1925	9.63	-5.75791E-001	-5.76060E-006	0.00000E+000	-5.75000E-001	-7.89272E-004	10	..........a	-327.74
	1932	9.665	-5.68741E-001	1.83685E-005	0.00000E+000	-5.68000E-001	-8.15939E-004	10	..........a	-327.74
	1939	9.7	-5.61804E-001	4.69926E-005	0.00000E+000	-5.61000E-001	-8.12605E-004	10	..........a	-327.74
	1946	9.735	-5.54801E-001	7.86244E-005	0.00000E+000	-5.54000E-001	-8.05939E-004	10	..........a	-327.74
	1953	9.77	-5.47717E-001	1.11626E-004	0.00000E+000	-5.47000E-001	-8.62605E-004	10	..........a	-327.74
	1960	9.805	-5.40809E-001	1.42740E-004	0.00000E+000	-5.40000E-001	-7.92605E-004	10	..........a	-327.74
	1967	9.84	-5.33851E-001	1.71799E-004	0.00000E+000	-5.33000E-001	-7.72606E-004	10	..........a	-327.74
	1974	9.875	-5.26776E-001	1.97515E-004	0.00000E+000	-5.26000E-001	-8.05939E-004	10	..........a	-327.74
	1981	9.91	-5.19852E-001	2.18319E-004	0.00000E+000	-5.19000E-001	-7.75939E-004	10	..........a	-327.74
	1988	9.945	-5.12792E-001	2.34862E-004	0.00000E+000	-5.12000E-001	-7.49272E-004	10	..........a	-327.74
	1995	9.98	-5.05856E-001	2.47478E-004	0.00000E+000	-5.05000E-001	-8.32606E-004	10	..........a	-327.74
	2002	10.015	-4.98786E-001	2.56217E-004	0.00000E+000	-4.98000E-001	-8.05939E-004	10	..........a	-327.74
	2009	10.05	-4.91761E-001	2.61097E-004	0.00000E+000	-4.91000E-001	-7.92605E-004	10	..........a	-327.74
	2016	10.085	-4.84834E-001	2.62935E-004	0.00000E+000	-4.84000E-001	-7.82606E-004	10	..........a	-327.74
	2023	10.12	-4.77864E-001	2.62082E-004	0.00000E+000	-4.77000E-001	-8.09272E-004	10	..........a	-327.74
	2030	10.155	-4.70794E-001	2.59125E-004	0.00000E+000	-4.70000E-001	-8.65939E-004	10	..........a	-327.74
	2037	10.19	-4.63841E-001	2.54145E-004	0.00000E+000	-4.63000E-001	-8.22606E-004	10	..........a	-327.74
	2044	10.225	-4.56789E-001	2.46960E-004	0.00000E+000	-4.56000E-001	-8.22606E-004	10	..........a	-327.74
	2051	10.26	-4.49842E-001	2.39257E-004	0.00000E+000	-4.49000E-001	-7.89272E-004	10	..........a	-327.74
	2058	10.295	-4.42842E-001	2.30317E-004	0.00000E+000	-4.42000E-001	-7.92605E-004	10	..........a	-327.74
	2065	10.33	-4.35786E-001	2.21327E-004	0.00000E+000	-4.35000E-001	-7.95939E-004	10	..........a	-327.74
	2072	10.365	-4.28852E-001	2.12855E-004	0.00000E+000	-4.28000E-001	-8.29272E-004	10	..........a	-327.74
	2079	10.4	-4.21924E-001	2.04467E-004	0.00000E+000	-4.21000E-001	-7.92605E-004	10	..........a	-327.74
	2086	10.435	-4.14811E-001	1.96062E-004	0.00000E+000	-4.14000E-001	-8.19272E-004	10	..........a	-327.74
	2093	10.47	-4.07891E-001	1.88258E-004	0.00000E+000	-4.07000E-001	-7.52606E-004	10	..........a	-327.74
	2100	10.505	-4.00834E-001	1.81407E-004	0.00000E+000	-4.00000E-001	-7.89272E-004	10	..........a	-327.74
	2107	10.54	-3.93899E-001	1.74723E-004	0.00000E+000	-3.93000E-001	-8.29272E-004	10	..........a	-327.74
	2114	10.575	-3.86822E-001	1.68340E-004	0.00000E+000	-3.86000E-001	-7.92605E-004	10	..........a	-327.74
	2121	10.61	-3.79822E-001	1.62692E-004	0.00000E+000	-3.79000E-001	-8.05939E-004	10	..........a	-327.74
	2128	10.645	-3.72827E-001	1.57595E-004	0.00000E+000	-3.72000E-001	-7.89272E-004	10	..........a	-327.74
	2135	10.68	-3.65836E-001	1.52549E-004	0.00000E+000	-3.65000E-001	-8.05939E-004	10	..........a	-327.74
	2142	10.715	-3.58834E-001	1.47820E-004	0.00000E+000	-3.58000E-001	-7.95939E-004	10	..........a	-327.74
	2149	10.75	-3.51857E-001	1.43960E-004	0.00000E+000	-3.51000E-001	-8.15939E-004	10	..........a	-327.74
	2156	10.785	-3.44981E-001	1.39883E-004	0.00000E+000	-3.44000E-001	-7.42605E-004	10	..........a	-327.74
	2163	10.82	-3.37834E-001	1.36006E-004	0.00000E+000	-3.37000E-001	-8.02606E-004	10	..........a	-327.74
	2170	10.855	-3.30912E-001	1.32898E-004	0.00000E+000	-3.30000E-001	-7.99272E-004	10	..........a	-327.74
	2177	10.89	-3.23864E-001	1.29489E-004	0.00000E+000	-3.23000E-001	-8.05939E-004	10	..........a	-327.74
	2184	10.925	-3.16927E-001	1.26665E-004	0.00000E+000	-3.16000E-001	-8.45939E-004	10	..........a	-327.74
	2191	10.96	-3.09886E-001	1.23340E-004	0.00000E+000	-3.09000E-001	-7.72606E-004	10	..........a	-327.74
	2198	10.995	-3.02816E-001	1.20349E-004	0.00000E+000	-3.02000E-001	-7.89272E-004	10	..........a	-327.74
	2205	11.03	-2.95877E-001	1.17859E-004	0.00000E+000	-2.95000E-001	-8.29272E-004	10	..........a	-327.74
	2212	11.065	-2.88921E-001	1.15938E-004	0.00000E+000	-2.88000E-001	-8.32606E-004	10	..........a	-327.74
	2219	11.1	-2.81847E-001	1.13147E-004	0.00000E+000	-2.81000E-001	-8.09272E-004	10	..........a	-327.74
	2226	11.135	-2.74899E-001	1.11125E-004	0.00000E+000	-2.74000E-001	-8.39272E-004	10	..........a	-327.74
	2233	11.17	-2.67867E-001	1.09070E-004	0.00000E+000	-2.67000E-001	-8.35939E-004	10	..........a	-327.74
	2240	11.205	-2.60872E-001	1.05912E-004	0.00000E+000	-2.60000E-001	-7.52606E-004	10	..........a	-327.74
	2247	11.24	-2.53881E-001	1.03221E-004	0.00000E+000	-2.53000E-001	-8.19272E-004	10	..........a	-327.74
	2254	11.275	-2.46851E-001	1.01684E-004	0.00000E+000	-2.46000E-001	-7.92605E-004	10	..........a	-327.74
	2261	11.31	-2.39916E-001	1.00097E-004	0.00000E+000	-2.39000E-001	-8.19272E-004	10	..........a	-327.74
	2268	11.345	-2.32869E-001	9.78909E-005	0.00000E+000	-2.32000E-001	-8.39272E-004	10	..........a	-327.74
	2275	11.38	-2.25909E-001	9.59024E-005	0.00000E+000	-2.25000E-001	-8.15939E-004	10	..........a	-327.74
	2282	11.415	-2.18884E-001	9.40978E-005	0.00000E+000	-2.18000E-001	-8.02606E-004	10	..........a	-327.74
	2289	11.45	-2.11869E-001	9.19589E-005	0.00000E+000	-2.11000E-001	-7.92605E-004	10	..........a	-327.74
	2296	11.485	-2.04941E-001	9.01542E-005	0.00000E+000	-2.04000E-001	-7.79272E-004	10	..........a	-327.74
	2303	11.52	-1.97917E-001	8.82660E-005	0.00000E+000	-1.97000E-001	-7.85939E-004	10	..........a	-327.74
	2310	11.555	-1.90892E-001	8.65115E-005	0.00000E+000	-1.90000E-001	-7.89272E-004	10	..........a	-327.74
	2317	11.59	-1.83962E-001	8.56426E-005	0.00000E+000	-1.83000E-001	-7.82606E-004	10	..........a	-327.74
	2324	11.625	-1.76941E-001	8.34870E-005	0.00000E+000	-1.76000E-001	-8.32606E-004	10	..........a	-327.74
	2331	11.66	-1.69936E-001	8.25178E-005	0.00000E+000	-1.69000E-001	-8.05939E-004	10	..........a	-327.74
	2338	11.695	-1.62957E-001	8.09471E-005	0.00000E+000	-1.62000E-001	-8.32606E-004	10	..........a	-327.74
	2345	11.73	-1.55899E-001	7.93931E-005	0.00000E+000	-1.55000E-001	-8.19272E-004	10	..........a	-327.74
	2352	11.765	-1.49007E-001	7.81231E-005	0.00000E+000	-1.48000E-001	-8.05939E-004	10	..........a	-327.74
	2359	11.8	-1.41934E-001	7.67529E-005	0.00000E+000	-1.41000E-001	-8.09272E-004	10	..........a	-327.74
	2366	11.835	-1.34946E-001	7.54161E-005	0.00000E+000	-1.34000E-001	-7.75939E-004	10	..........a	-327.74
	2373	11.87	-1.27932E-001	7.42464E-005	0.00000E+000	-1.27000E-001	-7.59272E-004	10	..........a	-327.74
	2380	11.905	-1.20952E-001	7.33106E-005	0.00000E+000	-1.20000E-001	-7.65939E-004	10	..........a	-327.74
	2387	11.94	-1.13909E-001	7.14391E-005	0.00000E+000	-1.13000E-001	-8.09272E-004	10	..........a	-327.74
	2394	11.975	-1.06949E-001	7.05034E-005	0.00000E+000	-1.06000E-001	-8.15939E-004	10	..........a	-327.74
	2401	12.01	-9.99706E-002	6.98684E-005	0.00000E+000	-9.90000E-002	-8.02606E-004	10	..........a	-327.74
	2408	12.045	-9.30056E-002	6.89159E-005	0.00000E+000	-9.20000E-002	-7.92605E-004	10	..........a	-327.74
	2415	12.08	-8.59806E-002	6.82141E-005	0.00000E+000	-8.50000E-002	-8.29272E-004	10	..........a	-327.74
	2422	12.115	-7.89089E-002	6.70611E-005	0.00000E+000	-7.80000E-002	-8.35939E-004	10	..........a	-327.74
	2429	12.15	-7.19689E-002	6.64763E-005	0.00000E+000	-7.10000E-002	-8.12605E-004	10	..........a	-327.74
	2436	12.185	-6.49606E-002	6.56909E-005	0.00000E+000	-6.40000E-002	-8.22606E-004	10	..........a	-327.74
	2443	12.22	-5.79539E-002	6.50894E-005	0.00000E+000	-5.70000E-002	-8.09272E-004	10	..........a	-327.74
	2450	12.255	-5.09756E-002	6.43876E-005	0.00000E+000	-5.00000E-002	-8.39272E-004	10	..........a	-327.74
	2457	12.29	-4.39823E-002	6.38194E-005	0.00000E+000	-4.30000E-002	-8.29272E-004	10	..........a	-327.74
	2464	12.325	-3.69623E-002	6.34017E-005	0.00000E+000	-3.60000E-002	-8.49272E-004	10	..........a	-327.74
	2471	12.36	-2.99606E-002	6.26832E-005	0.00000E+000	-2.90000E-002	-7.89272E-004	10	..........a	-327.74
	2478	12.395	-2.29356E-002	6.21150E-005	0.00000E+000	-2.20000E-002	-8.35939E-004	10	..........a	-327.74
	2485	12.43	-1.59873E-002	6.12628E-005	0.00000E+000	-1.50000E-002	-8.12605E-004	10	..........a	-327.74
	2492	12.465	-9.10394E-003	6.09955E-005	0.00000E+000	-8.00000E-003	-7.82606E-004	10	..........a	-327.74
	2499	12.5	-1.96060E-003	6.04607E-005	0.00000E+000	-1.00000E-003	-8.05939E-004	10	..........a	-327.74
	2506	12.535	4.98273E-003	5.99761E-005	0.00000E+000	5.99998E-003	-7.72606E-004	10	..........a	-327.74
	2513	12.57	1.20344E-002	5.92576E-005	0.00000E+000	1.30000E-002	-7.85939E-004	10	..........a	-327.74
	2520	12.605	1.89694E-002	5.87062E-005	0.00000E+000	2.00000E-002	-8.29272E-004	10	..........a	-327.74
	2527	12.64	2.59911E-002	5.84555E-005	0.00000E+000	2.70000E-002	-8.09272E-004	10	..........a	-327.74
	2534	12.675	3.30311E-002	5.78540E-005	0.00000E+000	3.40000E-002	-7.79272E-004	10	..........a	-327.74
	2541	12.71	3.99261E-002	5.72524E-005	0.00000E+000	4.10000E-002	-7.92605E-004	10	..........a	-327.74
	2548	12.745	4.70477E-002	5.65005E-005	0.00000E+000	4.80000E-002	-8.25939E-004	10	..........a	-327.74
	2555	12.78	5.40044E-002	5.58488E-005	0.00000E+000	5.50000E-002	-7.95939E-004	10	..........a	-327.74
	2562	12.815	6.09927E-002	5.53642E-005	0.00000E+000	6.20000E-002	-8.05939E-004	10	..........a	-327.74
	2569	12.85	6.80011E-002	5.49632E-005	0.00000E+000	6.90000E-002	-8.15939E-004	10	..........a	-327.74
	2576	12.885	7.49577E-002	5.41444E-005	0.00000E+000	7.60000E-002	-8.19272E-004	10	..........a	-327.74
	2583	12.92	8.19777E-002	5.37768E-005	0.00000E+000	8.30000E-002	-8.02606E-004	10	..........a	-327.74
	2590	12.955	8.90011E-002	5.32086E-005	0.00000E+000	9.00000E-002	-8.09272E-004	10	..........a	-327.74
	2597	12.99	9.59444E-002	5.25402E-005	0.00000E+000	9.70000E-002	-8.22606E-004	10	..........a	-327.74
	2604	13.025	1.02926E-001	5.21225E-005	0.00000E+000	1.04000E-001	-8.19272E-004	10	..........a	-327.74
	2611	13.06	1.09989E-001	5.16880E-005	0.00000E+000	1.11000E-001	-8.22606E-004	10	..........a	-327.74
	2618	13.095	1.16931E-001	5.08693E-005	0.00000E+000	1.18000E-001	-8.22606E-004	10	..........a	-327.74
	2625	13.13	1.23998E-001	4.98667E-005	0.00000E+000	1.25000E-001	-8.02606E-004	10	..........a	-327.74
	2632	13.165	1.30994E-001	4.95993E-005	0.00000E+000	1.32000E-001	-8.12605E-004	10	..........a	-327.74
	2639	13.2	1.37968E-001	4.88306E-005	0.00000E+000	1.39000E-001	-7.82606E-004	10	..........a	-327.74
	2646	13.235	1.45028E-001	4.81455E-005	0.00000E+000	1.46000E-001	-8.42605E-004	10	..........a	-327.74
	2653	13.27	1.51994E-001	4.75774E-005	0.00000E+000	1.53000E-001	-8.49272E-004	10	..........a	-327.74
	2660	13.305	1.58951E-001	4.71095E-005	0.00000E+000	1.60000E-001	-8.39272E-004	10	..........a	-327.74
	2667	13.34	1.65986E-001	4.61905E-005	0.00000E+000	1.67000E-001	-7.92605E-004	10	..........a	-327.74
	2674	13.375	1.72923E-001	4.60234E-005	0.00000E+000	1.74000E-001	-8.29272E-004	10	..........a	-327.74
	2681	13.41	1.79911E-001	4.54887E-005	0.00000E+000	1.81000E-001	-8.09272E-004	10	..........a	-327.74
	2688	13.445	1.86906E-001	4.50375E-005	0.00000E+000	1.88000E-001	-8.29272E-004	10	..........a	-327.74
	2695	13.48	1.93901E-001	4.39514E-005	0.00000E+000	1.95000E-001	-8.15939E-004	10	..........a	-327.74
	2702	13.515	2.00968E-001	4.37675E-005	0.00000E+000	2.02000E-001	-8.15939E-004	10	..........a	-327.74
	2709	13.55	2.07868E-001	4.33498E-005	0.00000E+000	2.09000E-001	-7.99272E-004	10	..........a	-327.74
	2716	13.585	2.14896E-001	4.25143E-005	0.00000E+000	2.16000E-001	-7.55939E-004	10	..........a	-327.74
	2723	13.62	2.21953E-001	4.22971E-005	0.00000E+000	2.23000E-001	-7.95939E-004	10	..........a	-327.74
	2730	13.655	2.28898E-001	4.17289E-005	0.00000E+000	2.30000E-001	-7.79272E-004	10	..........a	-327.74
	2737	13.69	2.35893E-001	4.09770E-005	0.00000E+000	2.37000E-001	-7.99272E-004	10	..........a	-327.74
	2744	13.725	2.42926E-001	4.08099E-005	0.00000E+000	2.44000E-001	-7.69272E-004	10	..........a	-327.74
	2751	13.76	2.49881E-001	4.07431E-005	0.00000E+000	2.51000E-001	-7.89272E-004	10	..........a	-327.74
	2758	13.795	2.56923E-001	4.03921E-005	0.00000E+000	2.58000E-001	-7.89272E-004	10	..........a	-327.74
	2765	13.83	2.63916E-001	3.94731E-005	0.00000E+000	2.65000E-001	-7.99272E-004	10	..........a	-327.74
	2772	13.865	2.70933E-001	3.91556E-005	0.00000E+000	2.72000E-001	-8.29272E-004	10	..........a	-327.74
	2779	13.9	2.77974E-001	3.92057E-005	0.00000E+000	2.79000E-001	-8.12605E-004	10	..........a	-327.74
	2786	13.935	2.84904E-001	3.89050E-005	0.00000E+000	2.86000E-001	-7.89272E-004	10	..........a	-327.74
	2793	13.97	2.91889E-001	3.85373E-005	0.00000E+000	2.93000E-001	-7.95939E-004	10	..........a	-327.74
	2800	14.005	2.98871E-001	3.82199E-005	0.00000E+000	3.00000E-001	-7.89272E-004	10	..........a	-327.74
	2807	14.04	3.05898E-001	3.82867E-005	0.00000E+000	3.07000E-001	-8.32606E-004	10	..........a	-327.74
	2814	14.075	3.12913E-001	3.83368E-005	0.00000E+000	3.14000E-001	-8.29272E-004	10	..........a	-327.74
	2821	14.11	3.19881E-001	3.80695E-005	0.00000E+000	3.21000E-001	-8.15939E-004	10	..........a	-327.74
	2828	14.145	3.26868E-001	3.78355E-005	0.00000E+000	3.28000E-001	-8.09272E-004	10	..........a	-327.74
	2835	14.18	3.33948E-001	3.77520E-005	0.00000E+000	3.35000E-001	-8.29272E-004	10	..........a	-327.74
	2842	14.215	3.40871E-001	3.79191E-005	0.00000E+000	3.42000E-001	-8.19272E-004	10	..........a	-327.74
	2849	14.25	3.47741E-001	3.75348E-005	0.00000E+000	3.49000E-001	-8.12605E-004	10	..........a	-327.74
	2856	14.285	3.54886E-001	3.75180E-005	0.00000E+000	3.56000E-001	-8.09272E-004	10	..........a	-327.74
	2863	14.32	3.61819E-001	3.72340E-005	0.00000E+000	3.63000E-001	-8.25939E-004	10	..........a	-327.74
	2870	14.355	3.68879E-001	3.75682E-005	0.00000E+000	3.70000E-001	-7.99272E-004	10	..........a	-327.74
	2877	14.39	3.75756E-001	3.71838E-005	0.00000E+000	3.77000E-001	-7.69272E-004	10	..........a	-327.74
	2884	14.425	3.82814E-001	3.69165E-005	0.00000E+000	3.84000E-001	-8.09272E-004	10	..........a	-327.74
	2891	14.46	3.89864E-001	3.68162E-005	0.00000E+000	3.91000E-001	-8.12605E-004	10	..........a	-327.74
	2898	14.495	3.96844E-001	3.63818E-005	0.00000E+000	3.98000E-001	-8.32606E-004	10	..........a	-327.74
	2905	14.53	4.03726E-001	3.65489E-005	0.00000E+000	4.05000E-001	-7.99272E-004	10	..........a	-327.74
	2912	14.565	4.10834E-001	3.60977E-005	0.00000E+000	4.12000E-001	-8.05939E-004	10	..........a	-327.74
	2919	14.6	4.17851E-001	3.57301E-005	0.00000E+000	4.19000E-001	-8.22606E-004	10	..........a	-327.74
	2926	14.635	4.24861E-001	3.56298E-005	0.00000E+000	4.26000E-001	-8.05939E-004	10	..........a	-327.74
	2933	14.67	4.31789E-001	3.57134E-005	0.00000E+000	4.33000E-001	-8.55939E-004	10	..........a	-327.74
	2940	14.705	4.38824E-001	3.52288E-005	0.00000E+000	4.40000E-001	-7.95939E-004	10	..........a	-327.74
	2947	14.74	4.45884E-001	3.48779E-005	0.00000E+000	4.47000E-001	-8.25939E-004	10	..........a	-327.74
	2954	14.775	4.52849E-001	3.46774E-005	0.00000E+000	4.54000E-001	-8.19272E-004	10	..........a	-327.74
	2961	14.81	4.59856E-001	3.40591E-005	0.00000E+000	4.61000E-001	-8.45939E-004	10	..........a	-327.74
	2968	14.845	4.66861E-001	3.36413E-005	0.00000E+000	4.68000E-001	-7.95939E-004	10	..........a	-327.74
	2975	14.88	4.73853E-001	3.34742E-005	0.00000E+000	4.75000E-001	-8.05939E-004	10	..........a	-327.74
	2982	14.915	4.80911E-001	3.32069E-005	0.00000E+000	4.82000E-001	-8.15939E-004	10	..........a	-327.74
	2989	14.95	4.87834E-001	3.31066E-005	0.00000E+000	4.89000E-001	-8.19272E-004	10	..........a	-327.74
	2996	14.985	4.94808E-001	3.28226E-005	0.00000E+000	4.96000E-001	-8.12605E-004	10	..........a	-327.74
	3000	15.005	4.98834E-001	3.28727E-005	0.00000E+000	5.00000E-001	-8.09272E-004	10	..........a	-327.74
CURVE2	TABLE
	Pt	T	Vf	Im	Vu	Sig	Ach	IERange	Over	Temp
	#	s	V vs. Ref.	A	V	V	V	#	bits	deg C
	3001	15.01	4.98828E-001	3.22043E-005	0.00000E+000	5.00000E-001	-8.75939E-004	10	..........a	-327.74