File: data/02-SI/Figures_S9_S11_RDE/14btmapaq-rde/1mkcl-5mmolar14btmapaq-nitrogen-600mvpers.DTA
EXPLAIN
TAG	CV
TITLE	LABEL	Cyclic Voltammetry	Test &Identifier
DATE	LABEL	1/31/2023	Date
TIME	LABEL	14:03:18	Time
NOTES	NOTES	1	&Notes...

PSTAT	PSTAT	REF3000-21108	Potentiostat
VINIT	POTEN	5.00000E-001	F	Initial &E (V)
VLIMIT1	POTEN	-1.00000E+000	F	Scan Limit &1 (V)
VLIMIT2	POTEN	5.00000E-001	F	Scan Limit &2 (V)
VFINAL	POTEN	5.00000E-001	F	Final &E (V)
SCANRATE	QUANT	5.99999E+002	&Scan Rate (mV/s)
STEPSIZE	QUANT	1.00000E+000	St&ep Size (mV)
CYCLES	IQUANT	1	C&ycles (#)
IMODE	SELECTOR	1	I/E Range &Mode
IRANGE	QUANT	1.00000E+001	&Max Current (mA)
AREA	QUANT	1.00000E+000	Electrode &Area (cm^2)
ELECTRODETYPE	SELECTOR	0	Electrode Type
STRIPPING	TOGGLE	F	Used for Stripping
POLARITY	TOGGLE	F	Signal Polarity
CONDIT	TWOPARAM	F	1.50000E+001	0.00000E+000	Conditionin&g	Time(s)	E(V)
DELAY	TWOPARAM	F	5.00000E+000	0.00000E+000	Init. De&lay	Time(s)	Stab.(mV/s)
EQDELAY	QUANT	0.00000E+000	Equil. &Time (s)
IRCOMP	SELECTOR	0	IRCom&p
PFCOR	QUANT	5.00000E+001	PF Corr. (ohm)
SAMPLINGMODE	SELECTOR	1	Sampling &Mode
EOC	QUANT	0	Open Circuit (V)
PSTATMODEL	IQUANT	5	Pstat Model
PSTATSECTION	LABEL	REF3000-21108	Pstat Section
PSTATSERIALNO	LABEL	21108	Pstat Serial Number
CTRLMODE	IQUANT	1	Control Mode
ELECTROMETER	IQUANT	0	RE=0 or CS=1
IESTAB	IQUANT	2	I/E Stability
CASPEED	IQUANT	4	Control Amp Speed
CONVENTION	IQUANT	1	Current Convention
ICHRANGE	IQUANT	2	Ich Range
ICHRANGEMODE	TOGGLE	F	Ich Auto Range
ICHOFFSETENABLE	TOGGLE	F	Ich Offset Enable
ICHOFFSET	QUANT	0	Ich Offset (V)
ICHFILTER	IQUANT	1	Ich Filter
VCHRANGE	IQUANT	2	Vch Range
VCHRANGEMODE	TOGGLE	F	Vch Auto Range
VCHOFFSETENABLE	TOGGLE	F	Vch Offset Enable
VCHOFFSET	QUANT	0	Vch Offset (V)
VCHFILTER	IQUANT	1	Vch Filter
ACHRANGE	IQUANT	2	Ach Range
ACHOFFSETENABLE	TOGGLE	F	Ach Offset Enable
ACHOFFSET	QUANT	0	Ach Offset (V)
ACHFILTER	IQUANT	0	Ach Filter
IERANGELOWERLIMIT	IQUANT	2	I/E Range Lower Limit
IERANGEMODE	TOGGLE	F	I/E AutoRange
IERANGE	IQUANT	10	I/E Range
POSFEEDENABLE	TOGGLE	F	Positive Feedback IR Comp
POSFEEDRESISTANCE	QUANT	0	Positive Feedback Resistance (ohm)
ACHSELECT	IQUANT	0	Ach Select
SENSECABLEID	IQUANT	14	Sense Cable ID
PWRCABLEID	IQUANT	7	Power Cable ID
DCCALDATE	LABEL	11/9/2022	DC Calibration Date
ACCALDATE	LABEL	11/9/2022	AC Calibration Date
THERMOSELECT	IQUANT	1	Thermo Select
FRAMEWORKVERSION	LABEL	7.8.2	Framework Version
INSTRUMENTVERSION	LABEL	4.40	Instrument Version
COMPLIANCEVOLTAGE	IQUANT	0	Compliance Voltage
CURVE1	TABLE
	Pt	T	Vf	Im	Vu	Sig	Ach	IERange	Over	Temp
	#	s	V vs. Ref.	A	V	V	V	#	bits	deg C
	0	0.001667	4.98711E-001	8.01056E-005	0.00000E+000	5.00000E-001	-8.19272E-004	10	..........a	-327.74
	7	0.013333	4.91651E-001	6.79742E-005	0.00000E+000	4.93000E-001	-8.29272E-004	10	..........a	-327.74
	14	0.025	4.84716E-001	6.16579E-005	0.00000E+000	4.86000E-001	-8.29272E-004	10	..........a	-327.74
	21	0.036667	4.77771E-001	5.48402E-005	0.00000E+000	4.79000E-001	-8.09272E-004	10	..........a	-327.74
	28	0.048333	4.70666E-001	5.06294E-005	0.00000E+000	4.72000E-001	-8.09272E-004	10	..........a	-327.74
	35	0.06	4.63676E-001	4.82231E-005	0.00000E+000	4.65000E-001	-8.59272E-004	10	..........a	-327.74
	42	0.071667	4.56656E-001	4.45135E-005	0.00000E+000	4.58000E-001	-7.89272E-004	10	..........a	-327.74
	49	0.083333	4.49701E-001	4.20071E-005	0.00000E+000	4.51000E-001	-7.79272E-004	10	..........a	-327.74
	56	0.095	4.42701E-001	3.91497E-005	0.00000E+000	4.44000E-001	-7.59272E-004	10	..........a	-327.74
	63	0.106667	4.35671E-001	3.80468E-005	0.00000E+000	4.37000E-001	-8.49272E-004	10	..........a	-327.74
	70	0.118333	4.28681E-001	3.58912E-005	0.00000E+000	4.30000E-001	-8.49272E-004	10	..........a	-327.74
	77	0.13	4.21746E-001	3.42871E-005	0.00000E+000	4.23000E-001	-8.29272E-004	10	..........a	-327.74
	84	0.141667	4.14686E-001	3.21816E-005	0.00000E+000	4.16000E-001	-8.39272E-004	10	..........a	-327.74
	91	0.153333	4.07691E-001	3.05775E-005	0.00000E+000	4.09000E-001	-8.39272E-004	10	..........a	-327.74
	98	0.165	4.00706E-001	2.87227E-005	0.00000E+000	4.02000E-001	-8.29272E-004	10	..........a	-327.74
	105	0.176667	3.93706E-001	2.79707E-005	0.00000E+000	3.95000E-001	-7.79272E-004	10	..........a	-327.74
	112	0.188333	3.86761E-001	2.62162E-005	0.00000E+000	3.88000E-001	-7.99272E-004	10	..........a	-327.74
	119	0.2	3.79741E-001	2.45619E-005	0.00000E+000	3.81000E-001	-7.89272E-004	10	..........a	-327.74
	126	0.211667	3.72681E-001	2.42611E-005	0.00000E+000	3.74000E-001	-8.29272E-004	10	..........a	-327.74
	133	0.223333	3.65711E-001	2.25066E-005	0.00000E+000	3.67000E-001	-7.89272E-004	10	..........a	-327.74
	140	0.235	3.58721E-001	2.21557E-005	0.00000E+000	3.60000E-001	-7.49272E-004	10	..........a	-327.74
	147	0.246667	3.51691E-001	2.06518E-005	0.00000E+000	3.53000E-001	-7.99272E-004	10	..........a	-327.74
	154	0.258333	3.44756E-001	2.20053E-005	0.00000E+000	3.46000E-001	-8.39272E-004	10	..........a	-327.74
	161	0.27	3.37691E-001	1.99500E-005	0.00000E+000	3.39000E-001	-8.59272E-004	10	..........a	-327.74
	168	0.281667	3.30796E-001	1.88973E-005	0.00000E+000	3.32000E-001	-7.49272E-004	10	..........a	-327.74
	175	0.293333	3.23766E-001	1.69923E-005	0.00000E+000	3.25000E-001	-8.09272E-004	10	..........a	-327.74
	182	0.305	3.16771E-001	1.82456E-005	0.00000E+000	3.18000E-001	-7.99272E-004	10	..........a	-327.74
	189	0.316667	3.09796E-001	1.67417E-005	0.00000E+000	3.11000E-001	-7.99272E-004	10	..........a	-327.74
	196	0.328333	3.02806E-001	1.54884E-005	0.00000E+000	3.04000E-001	-7.89272E-004	10	..........a	-327.74
	203	0.34	2.95811E-001	1.67417E-005	0.00000E+000	2.97000E-001	-8.29272E-004	10	..........a	-327.74
	210	0.351667	2.88766E-001	1.49871E-005	0.00000E+000	2.90000E-001	-7.49272E-004	10	..........a	-327.74
	217	0.363333	2.81746E-001	1.44357E-005	0.00000E+000	2.83000E-001	-8.59272E-004	10	..........a	-327.74
	224	0.375	2.74746E-001	1.21297E-005	0.00000E+000	2.76000E-001	-8.39272E-004	10	..........a	-327.74
	231	0.386667	2.67801E-001	1.35835E-005	0.00000E+000	2.69000E-001	-6.89272E-004	10	..........a	-327.74
	238	0.398333	2.60746E-001	1.21799E-005	0.00000E+000	2.62000E-001	-7.39272E-004	10	..........a	-327.74
	245	0.41	2.53806E-001	1.12775E-005	0.00000E+000	2.55000E-001	-7.89272E-004	10	..........a	-327.74
	252	0.421667	2.46746E-001	1.10269E-005	0.00000E+000	2.48000E-001	-7.19272E-004	10	..........a	-327.74
	259	0.433333	2.39776E-001	1.09266E-005	0.00000E+000	2.41000E-001	-8.09272E-004	10	..........a	-327.74
	266	0.445	2.32806E-001	9.32249E-006	0.00000E+000	2.34000E-001	-7.79272E-004	10	..........a	-327.74
	273	0.456667	2.25686E-001	9.82378E-006	0.00000E+000	2.27000E-001	-8.29272E-004	10	..........a	-327.74
	280	0.468333	2.18831E-001	9.37262E-006	0.00000E+000	2.20000E-001	-8.39272E-004	10	..........a	-327.74
	287	0.48	2.11761E-001	8.97158E-006	0.00000E+000	2.13000E-001	-7.49272E-004	10	..........a	-327.74
	294	0.491667	2.04821E-001	7.81860E-006	0.00000E+000	2.06000E-001	-7.79272E-004	10	..........a	-327.74
	301	0.503333	1.97851E-001	7.46769E-006	0.00000E+000	1.99000E-001	-8.49272E-004	10	..........a	-327.74
	308	0.515	1.90816E-001	7.06665E-006	0.00000E+000	1.92000E-001	-7.49272E-004	10	..........a	-327.74
	315	0.526667	1.83811E-001	7.16691E-006	0.00000E+000	1.85000E-001	-8.49272E-004	10	..........a	-327.74
	322	0.538333	1.76841E-001	6.36483E-006	0.00000E+000	1.78000E-001	-7.79272E-004	10	..........a	-327.74
	329	0.55	1.69771E-001	5.66302E-006	0.00000E+000	1.71000E-001	-8.39272E-004	10	..........a	-327.74
	336	0.561667	1.62816E-001	6.61548E-006	0.00000E+000	1.64000E-001	-8.49272E-004	10	..........a	-327.74
	343	0.573333	1.55796E-001	5.96380E-006	0.00000E+000	1.57000E-001	-7.69272E-004	10	..........a	-327.74
	350	0.585	1.48821E-001	4.86094E-006	0.00000E+000	1.50000E-001	-8.19272E-004	10	..........a	-327.74
	357	0.596667	1.41921E-001	4.86094E-006	0.00000E+000	1.43000E-001	-8.49272E-004	10	..........a	-327.74
	364	0.608333	1.34801E-001	4.35965E-006	0.00000E+000	1.36000E-001	-7.89272E-004	10	..........a	-327.74
	371	0.62	1.27771E-001	4.20926E-006	0.00000E+000	1.29000E-001	-8.89272E-004	10	..........a	-327.74
	378	0.631667	1.20916E-001	3.10640E-006	0.00000E+000	1.22000E-001	-8.39272E-004	10	..........a	-327.74
	385	0.643333	1.13841E-001	3.25679E-006	0.00000E+000	1.15000E-001	-7.59272E-004	10	..........a	-327.74
	392	0.655	1.06846E-001	2.80563E-006	0.00000E+000	1.08000E-001	-8.39272E-004	10	..........a	-327.74
	399	0.666667	9.98260E-002	2.30433E-006	0.00000E+000	1.01000E-001	-8.09272E-004	10	..........a	-327.74
	406	0.678333	9.28560E-002	1.90329E-006	0.00000E+000	9.40000E-002	-7.99272E-004	10	..........a	-327.74
	413	0.69	8.58760E-002	-2.52286E-007	0.00000E+000	8.70000E-002	-7.39272E-004	10	..........a	-327.74
	420	0.701667	7.88210E-002	3.49270E-007	0.00000E+000	8.00000E-002	-8.19272E-004	10	..........a	-327.74
	427	0.713333	7.18310E-002	-5.53064E-007	0.00000E+000	7.30000E-002	-7.99272E-004	10	..........a	-327.74
	434	0.725	6.49260E-002	3.99400E-007	0.00000E+000	6.60000E-002	-8.29272E-004	10	..........a	-327.74
	441	0.736667	5.78560E-002	-2.10709E-006	0.00000E+000	5.90000E-002	-7.69272E-004	10	..........a	-327.74
	448	0.748333	5.08810E-002	-8.53843E-007	0.00000E+000	5.20000E-002	-7.69272E-004	10	..........a	-327.74
	455	0.76	4.38310E-002	-1.80631E-006	0.00000E+000	4.50000E-002	-7.49272E-004	10	..........a	-327.74
	462	0.771667	3.68460E-002	-3.15981E-006	0.00000E+000	3.80000E-002	-7.39272E-004	10	..........a	-327.74
	469	0.783333	2.99110E-002	-4.41305E-006	0.00000E+000	3.10000E-002	-7.09272E-004	10	..........a	-327.74
	476	0.795	2.28760E-002	-4.51331E-006	0.00000E+000	2.40000E-002	-7.39272E-004	10	..........a	-327.74
	483	0.806667	1.58460E-002	-5.86681E-006	0.00000E+000	1.70000E-002	-7.69272E-004	10	..........a	-327.74
	490	0.818333	8.84600E-003	-5.81668E-006	0.00000E+000	9.99999E-003	-7.89272E-004	10	..........a	-327.74
	497	0.83	1.84100E-003	-5.36552E-006	0.00000E+000	2.99999E-003	-7.19272E-004	10	..........a	-327.74
	504	0.841667	-5.14900E-003	-6.16759E-006	0.00000E+000	-4.00001E-003	-6.69272E-004	10	..........a	-327.74
	511	0.853333	-1.22190E-002	-6.51850E-006	0.00000E+000	-1.10000E-002	-7.79272E-004	10	..........a	-327.74
	518	0.865	-1.91790E-002	-7.72161E-006	0.00000E+000	-1.80000E-002	-7.69272E-004	10	..........a	-327.74
	525	0.876667	-2.61140E-002	-7.42083E-006	0.00000E+000	-2.50000E-002	-8.19272E-004	10	..........a	-327.74
	532	0.888333	-3.31640E-002	-8.12265E-006	0.00000E+000	-3.20000E-002	-7.89272E-004	10	..........a	-327.74
	539	0.9	-4.01290E-002	-8.37330E-006	0.00000E+000	-3.90000E-002	-8.19272E-004	10	..........a	-327.74
	546	0.911667	-4.70890E-002	-9.37589E-006	0.00000E+000	-4.60000E-002	-7.79272E-004	10	..........a	-327.74
	553	0.923333	-5.41090E-002	-9.12524E-006	0.00000E+000	-5.30000E-002	-7.69272E-004	10	..........a	-327.74
	560	0.935	-6.11590E-002	-8.62395E-006	0.00000E+000	-6.00000E-002	-7.49272E-004	10	..........a	-327.74
	567	0.946667	-6.81090E-002	-9.47615E-006	0.00000E+000	-6.70000E-002	-7.79272E-004	10	..........a	-327.74
	574	0.95833	-7.51540E-002	-9.12524E-006	0.00000E+000	-7.40000E-002	-7.39272E-004	10	..........a	-327.74
	581	0.97	-8.20740E-002	-9.72680E-006	0.00000E+000	-8.10000E-002	-7.29272E-004	10	..........a	-327.74
	588	0.98167	-8.91490E-002	-9.32576E-006	0.00000E+000	-8.80000E-002	-7.79272E-004	10	..........a	-327.74
	595	0.99333	-9.61390E-002	-1.04787E-005	0.00000E+000	-9.50000E-002	-7.39272E-004	10	..........a	-327.74
	602	1.005	-1.03094E-001	-9.52628E-006	0.00000E+000	-1.02000E-001	-7.89272E-004	10	..........a	-327.74
	609	1.01667	-1.10104E-001	-1.12808E-005	0.00000E+000	-1.09000E-001	-7.69272E-004	10	..........a	-327.74
	616	1.02833	-1.17114E-001	-1.02281E-005	0.00000E+000	-1.16000E-001	-7.49272E-004	10	..........a	-327.74
	623	1.04	-1.24144E-001	-1.04286E-005	0.00000E+000	-1.23000E-001	-7.89272E-004	10	..........a	-327.74
	630	1.05167	-1.31124E-001	-1.04787E-005	0.00000E+000	-1.30000E-001	-7.19272E-004	10	..........a	-327.74
	637	1.06333	-1.38054E-001	-1.07294E-005	0.00000E+000	-1.37000E-001	-7.59272E-004	10	..........a	-327.74
	644	1.075	-1.45094E-001	-1.13811E-005	0.00000E+000	-1.44000E-001	-7.49272E-004	10	..........a	-327.74
	651	1.08667	-1.52119E-001	-1.17821E-005	0.00000E+000	-1.51000E-001	-7.39272E-004	10	..........a	-327.74
	658	1.09833	-1.59039E-001	-1.23335E-005	0.00000E+000	-1.58000E-001	-7.89272E-004	10	..........a	-327.74
	665	1.11	-1.66074E-001	-1.08798E-005	0.00000E+000	-1.65000E-001	-7.99272E-004	10	..........a	-327.74
	672	1.12167	-1.73124E-001	-1.14312E-005	0.00000E+000	-1.72000E-001	-7.59272E-004	10	..........a	-327.74
	679	1.13333	-1.80059E-001	-1.27847E-005	0.00000E+000	-1.79000E-001	-7.59272E-004	10	..........a	-327.74
	686	1.145	-1.87109E-001	-1.25842E-005	0.00000E+000	-1.86000E-001	-7.89272E-004	10	..........a	-327.74
	693	1.15667	-1.94044E-001	-1.23335E-005	0.00000E+000	-1.93000E-001	-7.39272E-004	10	..........a	-327.74
	700	1.16833	-2.01119E-001	-1.30855E-005	0.00000E+000	-2.00000E-001	-7.29272E-004	10	..........a	-327.74
	707	1.18	-2.08034E-001	-1.34865E-005	0.00000E+000	-2.07000E-001	-7.19272E-004	10	..........a	-327.74
	714	1.19167	-2.14954E-001	-1.30855E-005	0.00000E+000	-2.14000E-001	-7.99272E-004	10	..........a	-327.74
	721	1.20333	-2.22014E-001	-1.47398E-005	0.00000E+000	-2.21000E-001	-7.79272E-004	10	..........a	-327.74
	728	1.215	-2.29084E-001	-1.46896E-005	0.00000E+000	-2.28000E-001	-7.19272E-004	10	..........a	-327.74
	735	1.22667	-2.36024E-001	-1.50907E-005	0.00000E+000	-2.35000E-001	-7.39272E-004	10	..........a	-327.74
	742	1.23833	-2.43044E-001	-1.47398E-005	0.00000E+000	-2.42000E-001	-7.89272E-004	10	..........a	-327.74
	749	1.25	-2.50034E-001	-1.65444E-005	0.00000E+000	-2.49000E-001	-7.49272E-004	10	..........a	-327.74
	756	1.26167	-2.57044E-001	-1.68452E-005	0.00000E+000	-2.56000E-001	-8.19272E-004	10	..........a	-327.74
	763	1.27333	-2.64024E-001	-1.79982E-005	0.00000E+000	-2.63000E-001	-6.99272E-004	10	..........a	-327.74
	770	1.285	-2.71019E-001	-1.78979E-005	0.00000E+000	-2.70000E-001	-7.69272E-004	10	..........a	-327.74
	777	1.29667	-2.78039E-001	-1.88504E-005	0.00000E+000	-2.77000E-001	-7.59272E-004	10	..........a	-327.74
	784	1.30833	-2.85079E-001	-2.04546E-005	0.00000E+000	-2.84000E-001	-7.39272E-004	10	..........a	-327.74
	791	1.32	-2.92014E-001	-1.95522E-005	0.00000E+000	-2.91000E-001	-8.09272E-004	10	..........a	-327.74
	798	1.33167	-2.99039E-001	-2.20587E-005	0.00000E+000	-2.98000E-001	-7.29272E-004	10	..........a	-327.74
	805	1.34333	-3.06054E-001	-2.16075E-005	0.00000E+000	-3.05000E-001	-8.09272E-004	10	..........a	-327.74
	812	1.355	-3.12994E-001	-2.22592E-005	0.00000E+000	-3.12000E-001	-7.69272E-004	10	..........a	-327.74
	819	1.36667	-3.20029E-001	-2.29109E-005	0.00000E+000	-3.19000E-001	-6.79272E-004	10	..........a	-327.74
	826	1.37833	-3.27034E-001	-2.51166E-005	0.00000E+000	-3.26000E-001	-7.69272E-004	10	..........a	-327.74
	833	1.39	-3.34004E-001	-2.52169E-005	0.00000E+000	-3.33000E-001	-8.09272E-004	10	..........a	-327.74
	840	1.40167	-3.41059E-001	-2.66205E-005	0.00000E+000	-3.40000E-001	-7.99272E-004	10	..........a	-327.74
	847	1.41333	-3.47979E-001	-2.71719E-005	0.00000E+000	-3.47000E-001	-7.49272E-004	10	..........a	-327.74
	854	1.425	-3.55039E-001	-2.79740E-005	0.00000E+000	-3.54000E-001	-7.59272E-004	10	..........a	-327.74
	861	1.43667	-3.62009E-001	-3.01797E-005	0.00000E+000	-3.61000E-001	-7.39272E-004	10	..........a	-327.74
	868	1.44833	-3.69009E-001	-3.14330E-005	0.00000E+000	-3.68000E-001	-7.89272E-004	10	..........a	-327.74
	875	1.46	-3.76019E-001	-3.44407E-005	0.00000E+000	-3.75000E-001	-7.79272E-004	10	..........a	-327.74
	882	1.47167	-3.83009E-001	-3.63457E-005	0.00000E+000	-3.82000E-001	-7.49272E-004	10	..........a	-327.74
	889	1.48333	-3.90039E-001	-3.86015E-005	0.00000E+000	-3.89000E-001	-7.69272E-004	10	..........a	-327.74
	896	1.495	-3.96994E-001	-4.19602E-005	0.00000E+000	-3.96000E-001	-7.99272E-004	10	..........a	-327.74
	903	1.50667	-4.04009E-001	-4.56698E-005	0.00000E+000	-4.03000E-001	-7.19272E-004	10	..........a	-327.74
	910	1.51833	-4.10954E-001	-5.14347E-005	0.00000E+000	-4.10000E-001	-7.59272E-004	10	..........a	-327.74
	917	1.53	-4.17954E-001	-5.95056E-005	0.00000E+000	-4.17000E-001	-8.09272E-004	10	..........a	-327.74
	924	1.54167	-4.24984E-001	-6.76767E-005	0.00000E+000	-4.24000E-001	-7.59272E-004	10	..........a	-327.74
	931	1.55333	-4.32009E-001	-7.75022E-005	0.00000E+000	-4.31000E-001	-7.59272E-004	10	..........a	-327.74
	938	1.565	-4.38949E-001	-9.22904E-005	0.00000E+000	-4.38000E-001	-7.99272E-004	10	..........a	-327.74
	945	1.57667	-4.45984E-001	-1.06778E-004	0.00000E+000	-4.45000E-001	-7.69272E-004	10	..........a	-327.74
	952	1.58833	-4.53009E-001	-1.23722E-004	0.00000E+000	-4.52000E-001	-7.59272E-004	10	..........a	-327.74
	959	1.6	-4.59944E-001	-1.43022E-004	0.00000E+000	-4.59000E-001	-8.09272E-004	10	..........a	-327.74
	966	1.61167	-4.66989E-001	-1.64828E-004	0.00000E+000	-4.66000E-001	-7.69272E-004	10	..........a	-327.74
	973	1.62333	-4.73974E-001	-1.85883E-004	0.00000E+000	-4.73000E-001	-7.49272E-004	10	..........a	-327.74
	980	1.635	-4.81014E-001	-2.10647E-004	0.00000E+000	-4.80000E-001	-7.39272E-004	10	..........a	-327.74
	987	1.64667	-4.87964E-001	-2.38068E-004	0.00000E+000	-4.87000E-001	-7.59272E-004	10	..........a	-327.74
	994	1.65833	-4.94919E-001	-2.67644E-004	0.00000E+000	-4.94000E-001	-8.19272E-004	10	..........a	-327.74
	1001	1.67	-5.01949E-001	-2.99727E-004	0.00000E+000	-5.01000E-001	-7.69272E-004	10	..........a	-327.74
	1008	1.68167	-5.08949E-001	-3.34668E-004	0.00000E+000	-5.08000E-001	-7.49272E-004	10	..........a	-327.74
	1015	1.69333	-5.15954E-001	-3.73568E-004	0.00000E+000	-5.15000E-001	-6.89272E-004	10	..........a	-327.74
	1022	1.705	-5.22984E-001	-4.17632E-004	0.00000E+000	-5.22000E-001	-8.09272E-004	10	..........a	-327.74
	1029	1.71667	-5.29994E-001	-4.65205E-004	0.00000E+000	-5.29000E-001	-7.79272E-004	10	..........a	-327.74
	1036	1.72833	-5.36994E-001	-5.13981E-004	0.00000E+000	-5.36000E-001	-8.19272E-004	10	..........a	-327.74
	1043	1.74	-5.43934E-001	-5.65715E-004	0.00000E+000	-5.43000E-001	-7.29272E-004	10	..........a	-327.74
	1050	1.75167	-5.50929E-001	-6.16396E-004	0.00000E+000	-5.50000E-001	-7.79272E-004	10	..........a	-327.74
	1057	1.76333	-5.57959E-001	-6.62666E-004	0.00000E+000	-5.57000E-001	-7.89272E-004	10	..........a	-327.74
	1064	1.775	-5.64979E-001	-7.02118E-004	0.00000E+000	-5.64000E-001	-8.09272E-004	10	..........a	-327.74
	1071	1.78667	-5.71919E-001	-7.30943E-004	0.00000E+000	-5.71000E-001	-7.79272E-004	10	..........a	-327.74
	1078	1.79833	-5.78889E-001	-7.47586E-004	0.00000E+000	-5.78000E-001	-8.39272E-004	10	..........a	-327.74
	1085	1.81	-5.85934E-001	-7.48338E-004	0.00000E+000	-5.85000E-001	-7.89272E-004	10	..........a	-327.74
	1092	1.82167	-5.92959E-001	-7.36507E-004	0.00000E+000	-5.92000E-001	-8.19272E-004	10	..........a	-327.74
	1099	1.83333	-5.99984E-001	-7.13698E-004	0.00000E+000	-5.99000E-001	-7.69272E-004	10	..........a	-327.74
	1106	1.845	-6.06904E-001	-6.85425E-004	0.00000E+000	-6.06000E-001	-7.89272E-004	10	..........a	-327.74
	1113	1.85667	-6.13914E-001	-6.52690E-004	0.00000E+000	-6.13000E-001	-7.29272E-004	10	..........a	-327.74
	1120	1.86833	-6.20889E-001	-6.22011E-004	0.00000E+000	-6.20000E-001	-7.19272E-004	10	..........a	-327.74
	1127	1.88	-6.27879E-001	-5.93287E-004	0.00000E+000	-6.27000E-001	-8.19272E-004	10	..........a	-327.74
	1134	1.89167	-6.34864E-001	-5.66668E-004	0.00000E+000	-6.34000E-001	-7.69272E-004	10	..........a	-327.74
	1141	1.90333	-6.41884E-001	-5.42555E-004	0.00000E+000	-6.41000E-001	-7.29272E-004	10	..........a	-327.74
	1148	1.915	-6.48904E-001	-5.23255E-004	0.00000E+000	-6.48000E-001	-7.99272E-004	10	..........a	-327.74
	1155	1.92667	-6.55884E-001	-5.04808E-004	0.00000E+000	-6.55000E-001	-7.69272E-004	10	..........a	-327.74
	1162	1.93833	-6.62834E-001	-4.89568E-004	0.00000E+000	-6.62000E-001	-7.59272E-004	10	..........a	-327.74
	1169	1.95	-6.69929E-001	-4.75181E-004	0.00000E+000	-6.69000E-001	-7.89272E-004	10	..........a	-327.74
	1176	1.96167	-6.76909E-001	-4.62097E-004	0.00000E+000	-6.76000E-001	-7.29272E-004	10	..........a	-327.74
	1183	1.97333	-6.83859E-001	-4.49164E-004	0.00000E+000	-6.83000E-001	-7.99272E-004	10	..........a	-327.74
	1190	1.985	-6.90904E-001	-4.37684E-004	0.00000E+000	-6.90000E-001	-8.19272E-004	10	..........a	-327.74
	1197	1.99667	-6.97914E-001	-4.26204E-004	0.00000E+000	-6.97000E-001	-7.89272E-004	10	..........a	-327.74
	1204	2.00833	-7.04859E-001	-4.13923E-004	0.00000E+000	-7.04000E-001	-7.69272E-004	10	..........a	-327.74
	1211	2.02	-7.11864E-001	-4.04147E-004	0.00000E+000	-7.11000E-001	-8.69272E-004	10	..........a	-327.74
	1218	2.03167	-7.18834E-001	-3.95174E-004	0.00000E+000	-7.18000E-001	-7.89272E-004	10	..........a	-327.74
	1225	2.04333	-7.25909E-001	-3.86602E-004	0.00000E+000	-7.25000E-001	-8.09272E-004	10	..........a	-327.74
	1232	2.055	-7.32859E-001	-3.78180E-004	0.00000E+000	-7.32000E-001	-8.59272E-004	10	..........a	-327.74
	1239	2.06667	-7.39829E-001	-3.69107E-004	0.00000E+000	-7.39000E-001	-8.49272E-004	10	..........a	-327.74
	1246	2.07833	-7.46874E-001	-3.62038E-004	0.00000E+000	-7.46000E-001	-6.99272E-004	10	..........a	-327.74
	1253	2.09	-7.53869E-001	-3.54218E-004	0.00000E+000	-7.53000E-001	-7.79272E-004	10	..........a	-327.74
	1260	2.10167	-7.60829E-001	-3.47701E-004	0.00000E+000	-7.60000E-001	-6.89272E-004	10	..........a	-327.74
	1267	2.11333	-7.67924E-001	-3.41285E-004	0.00000E+000	-7.67000E-001	-7.69272E-004	10	..........a	-327.74
	1274	2.125	-7.74839E-001	-3.35470E-004	0.00000E+000	-7.74000E-001	-7.39272E-004	10	..........a	-327.74
	1281	2.13667	-7.81869E-001	-3.31008E-004	0.00000E+000	-7.81000E-001	-7.99272E-004	10	..........a	-327.74
	1288	2.14833	-7.88849E-001	-3.25544E-004	0.00000E+000	-7.88000E-001	-7.99272E-004	10	..........a	-327.74
	1295	2.16	-7.95769E-001	-3.18526E-004	0.00000E+000	-7.95000E-001	-7.89272E-004	10	..........a	-327.74
	1302	2.17167	-8.02949E-001	-3.14114E-004	0.00000E+000	-8.02000E-001	-7.19272E-004	10	..........a	-327.74
	1309	2.18333	-8.09859E-001	-3.09853E-004	0.00000E+000	-8.09000E-001	-7.29272E-004	10	..........a	-327.74
	1316	2.195	-8.16819E-001	-3.04740E-004	0.00000E+000	-8.16000E-001	-8.19272E-004	10	..........a	-327.74
	1323	2.20667	-8.23829E-001	-3.00780E-004	0.00000E+000	-8.23000E-001	-7.29272E-004	10	..........a	-327.74
	1330	2.21833	-8.30784E-001	-2.96318E-004	0.00000E+000	-8.30000E-001	-7.59272E-004	10	..........a	-327.74
	1337	2.23	-8.37774E-001	-2.92458E-004	0.00000E+000	-8.37000E-001	-7.29272E-004	10	..........a	-327.74
	1344	2.24167	-8.44759E-001	-2.88648E-004	0.00000E+000	-8.44000E-001	-7.29272E-004	10	..........a	-327.74
	1351	2.25333	-8.51729E-001	-2.84137E-004	0.00000E+000	-8.51000E-001	-7.69272E-004	10	..........a	-327.74
	1358	2.265	-8.58789E-001	-2.80878E-004	0.00000E+000	-8.58000E-001	-7.29272E-004	10	..........a	-327.74
	1365	2.27667	-8.65759E-001	-2.78171E-004	0.00000E+000	-8.65000E-001	-6.89272E-004	10	..........a	-327.74
	1372	2.28833	-8.72749E-001	-2.74161E-004	0.00000E+000	-8.72000E-001	-7.29272E-004	10	..........a	-327.74
	1379	2.3	-8.79859E-001	-2.72256E-004	0.00000E+000	-8.79000E-001	-7.29272E-004	10	..........a	-327.74
	1386	2.31167	-8.86799E-001	-2.68647E-004	0.00000E+000	-8.86000E-001	-7.89272E-004	10	..........a	-327.74
	1393	2.32333	-8.93759E-001	-2.65589E-004	0.00000E+000	-8.93000E-001	-7.79272E-004	10	..........a	-327.74
	1400	2.335	-9.00784E-001	-2.62982E-004	0.00000E+000	-9.00000E-001	-7.49272E-004	10	..........a	-327.74
	1407	2.34667	-9.07764E-001	-2.60175E-004	0.00000E+000	-9.07000E-001	-7.59272E-004	10	..........a	-327.74
	1414	2.35833	-9.14744E-001	-2.57267E-004	0.00000E+000	-9.14000E-001	-7.99272E-004	10	..........a	-327.74
	1421	2.37	-9.21724E-001	-2.54610E-004	0.00000E+000	-9.21000E-001	-8.19272E-004	10	..........a	-327.74
	1428	2.38167	-9.28694E-001	-2.52054E-004	0.00000E+000	-9.28000E-001	-7.79272E-004	10	..........a	-327.74
	1435	2.39333	-9.35689E-001	-2.49948E-004	0.00000E+000	-9.35000E-001	-8.19272E-004	10	..........a	-327.74
	1442	2.405	-9.42684E-001	-2.48144E-004	0.00000E+000	-9.42000E-001	-7.99272E-004	10	..........a	-327.74
	1449	2.41667	-9.49679E-001	-2.46489E-004	0.00000E+000	-9.49000E-001	-7.99272E-004	10	..........a	-327.74
	1456	2.42833	-9.56739E-001	-2.43632E-004	0.00000E+000	-9.56000E-001	-6.89272E-004	10	..........a	-327.74
	1463	2.44	-9.63714E-001	-2.41877E-004	0.00000E+000	-9.63000E-001	-7.89272E-004	10	..........a	-327.74
	1470	2.45167	-9.70734E-001	-2.40574E-004	0.00000E+000	-9.70000E-001	-8.59272E-004	10	..........a	-327.74
	1477	2.46333	-9.77754E-001	-2.37817E-004	0.00000E+000	-9.77000E-001	-7.99272E-004	10	..........a	-327.74
	1484	2.475	-9.84624E-001	-2.36965E-004	0.00000E+000	-9.84000E-001	-8.39272E-004	10	..........a	-327.74
	1491	2.48667	-9.91744E-001	-2.35160E-004	0.00000E+000	-9.91000E-001	-8.09272E-004	10	..........a	-327.74
	1498	2.49833	-9.98759E-001	-2.33556E-004	0.00000E+000	-9.98000E-001	-7.29272E-004	10	..........a	-327.74
	1505	2.51	-9.95649E-001	-2.21475E-004	0.00000E+000	-9.95000E-001	-8.19272E-004	10	..........a	-327.74
	1512	2.52167	-9.88759E-001	-2.14156E-004	0.00000E+000	-9.88000E-001	-7.89272E-004	10	..........a	-327.74
	1519	2.53333	-9.81729E-001	-2.08792E-004	0.00000E+000	-9.81000E-001	-8.19272E-004	10	..........a	-327.74
	1526	2.545	-9.74739E-001	-2.04481E-004	0.00000E+000	-9.74000E-001	-8.09272E-004	10	..........a	-327.74
	1533	2.55667	-9.67739E-001	-2.02175E-004	0.00000E+000	-9.67000E-001	-7.49272E-004	10	..........a	-327.74
	1540	2.56833	-9.60699E-001	-1.98315E-004	0.00000E+000	-9.60000E-001	-7.99272E-004	10	..........a	-327.74
	1547	2.58	-9.53749E-001	-1.95558E-004	0.00000E+000	-9.53000E-001	-7.49272E-004	10	..........a	-327.74
	1554	2.59167	-9.46759E-001	-1.92450E-004	0.00000E+000	-9.46000E-001	-8.29272E-004	10	..........a	-327.74
	1561	2.60333	-9.39744E-001	-1.91096E-004	0.00000E+000	-9.39000E-001	-7.49272E-004	10	..........a	-327.74
	1568	2.615	-9.32744E-001	-1.89492E-004	0.00000E+000	-9.32000E-001	-7.59272E-004	10	..........a	-327.74
	1575	2.62667	-9.25729E-001	-1.87537E-004	0.00000E+000	-9.25000E-001	-7.69272E-004	10	..........a	-327.74
	1582	2.63833	-9.18749E-001	-1.86735E-004	0.00000E+000	-9.18000E-001	-7.59272E-004	10	..........a	-327.74
	1589	2.65	-9.11779E-001	-1.83075E-004	0.00000E+000	-9.11000E-001	-7.79272E-004	10	..........a	-327.74
	1596	2.66167	-9.04704E-001	-1.81822E-004	0.00000E+000	-9.04000E-001	-7.59272E-004	10	..........a	-327.74
	1603	2.67333	-8.97764E-001	-1.80017E-004	0.00000E+000	-8.97000E-001	-7.79272E-004	10	..........a	-327.74
	1610	2.685	-8.90764E-001	-1.78864E-004	0.00000E+000	-8.90000E-001	-8.29272E-004	10	..........a	-327.74
	1617	2.69667	-8.83764E-001	-1.78012E-004	0.00000E+000	-8.83000E-001	-7.49272E-004	10	..........a	-327.74
	1624	2.70833	-8.76764E-001	-1.76057E-004	0.00000E+000	-8.76000E-001	-7.69272E-004	10	..........a	-327.74
	1631	2.72	-8.69774E-001	-1.75355E-004	0.00000E+000	-8.69000E-001	-7.69272E-004	10	..........a	-327.74
	1638	2.73167	-8.62774E-001	-1.73150E-004	0.00000E+000	-8.62000E-001	-7.99272E-004	10	..........a	-327.74
	1645	2.74333	-8.55809E-001	-1.72097E-004	0.00000E+000	-8.55000E-001	-7.99272E-004	10	..........a	-327.74
	1652	2.755	-8.48704E-001	-1.71044E-004	0.00000E+000	-8.48000E-001	-7.89272E-004	10	..........a	-327.74
	1659	2.76667	-8.41809E-001	-1.69540E-004	0.00000E+000	-8.41000E-001	-7.69272E-004	10	..........a	-327.74
	1666	2.77833	-8.34744E-001	-1.68137E-004	0.00000E+000	-8.34000E-001	-8.29272E-004	10	..........a	-327.74
	1673	2.79	-8.27744E-001	-1.67685E-004	0.00000E+000	-8.27000E-001	-7.89272E-004	10	..........a	-327.74
	1680	2.80167	-8.20774E-001	-1.65931E-004	0.00000E+000	-8.20000E-001	-7.69272E-004	10	..........a	-327.74
	1687	2.81333	-8.13864E-001	-1.64728E-004	0.00000E+000	-8.13000E-001	-8.09272E-004	10	..........a	-327.74
	1694	2.825	-8.06809E-001	-1.63876E-004	0.00000E+000	-8.06000E-001	-8.29272E-004	10	..........a	-327.74
	1701	2.83667	-7.99859E-001	-1.61770E-004	0.00000E+000	-7.99000E-001	-7.49272E-004	10	..........a	-327.74
	1708	2.84833	-7.92879E-001	-1.61369E-004	0.00000E+000	-7.92000E-001	-8.19272E-004	10	..........a	-327.74
	1715	2.86	-7.85899E-001	-1.59414E-004	0.00000E+000	-7.85000E-001	-8.69272E-004	10	..........a	-327.74
	1722	2.87167	-7.78849E-001	-1.59214E-004	0.00000E+000	-7.78000E-001	-7.89272E-004	10	..........a	-327.74
	1729	2.88333	-7.71814E-001	-1.58211E-004	0.00000E+000	-7.71000E-001	-7.49272E-004	10	..........a	-327.74
	1736	2.895	-7.64879E-001	-1.56156E-004	0.00000E+000	-7.64000E-001	-7.69272E-004	10	..........a	-327.74
	1743	2.90667	-7.57874E-001	-1.54802E-004	0.00000E+000	-7.57000E-001	-8.09272E-004	10	..........a	-327.74
	1750	2.91833	-7.50814E-001	-1.54902E-004	0.00000E+000	-7.50000E-001	-7.79272E-004	10	..........a	-327.74
	1757	2.93	-7.43894E-001	-1.53298E-004	0.00000E+000	-7.43000E-001	-7.89272E-004	10	..........a	-327.74
	1764	2.94167	-7.36889E-001	-1.52296E-004	0.00000E+000	-7.36000E-001	-7.99272E-004	10	..........a	-327.74
	1771	2.95333	-7.29879E-001	-1.51093E-004	0.00000E+000	-7.29000E-001	-7.29272E-004	10	..........a	-327.74
	1778	2.965	-7.22839E-001	-1.48135E-004	0.00000E+000	-7.22000E-001	-8.69272E-004	10	..........a	-327.74
	1785	2.97667	-7.15869E-001	-1.48937E-004	0.00000E+000	-7.15000E-001	-7.59272E-004	10	..........a	-327.74
	1792	2.98833	-7.08824E-001	-1.46681E-004	0.00000E+000	-7.08000E-001	-8.09272E-004	10	..........a	-327.74
	1799	3	-7.01889E-001	-1.45378E-004	0.00000E+000	-7.01000E-001	-7.99272E-004	10	..........a	-327.74
	1806	3.01167	-6.94819E-001	-1.43022E-004	0.00000E+000	-6.94000E-001	-7.39272E-004	10	..........a	-327.74
	1813	3.02333	-6.87899E-001	-1.42119E-004	0.00000E+000	-6.87000E-001	-7.69272E-004	10	..........a	-327.74
	1820	3.035	-6.80854E-001	-1.40365E-004	0.00000E+000	-6.80000E-001	-7.59272E-004	10	..........a	-327.74
	1827	3.04667	-6.73934E-001	-1.37908E-004	0.00000E+000	-6.73000E-001	-7.69272E-004	10	..........a	-327.74
	1834	3.05833	-6.66884E-001	-1.35703E-004	0.00000E+000	-6.66000E-001	-7.59272E-004	10	..........a	-327.74
	1841	3.07	-6.59884E-001	-1.34299E-004	0.00000E+000	-6.59000E-001	-7.29272E-004	10	..........a	-327.74
	1848	3.08167	-6.52864E-001	-1.31091E-004	0.00000E+000	-6.52000E-001	-7.69272E-004	10	..........a	-327.74
	1855	3.09333	-6.45864E-001	-1.27782E-004	0.00000E+000	-6.45000E-001	-7.59272E-004	10	..........a	-327.74
	1862	3.105	-6.38904E-001	-1.24875E-004	0.00000E+000	-6.38000E-001	-8.09272E-004	10	..........a	-327.74
	1869	3.11667	-6.31924E-001	-1.19210E-004	0.00000E+000	-6.31000E-001	-7.69272E-004	10	..........a	-327.74
	1876	3.12833	-6.24894E-001	-1.14448E-004	0.00000E+000	-6.24000E-001	-7.49272E-004	10	..........a	-327.74
	1883	3.14	-6.17939E-001	-1.08382E-004	0.00000E+000	-6.17000E-001	-7.69272E-004	10	..........a	-327.74
	1890	3.15167	-6.10954E-001	-1.00211E-004	0.00000E+000	-6.10000E-001	-7.59272E-004	10	..........a	-327.74
	1897	3.16333	-6.03919E-001	-9.03855E-005	0.00000E+000	-6.03000E-001	-8.39272E-004	10	..........a	-327.74
	1904	3.175	-5.96999E-001	-7.65998E-005	0.00000E+000	-5.96000E-001	-7.89272E-004	10	..........a	-327.74
	1911	3.18667	-5.89934E-001	-5.82022E-005	0.00000E+000	-5.89000E-001	-8.09272E-004	10	..........a	-327.74
	1918	3.19833	-5.82934E-001	-3.45410E-005	0.00000E+000	-5.82000E-001	-7.29272E-004	10	..........a	-327.74
	1925	3.21	-5.75934E-001	-4.86422E-006	0.00000E+000	-5.75000E-001	-7.79272E-004	10	..........a	-327.74
	1932	3.22167	-5.68914E-001	3.22819E-005	0.00000E+000	-5.68000E-001	-7.79272E-004	10	..........a	-327.74
	1939	3.23333	-5.61924E-001	7.10823E-005	0.00000E+000	-5.61000E-001	-7.59272E-004	10	..........a	-327.74
	1946	3.245	-5.54929E-001	1.15648E-004	0.00000E+000	-5.54000E-001	-8.19272E-004	10	..........a	-327.74
	1953	3.25667	-5.47884E-001	1.60814E-004	0.00000E+000	-5.47000E-001	-8.19272E-004	10	..........a	-327.74
	1960	3.26833	-5.40899E-001	2.06533E-004	0.00000E+000	-5.40000E-001	-8.19272E-004	10	..........a	-327.74
	1967	3.28	-5.33949E-001	2.47439E-004	0.00000E+000	-5.33000E-001	-8.49272E-004	10	..........a	-327.74
	1974	3.29167	-5.26944E-001	2.88645E-004	0.00000E+000	-5.26000E-001	-8.79272E-004	10	..........a	-327.74
	1981	3.30333	-5.19929E-001	3.23385E-004	0.00000E+000	-5.19000E-001	-7.59272E-004	10	..........a	-327.74
	1988	3.315	-5.12899E-001	3.52711E-004	0.00000E+000	-5.12000E-001	-8.39272E-004	10	..........a	-327.74
	1995	3.32667	-5.05974E-001	3.76222E-004	0.00000E+000	-5.05000E-001	-7.69272E-004	10	..........a	-327.74
	2002	3.33833	-4.98899E-001	3.96173E-004	0.00000E+000	-4.98000E-001	-7.89272E-004	10	..........a	-327.74
	2009	3.35	-4.91964E-001	4.09809E-004	0.00000E+000	-4.91000E-001	-7.99272E-004	10	..........a	-327.74
	2016	3.36167	-4.84984E-001	4.18230E-004	0.00000E+000	-4.84000E-001	-8.29272E-004	10	..........a	-327.74
	2023	3.37333	-4.77989E-001	4.24196E-004	0.00000E+000	-4.77000E-001	-7.99272E-004	10	..........a	-327.74
	2030	3.385	-4.70874E-001	4.24346E-004	0.00000E+000	-4.70000E-001	-7.69272E-004	10	..........a	-327.74
	2037	3.39667	-4.63929E-001	4.19083E-004	0.00000E+000	-4.63000E-001	-7.89272E-004	10	..........a	-327.74
	2044	3.40833	-4.56964E-001	4.12867E-004	0.00000E+000	-4.56000E-001	-7.39272E-004	10	..........a	-327.74
	2051	3.42	-4.49994E-001	4.04194E-004	0.00000E+000	-4.49000E-001	-8.29272E-004	10	..........a	-327.74
	2058	3.43167	-4.43024E-001	3.93817E-004	0.00000E+000	-4.42000E-001	-8.09272E-004	10	..........a	-327.74
	2065	3.44333	-4.35914E-001	3.81084E-004	0.00000E+000	-4.35000E-001	-7.79272E-004	10	..........a	-327.74
	2072	3.455	-4.29014E-001	3.69555E-004	0.00000E+000	-4.28000E-001	-8.39272E-004	10	..........a	-327.74
	2079	3.46667	-4.21989E-001	3.56621E-004	0.00000E+000	-4.21000E-001	-8.39272E-004	10	..........a	-327.74
	2086	3.47833	-4.14944E-001	3.44991E-004	0.00000E+000	-4.14000E-001	-7.89272E-004	10	..........a	-327.74
	2093	3.49	-4.08034E-001	3.32759E-004	0.00000E+000	-4.07000E-001	-8.19272E-004	10	..........a	-327.74
	2100	3.50167	-4.01039E-001	3.22433E-004	0.00000E+000	-4.00000E-001	-8.09272E-004	10	..........a	-327.74
	2107	3.51333	-3.93939E-001	3.11755E-004	0.00000E+000	-3.93000E-001	-8.79272E-004	10	..........a	-327.74
	2114	3.525	-3.86989E-001	3.02331E-004	0.00000E+000	-3.86000E-001	-8.29272E-004	10	..........a	-327.74
	2121	3.53667	-3.79974E-001	2.92455E-004	0.00000E+000	-3.79000E-001	-7.49272E-004	10	..........a	-327.74
	2128	3.54833	-3.72994E-001	2.84083E-004	0.00000E+000	-3.72000E-001	-7.69272E-004	10	..........a	-327.74
	2135	3.56	-3.65969E-001	2.77817E-004	0.00000E+000	-3.65000E-001	-8.19272E-004	10	..........a	-327.74
	2142	3.57167	-3.58979E-001	2.69646E-004	0.00000E+000	-3.58000E-001	-7.49272E-004	10	..........a	-327.74
	2149	3.58333	-3.51989E-001	2.62828E-004	0.00000E+000	-3.51000E-001	-8.09272E-004	10	..........a	-327.74
	2156	3.595	-3.45059E-001	2.55209E-004	0.00000E+000	-3.44000E-001	-6.79272E-004	10	..........a	-327.74
	2163	3.60667	-3.37994E-001	2.50697E-004	0.00000E+000	-3.37000E-001	-7.89272E-004	10	..........a	-327.74
	2170	3.61833	-3.31039E-001	2.44331E-004	0.00000E+000	-3.30000E-001	-8.09272E-004	10	..........a	-327.74
	2177	3.63	-3.23969E-001	2.40019E-004	0.00000E+000	-3.23000E-001	-7.59272E-004	10	..........a	-327.74
	2184	3.64167	-3.17004E-001	2.34355E-004	0.00000E+000	-3.16000E-001	-7.09272E-004	10	..........a	-327.74
	2191	3.65333	-3.10019E-001	2.29743E-004	0.00000E+000	-3.09000E-001	-7.79272E-004	10	..........a	-327.74
	2198	3.665	-3.02999E-001	2.23978E-004	0.00000E+000	-3.02000E-001	-8.39272E-004	10	..........a	-327.74
	2205	3.67667	-2.96019E-001	2.20068E-004	0.00000E+000	-2.95000E-001	-7.89272E-004	10	..........a	-327.74
	2212	3.68833	-2.89059E-001	2.14955E-004	0.00000E+000	-2.88000E-001	-7.19272E-004	10	..........a	-327.74
	2219	3.7	-2.82009E-001	2.11696E-004	0.00000E+000	-2.81000E-001	-8.19272E-004	10	..........a	-327.74
	2226	3.71167	-2.75054E-001	2.07786E-004	0.00000E+000	-2.74000E-001	-8.39272E-004	10	..........a	-327.74
	2233	3.72333	-2.68029E-001	2.03224E-004	0.00000E+000	-2.67000E-001	-8.09272E-004	10	..........a	-327.74
	2240	3.735	-2.61049E-001	1.99665E-004	0.00000E+000	-2.60000E-001	-7.79272E-004	10	..........a	-327.74
	2247	3.74667	-2.54074E-001	1.94050E-004	0.00000E+000	-2.53000E-001	-7.79272E-004	10	..........a	-327.74
	2254	3.75833	-2.47004E-001	1.92547E-004	0.00000E+000	-2.46000E-001	-7.49272E-004	10	..........a	-327.74
	2261	3.77	-2.40054E-001	1.87183E-004	0.00000E+000	-2.39000E-001	-8.09272E-004	10	..........a	-327.74
	2268	3.78167	-2.33054E-001	1.83824E-004	0.00000E+000	-2.32000E-001	-7.79272E-004	10	..........a	-327.74
	2275	3.79333	-2.26034E-001	1.80465E-004	0.00000E+000	-2.25000E-001	-8.19272E-004	10	..........a	-327.74
	2282	3.805	-2.19029E-001	1.75653E-004	0.00000E+000	-2.18000E-001	-7.79272E-004	10	..........a	-327.74
	2289	3.81667	-2.12014E-001	1.72946E-004	0.00000E+000	-2.11000E-001	-7.69272E-004	10	..........a	-327.74
	2296	3.82833	-2.05069E-001	1.69437E-004	0.00000E+000	-2.04000E-001	-7.69272E-004	10	..........a	-327.74
	2303	3.84	-1.98039E-001	1.66930E-004	0.00000E+000	-1.97000E-001	-8.39272E-004	10	..........a	-327.74
	2310	3.85167	-1.91034E-001	1.63622E-004	0.00000E+000	-1.90000E-001	-8.39272E-004	10	..........a	-327.74
	2317	3.86333	-1.84094E-001	1.60313E-004	0.00000E+000	-1.83000E-001	-8.79272E-004	10	..........a	-327.74
	2324	3.875	-1.77119E-001	1.57355E-004	0.00000E+000	-1.76000E-001	-8.19272E-004	10	..........a	-327.74
	2331	3.88667	-1.70069E-001	1.54799E-004	0.00000E+000	-1.69000E-001	-7.69272E-004	10	..........a	-327.74
	2338	3.89833	-1.63149E-001	1.51591E-004	0.00000E+000	-1.62000E-001	-7.89272E-004	10	..........a	-327.74
	2345	3.91	-1.56069E-001	1.47931E-004	0.00000E+000	-1.55000E-001	-8.19272E-004	10	..........a	-327.74
	2352	3.92167	-1.49099E-001	1.45776E-004	0.00000E+000	-1.48000E-001	-7.89272E-004	10	..........a	-327.74
	2359	3.93333	-1.42109E-001	1.44221E-004	0.00000E+000	-1.41000E-001	-7.69272E-004	10	..........a	-327.74
	2366	3.945	-1.35139E-001	1.42266E-004	0.00000E+000	-1.34000E-001	-7.59272E-004	10	..........a	-327.74
	2373	3.95667	-1.28064E-001	1.38958E-004	0.00000E+000	-1.27000E-001	-7.29272E-004	10	..........a	-327.74
	2380	3.96833	-1.21119E-001	1.37604E-004	0.00000E+000	-1.20000E-001	-7.99272E-004	10	..........a	-327.74
	2387	3.98	-1.14024E-001	1.35549E-004	0.00000E+000	-1.13000E-001	-7.69272E-004	10	..........a	-327.74
	2394	3.99167	-1.07139E-001	1.33945E-004	0.00000E+000	-1.06000E-001	-8.29272E-004	10	..........a	-327.74
	2401	4.00333	-1.00119E-001	1.32140E-004	0.00000E+000	-9.90000E-002	-8.09272E-004	10	..........a	-327.74
	2408	4.015	-9.31090E-002	1.31338E-004	0.00000E+000	-9.20000E-002	-8.09272E-004	10	..........a	-327.74
	2415	4.02667	-8.60940E-002	1.28531E-004	0.00000E+000	-8.50000E-002	-7.89272E-004	10	..........a	-327.74
	2422	4.03833	-7.90590E-002	1.28230E-004	0.00000E+000	-7.80000E-002	-8.59272E-004	10	..........a	-327.74
	2429	4.05	-7.21740E-002	1.27729E-004	0.00000E+000	-7.10000E-002	-8.69272E-004	10	..........a	-327.74
	2436	4.06167	-6.51640E-002	1.25122E-004	0.00000E+000	-6.40000E-002	-7.59272E-004	10	..........a	-327.74
	2443	4.07333	-5.81190E-002	1.25323E-004	0.00000E+000	-5.70000E-002	-8.69272E-004	10	..........a	-327.74
	2450	4.085	-5.10990E-002	1.24170E-004	0.00000E+000	-5.00000E-002	-7.89272E-004	10	..........a	-327.74
	2457	4.09667	-4.41540E-002	1.23969E-004	0.00000E+000	-4.30000E-002	-7.49272E-004	10	..........a	-327.74
	2464	4.10833	-3.70840E-002	1.22916E-004	0.00000E+000	-3.60000E-002	-8.39272E-004	10	..........a	-327.74
	2471	4.12	-3.01390E-002	1.24671E-004	0.00000E+000	-2.90000E-002	-7.49272E-004	10	..........a	-327.74
	2478	4.13167	-2.31390E-002	1.23769E-004	0.00000E+000	-2.20000E-002	-7.99272E-004	10	..........a	-327.74
	2485	4.14333	-1.61790E-002	1.25323E-004	0.00000E+000	-1.50000E-002	-7.79272E-004	10	..........a	-327.74
	2492	4.155	-9.16400E-003	1.24521E-004	0.00000E+000	-8.00000E-003	-7.69272E-004	10	..........a	-327.74
	2499	4.16667	-2.10900E-003	1.24069E-004	0.00000E+000	-1.00000E-003	-7.99272E-004	10	..........a	-327.74
	2506	4.17833	4.84100E-003	1.24571E-004	0.00000E+000	5.99998E-003	-7.79272E-004	10	..........a	-327.74
	2513	4.19	1.19110E-002	1.25072E-004	0.00000E+000	1.30000E-002	-7.79272E-004	10	..........a	-327.74
	2520	4.20167	1.88860E-002	1.25924E-004	0.00000E+000	2.00000E-002	-7.69272E-004	10	..........a	-327.74
	2527	4.21333	2.58110E-002	1.25022E-004	0.00000E+000	2.70000E-002	-7.09272E-004	10	..........a	-327.74
	2534	4.225	3.28710E-002	1.26476E-004	0.00000E+000	3.40000E-002	-8.29272E-004	10	..........a	-327.74
	2541	4.23667	3.97660E-002	1.24771E-004	0.00000E+000	4.10000E-002	-8.59272E-004	10	..........a	-327.74
	2548	4.24833	4.68960E-002	1.25724E-004	0.00000E+000	4.80000E-002	-8.19272E-004	10	..........a	-327.74
	2555	4.26	5.38560E-002	1.24871E-004	0.00000E+000	5.50000E-002	-8.39272E-004	10	..........a	-327.74
	2562	4.27167	6.08310E-002	1.24821E-004	0.00000E+000	6.20000E-002	-8.39272E-004	10	..........a	-327.74
	2569	4.28333	6.78510E-002	1.22766E-004	0.00000E+000	6.90000E-002	-8.29272E-004	10	..........a	-327.74
	2576	4.295	7.48710E-002	1.21763E-004	0.00000E+000	7.60000E-002	-7.99272E-004	10	..........a	-327.74
	2583	4.30667	8.18110E-002	1.20811E-004	0.00000E+000	8.30000E-002	-8.19272E-004	10	..........a	-327.74
	2590	4.31833	8.88610E-002	1.18856E-004	0.00000E+000	9.00000E-002	-8.49272E-004	10	..........a	-327.74
	2597	4.33	9.57660E-002	1.17903E-004	0.00000E+000	9.70000E-002	-7.89272E-004	10	..........a	-327.74
	2604	4.34167	1.02841E-001	1.16550E-004	0.00000E+000	1.04000E-001	-8.19272E-004	10	..........a	-327.74
	2611	4.35333	1.09866E-001	1.14595E-004	0.00000E+000	1.11000E-001	-8.19272E-004	10	..........a	-327.74
	2618	4.365	1.16811E-001	1.13592E-004	0.00000E+000	1.18000E-001	-8.19272E-004	10	..........a	-327.74
	2625	4.37667	1.23806E-001	1.11286E-004	0.00000E+000	1.25000E-001	-8.49272E-004	10	..........a	-327.74
	2632	4.38833	1.30806E-001	1.08178E-004	0.00000E+000	1.32000E-001	-7.69272E-004	10	..........a	-327.74
	2639	4.4	1.37801E-001	1.07226E-004	0.00000E+000	1.39000E-001	-7.99272E-004	10	..........a	-327.74
	2646	4.41167	1.44891E-001	1.05421E-004	0.00000E+000	1.46000E-001	-7.59272E-004	10	..........a	-327.74
	2653	4.42333	1.51756E-001	1.04569E-004	0.00000E+000	1.53000E-001	-8.69272E-004	10	..........a	-327.74
	2660	4.435	1.58781E-001	1.02062E-004	0.00000E+000	1.60000E-001	-7.99272E-004	10	..........a	-327.74
	2667	4.44667	1.65826E-001	9.99069E-005	0.00000E+000	1.67000E-001	-7.89272E-004	10	..........a	-327.74
	2674	4.45833	1.72811E-001	9.90045E-005	0.00000E+000	1.74000E-001	-8.09272E-004	10	..........a	-327.74
	2681	4.47	1.79761E-001	9.74004E-005	0.00000E+000	1.81000E-001	-8.29272E-004	10	..........a	-327.74
	2688	4.48167	1.86791E-001	9.67988E-005	0.00000E+000	1.88000E-001	-7.59272E-004	10	..........a	-327.74
	2695	4.49333	1.93751E-001	9.49440E-005	0.00000E+000	1.95000E-001	-7.59272E-004	10	..........a	-327.74
	2702	4.505	2.00831E-001	9.30892E-005	0.00000E+000	2.02000E-001	-7.29272E-004	10	..........a	-327.74
	2709	4.51667	2.07746E-001	9.16354E-005	0.00000E+000	2.09000E-001	-7.99272E-004	10	..........a	-327.74
	2716	4.52833	2.14816E-001	9.11342E-005	0.00000E+000	2.16000E-001	-7.89272E-004	10	..........a	-327.74
	2723	4.54	2.21796E-001	8.86277E-005	0.00000E+000	2.23000E-001	-7.49272E-004	10	..........a	-327.74
	2730	4.55167	2.28686E-001	8.85274E-005	0.00000E+000	2.30000E-001	-7.99272E-004	10	..........a	-327.74
	2737	4.56333	2.35746E-001	8.76251E-005	0.00000E+000	2.37000E-001	-8.19272E-004	10	..........a	-327.74
	2744	4.575	2.42756E-001	8.54194E-005	0.00000E+000	2.44000E-001	-7.79272E-004	10	..........a	-327.74
	2751	4.58667	2.49706E-001	8.52690E-005	0.00000E+000	2.51000E-001	-8.09272E-004	10	..........a	-327.74
	2758	4.59833	2.56711E-001	8.48178E-005	0.00000E+000	2.58000E-001	-7.99272E-004	10	..........a	-327.74
	2765	4.61	2.63756E-001	8.38152E-005	0.00000E+000	2.65000E-001	-8.09272E-004	10	..........a	-327.74
	2772	4.62167	2.70701E-001	8.32137E-005	0.00000E+000	2.72000E-001	-7.99272E-004	10	..........a	-327.74
	2779	4.63333	2.77781E-001	8.27625E-005	0.00000E+000	2.79000E-001	-8.39272E-004	10	..........a	-327.74
	2786	4.645	2.84791E-001	8.25620E-005	0.00000E+000	2.86000E-001	-7.89272E-004	10	..........a	-327.74
	2793	4.65667	2.91771E-001	8.20105E-005	0.00000E+000	2.93000E-001	-8.39272E-004	10	..........a	-327.74
	2800	4.66833	2.98801E-001	8.03563E-005	0.00000E+000	3.00000E-001	-8.49272E-004	10	..........a	-327.74
	2807	4.68	3.05741E-001	8.04565E-005	0.00000E+000	3.07000E-001	-7.99272E-004	10	..........a	-327.74
	2814	4.69167	3.12726E-001	7.99552E-005	0.00000E+000	3.14000E-001	-8.09272E-004	10	..........a	-327.74
	2821	4.70333	3.19756E-001	7.87020E-005	0.00000E+000	3.21000E-001	-7.89272E-004	10	..........a	-327.74
	2828	4.715	3.26731E-001	7.90529E-005	0.00000E+000	3.28000E-001	-8.09272E-004	10	..........a	-327.74
	2835	4.72667	3.33771E-001	7.85015E-005	0.00000E+000	3.35000E-001	-7.89272E-004	10	..........a	-327.74
	2842	4.73833	3.40721E-001	7.85516E-005	0.00000E+000	3.42000E-001	-7.99272E-004	10	..........a	-327.74
	2849	4.75	3.47716E-001	7.75991E-005	0.00000E+000	3.49000E-001	-7.59272E-004	10	..........a	-327.74
	2856	4.76167	3.54761E-001	7.81004E-005	0.00000E+000	3.56000E-001	-7.99272E-004	10	..........a	-327.74
	2863	4.77333	3.61686E-001	7.76493E-005	0.00000E+000	3.63000E-001	-7.69272E-004	10	..........a	-327.74
	2870	4.785	3.68721E-001	7.72984E-005	0.00000E+000	3.70000E-001	-7.69272E-004	10	..........a	-327.74
	2877	4.79667	3.75761E-001	7.65464E-005	0.00000E+000	3.77000E-001	-7.79272E-004	10	..........a	-327.74
	2884	4.80833	3.82691E-001	7.66467E-005	0.00000E+000	3.84000E-001	-8.39272E-004	10	..........a	-327.74
	2891	4.82	3.89746E-001	7.67469E-005	0.00000E+000	3.91000E-001	-7.29272E-004	10	..........a	-327.74
	2898	4.83167	3.96681E-001	7.62456E-005	0.00000E+000	3.98000E-001	-7.59272E-004	10	..........a	-327.74
	2905	4.84333	4.03716E-001	7.59449E-005	0.00000E+000	4.05000E-001	-8.29272E-004	10	..........a	-327.74
	2912	4.855	4.10726E-001	7.37391E-005	0.00000E+000	4.12000E-001	-8.29272E-004	10	..........a	-327.74
	2919	4.86667	4.17681E-001	7.52430E-005	0.00000E+000	4.19000E-001	-7.89272E-004	10	..........a	-327.74
	2926	4.87833	4.24616E-001	7.35888E-005	0.00000E+000	4.26000E-001	-8.09272E-004	10	..........a	-327.74
	2933	4.89	4.31681E-001	7.37391E-005	0.00000E+000	4.33000E-001	-8.09272E-004	10	..........a	-327.74
	2940	4.90167	4.38671E-001	7.28368E-005	0.00000E+000	4.40000E-001	-8.29272E-004	10	..........a	-327.74
	2947	4.91333	4.45721E-001	7.25360E-005	0.00000E+000	4.47000E-001	-8.19272E-004	10	..........a	-327.74
	2954	4.925	4.52721E-001	7.22353E-005	0.00000E+000	4.54000E-001	-7.69272E-004	10	..........a	-327.74
	2961	4.93667	4.59731E-001	7.21851E-005	0.00000E+000	4.61000E-001	-7.99272E-004	10	..........a	-327.74
	2968	4.94833	4.66711E-001	7.18844E-005	0.00000E+000	4.68000E-001	-8.09272E-004	10	..........a	-327.74
	2975	4.96	4.73671E-001	7.03805E-005	0.00000E+000	4.75000E-001	-8.09272E-004	10	..........a	-327.74
	2982	4.97167	4.80611E-001	7.04306E-005	0.00000E+000	4.82000E-001	-8.19272E-004	10	..........a	-327.74
	2989	4.98333	4.87621E-001	6.88766E-005	0.00000E+000	4.89000E-001	-8.29272E-004	10	..........a	-327.74
	2996	4.995	4.94651E-001	6.87262E-005	0.00000E+000	4.96000E-001	-8.09272E-004	10	..........a	-327.74
	3000	5.00167	4.98691E-001	6.84254E-005	0.00000E+000	5.00000E-001	-7.59272E-004	10	..........a	-327.74
CURVE2	TABLE
	Pt	T	Vf	Im	Vu	Sig	Ach	IERange	Over	Temp
	#	s	V vs. Ref.	A	V	V	V	#	bits	deg C
	3001	5.00333	4.98641E-001	6.71722E-005	0.00000E+000	5.00000E-001	-7.89272E-004	10	..........a	-327.74