File: data/02-SI/Figures_S9_S11_RDE/14btmapaq-rde/1mkcl-5mmolar14btmapaq-nitrogen-8000mvpers.DTA
EXPLAIN
TAG	CV
TITLE	LABEL	Cyclic Voltammetry	Test &Identifier
DATE	LABEL	1/31/2023	Date
TIME	LABEL	14:06:21	Time
NOTES	NOTES	1	&Notes...

PSTAT	PSTAT	REF3000-21108	Potentiostat
VINIT	POTEN	5.00000E-001	F	Initial &E (V)
VLIMIT1	POTEN	-1.00000E+000	F	Scan Limit &1 (V)
VLIMIT2	POTEN	5.00000E-001	F	Scan Limit &2 (V)
VFINAL	POTEN	5.00000E-001	F	Final &E (V)
SCANRATE	QUANT	8.57141E+003	&Scan Rate (mV/s)
STEPSIZE	QUANT	1.00000E+000	St&ep Size (mV)
CYCLES	IQUANT	1	C&ycles (#)
IMODE	SELECTOR	1	I/E Range &Mode
IRANGE	QUANT	1.00000E+001	&Max Current (mA)
AREA	QUANT	1.00000E+000	Electrode &Area (cm^2)
ELECTRODETYPE	SELECTOR	0	Electrode Type
STRIPPING	TOGGLE	F	Used for Stripping
POLARITY	TOGGLE	F	Signal Polarity
CONDIT	TWOPARAM	F	1.50000E+001	0.00000E+000	Conditionin&g	Time(s)	E(V)
DELAY	TWOPARAM	F	5.00000E+000	0.00000E+000	Init. De&lay	Time(s)	Stab.(mV/s)
EQDELAY	QUANT	0.00000E+000	Equil. &Time (s)
IRCOMP	SELECTOR	0	IRCom&p
PFCOR	QUANT	5.00000E+001	PF Corr. (ohm)
SAMPLINGMODE	SELECTOR	1	Sampling &Mode
EOC	QUANT	0	Open Circuit (V)
PSTATMODEL	IQUANT	5	Pstat Model
PSTATSECTION	LABEL	REF3000-21108	Pstat Section
PSTATSERIALNO	LABEL	21108	Pstat Serial Number
CTRLMODE	IQUANT	1	Control Mode
ELECTROMETER	IQUANT	0	RE=0 or CS=1
IESTAB	IQUANT	2	I/E Stability
CASPEED	IQUANT	4	Control Amp Speed
CONVENTION	IQUANT	1	Current Convention
ICHRANGE	IQUANT	2	Ich Range
ICHRANGEMODE	TOGGLE	F	Ich Auto Range
ICHOFFSETENABLE	TOGGLE	F	Ich Offset Enable
ICHOFFSET	QUANT	0	Ich Offset (V)
ICHFILTER	IQUANT	1	Ich Filter
VCHRANGE	IQUANT	2	Vch Range
VCHRANGEMODE	TOGGLE	F	Vch Auto Range
VCHOFFSETENABLE	TOGGLE	F	Vch Offset Enable
VCHOFFSET	QUANT	0	Vch Offset (V)
VCHFILTER	IQUANT	1	Vch Filter
ACHRANGE	IQUANT	2	Ach Range
ACHOFFSETENABLE	TOGGLE	F	Ach Offset Enable
ACHOFFSET	QUANT	0	Ach Offset (V)
ACHFILTER	IQUANT	0	Ach Filter
IERANGELOWERLIMIT	IQUANT	2	I/E Range Lower Limit
IERANGEMODE	TOGGLE	F	I/E AutoRange
IERANGE	IQUANT	10	I/E Range
POSFEEDENABLE	TOGGLE	F	Positive Feedback IR Comp
POSFEEDRESISTANCE	QUANT	0	Positive Feedback Resistance (ohm)
ACHSELECT	IQUANT	0	Ach Select
SENSECABLEID	IQUANT	14	Sense Cable ID
PWRCABLEID	IQUANT	7	Power Cable ID
DCCALDATE	LABEL	11/9/2022	DC Calibration Date
ACCALDATE	LABEL	11/9/2022	AC Calibration Date
THERMOSELECT	IQUANT	1	Thermo Select
FRAMEWORKVERSION	LABEL	7.8.2	Framework Version
INSTRUMENTVERSION	LABEL	4.40	Instrument Version
COMPLIANCEVOLTAGE	IQUANT	0	Compliance Voltage
CURVE1	TABLE
	Pt	T	Vf	Im	Vu	Sig	Ach	IERange	Over	Temp
	#	s	V vs. Ref.	A	V	V	V	#	bits	deg C
	0	0.000117	4.98691E-001	4.01523E-005	0.00000E+000	5.00000E-001	-9.29272E-004	10	...........	-0.07
	7	0.000933	4.92091E-001	-8.41694E-005	0.00000E+000	4.93450E-001	-9.29272E-004	10	...........	-0.07
	14	0.00175	4.85491E-001	-9.62005E-005	0.00000E+000	4.86950E-001	-7.29272E-004	10	...........	-0.07
	21	0.002567	4.78991E-001	-9.72031E-005	0.00000E+000	4.80400E-001	-9.29272E-004	10	...........	-0.07
	28	0.003383	4.72691E-001	-1.12242E-004	0.00000E+000	4.73850E-001	-9.29272E-004	10	...........	-0.07
	35	0.0042	4.66091E-001	-1.10237E-004	0.00000E+000	4.67350E-001	-8.29272E-004	10	...........	-0.07
	42	0.005017	4.59291E-001	-1.16252E-004	0.00000E+000	4.60800E-001	-9.29272E-004	10	...........	-0.07
	49	0.005833	4.52891E-001	-1.16252E-004	0.00000E+000	4.54250E-001	-7.29272E-004	10	...........	-0.07
	56	0.00665	4.46391E-001	-1.20263E-004	0.00000E+000	4.47750E-001	-8.29272E-004	10	...........	-0.07
	63	0.007467	4.39891E-001	-1.20263E-004	0.00000E+000	4.41200E-001	-8.29272E-004	10	...........	-0.07
	70	0.008283	4.33391E-001	-1.29286E-004	0.00000E+000	4.34650E-001	-8.29272E-004	10	...........	-0.07
	77	0.0091	4.26891E-001	-1.26278E-004	0.00000E+000	4.28150E-001	-1.02927E-003	10	...........	-0.07
	84	0.009917	4.20291E-001	-1.32294E-004	0.00000E+000	4.21600E-001	-7.29272E-004	10	...........	-0.07
	91	0.010733	4.13691E-001	-1.30289E-004	0.00000E+000	4.15050E-001	-8.29272E-004	10	...........	-0.07
	98	0.01155	4.07191E-001	-1.34299E-004	0.00000E+000	4.08550E-001	-7.29272E-004	10	...........	-0.07
	105	0.012367	4.00691E-001	-1.34299E-004	0.00000E+000	4.02000E-001	-8.29272E-004	10	...........	-0.07
	112	0.013183	3.93891E-001	-1.40315E-004	0.00000E+000	3.95450E-001	-8.29272E-004	10	...........	-0.07
	119	0.014	3.87691E-001	-1.38309E-004	0.00000E+000	3.88950E-001	-9.29272E-004	10	...........	-0.07
	126	0.014817	3.80891E-001	-1.43322E-004	0.00000E+000	3.82400E-001	-7.29272E-004	10	...........	-0.07
	133	0.015633	3.74791E-001	-1.46330E-004	0.00000E+000	3.75850E-001	-9.29272E-004	10	...........	-0.07
	140	0.01645	3.68091E-001	-1.52346E-004	0.00000E+000	3.69350E-001	-7.29272E-004	10	...........	-0.07
	147	0.017267	3.61491E-001	-1.48335E-004	0.00000E+000	3.62800E-001	-7.29272E-004	10	...........	-0.07
	154	0.018083	3.55191E-001	-1.59364E-004	0.00000E+000	3.56250E-001	-9.29272E-004	10	...........	-0.07
	161	0.0189	3.48491E-001	-1.48335E-004	0.00000E+000	3.49750E-001	-7.29272E-004	10	...........	-0.07
	168	0.019717	3.41991E-001	-1.58361E-004	0.00000E+000	3.43200E-001	-8.29272E-004	10	...........	-0.07
	175	0.020533	3.35391E-001	-1.64377E-004	0.00000E+000	3.36650E-001	-9.29272E-004	10	...........	-0.07
	182	0.02135	3.28991E-001	-1.60367E-004	0.00000E+000	3.30150E-001	-9.29272E-004	10	...........	-0.07
	189	0.022167	3.22291E-001	-1.60367E-004	0.00000E+000	3.23600E-001	-8.29272E-004	10	...........	-0.07
	196	0.022983	3.15791E-001	-1.68387E-004	0.00000E+000	3.17050E-001	-9.29272E-004	10	...........	-0.07
	203	0.0238	3.09191E-001	-1.59364E-004	0.00000E+000	3.10550E-001	-7.29272E-004	10	...........	-0.07
	210	0.024617	3.02791E-001	-1.70392E-004	0.00000E+000	3.04000E-001	-7.29272E-004	10	...........	-0.07
	217	0.025433	2.96091E-001	-1.68387E-004	0.00000E+000	2.97450E-001	-7.29272E-004	10	...........	-0.07
	224	0.02625	2.89691E-001	-1.74403E-004	0.00000E+000	2.90950E-001	-7.29272E-004	10	...........	-0.07
	231	0.027067	2.83091E-001	-1.76408E-004	0.00000E+000	2.84400E-001	-8.29272E-004	10	...........	-0.07
	238	0.027883	2.76591E-001	-1.82424E-004	0.00000E+000	2.77850E-001	-7.29272E-004	10	...........	-0.07
	245	0.0287	2.70191E-001	-1.82424E-004	0.00000E+000	2.71350E-001	-8.29272E-004	10	...........	-0.07
	252	0.029517	2.63691E-001	-1.84429E-004	0.00000E+000	2.64800E-001	-7.29272E-004	10	...........	-0.07
	259	0.030333	2.56991E-001	-1.84429E-004	0.00000E+000	2.58250E-001	-7.29272E-004	10	...........	-0.07
	266	0.03115	2.50691E-001	-1.84429E-004	0.00000E+000	2.51750E-001	-7.29272E-004	10	...........	-0.07
	273	0.031967	2.44091E-001	-1.82424E-004	0.00000E+000	2.45200E-001	-8.29272E-004	10	...........	-0.07
	280	0.032783	2.37291E-001	-1.96460E-004	0.00000E+000	2.38650E-001	-9.29272E-004	10	...........	-0.07
	287	0.0336	2.30891E-001	-1.88439E-004	0.00000E+000	2.32150E-001	-7.29272E-004	10	...........	-0.07
	294	0.034417	2.24291E-001	-1.94455E-004	0.00000E+000	2.25600E-001	-7.29272E-004	10	...........	-0.07
	301	0.035233	2.17791E-001	-1.93452E-004	0.00000E+000	2.19050E-001	-9.29272E-004	10	...........	-0.07
	308	0.03605	2.11291E-001	-1.98465E-004	0.00000E+000	2.12550E-001	-5.29272E-004	10	...........	-0.07
	315	0.036867	2.04791E-001	-1.93452E-004	0.00000E+000	2.06000E-001	-7.29272E-004	10	...........	-0.07
	322	0.037683	1.98291E-001	-2.06486E-004	0.00000E+000	1.99450E-001	-9.29272E-004	10	...........	-0.07
	329	0.0385	1.91691E-001	-1.97463E-004	0.00000E+000	1.92950E-001	-9.29272E-004	10	...........	-0.07
	336	0.039317	1.85091E-001	-2.00470E-004	0.00000E+000	1.86400E-001	-7.29272E-004	10	...........	-0.07
	343	0.040133	1.78591E-001	-2.00470E-004	0.00000E+000	1.79850E-001	-9.29272E-004	10	...........	-0.07
	350	0.04095	1.72391E-001	-2.02475E-004	0.00000E+000	1.73350E-001	-7.29272E-004	10	...........	-0.07
	357	0.041767	1.65791E-001	-2.02475E-004	0.00000E+000	1.66800E-001	-8.29272E-004	10	...........	-0.07
	364	0.042583	1.58991E-001	-2.09494E-004	0.00000E+000	1.60250E-001	-7.29272E-004	10	...........	-0.07
	371	0.0434	1.52491E-001	-2.02475E-004	0.00000E+000	1.53750E-001	-8.29272E-004	10	...........	-0.07
	378	0.044217	1.46091E-001	-2.06486E-004	0.00000E+000	1.47200E-001	-9.29272E-004	10	...........	-0.07
	385	0.045033	1.39591E-001	-2.07488E-004	0.00000E+000	1.40650E-001	-6.29272E-004	10	...........	-0.07
	392	0.04585	1.32791E-001	-2.13504E-004	0.00000E+000	1.34150E-001	-6.29272E-004	10	...........	-0.07
	399	0.046667	1.26491E-001	-2.08491E-004	0.00000E+000	1.27600E-001	-9.29272E-004	10	...........	-0.07
	406	0.047483	1.19891E-001	-2.09494E-004	0.00000E+000	1.21050E-001	-7.29272E-004	10	...........	-0.07
	413	0.0483	1.13291E-001	-2.12501E-004	0.00000E+000	1.14550E-001	-9.29272E-004	10	...........	-0.07
	420	0.049117	1.06791E-001	-2.18517E-004	0.00000E+000	1.08000E-001	-8.29272E-004	10	...........	-0.07
	427	0.049933	1.00391E-001	-2.14507E-004	0.00000E+000	1.01450E-001	-7.29272E-004	10	...........	-0.07
	434	0.05075	9.36910E-002	-2.16512E-004	0.00000E+000	9.49500E-002	-9.29272E-004	10	...........	-0.07
	441	0.051567	8.72910E-002	-2.11499E-004	0.00000E+000	8.84000E-002	-9.29272E-004	10	...........	-0.07
	448	0.052383	8.04910E-002	-2.20522E-004	0.00000E+000	8.18500E-002	-9.29272E-004	10	...........	-0.07
	455	0.0532	7.39910E-002	-2.13504E-004	0.00000E+000	7.53500E-002	-8.29272E-004	10	...........	-0.07
	462	0.054017	6.79910E-002	-2.14507E-004	0.00000E+000	6.88000E-002	-9.29272E-004	10	...........	-0.07
	469	0.054833	6.11910E-002	-2.19520E-004	0.00000E+000	6.22500E-002	-9.29272E-004	10	...........	-0.07
	476	0.05565	5.44910E-002	-2.14507E-004	0.00000E+000	5.57500E-002	-8.29272E-004	10	...........	-0.07
	483	0.056467	4.78910E-002	-2.18517E-004	0.00000E+000	4.92000E-002	-8.29272E-004	10	...........	-0.07
	490	0.057283	4.15910E-002	-2.15509E-004	0.00000E+000	4.26500E-002	-5.29272E-004	10	...........	-0.07
	497	0.0581	3.50910E-002	-2.09494E-004	0.00000E+000	3.61500E-002	-9.29272E-004	10	...........	-0.07
	504	0.058917	2.83910E-002	-2.22527E-004	0.00000E+000	2.96000E-002	-9.29272E-004	10	...........	-0.07
	511	0.059733	2.17910E-002	-2.17514E-004	0.00000E+000	2.30500E-002	-8.29272E-004	10	...........	-0.07
	518	0.06055	1.55910E-002	-2.18517E-004	0.00000E+000	1.65500E-002	-9.29272E-004	10	...........	-0.07
	525	0.061367	8.79100E-003	-2.20522E-004	0.00000E+000	9.99999E-003	-7.29272E-004	10	...........	-0.07
	532	0.062183	2.39100E-003	-2.22527E-004	0.00000E+000	3.45001E-003	-7.29272E-004	10	...........	-0.07
	539	0.063	-4.10900E-003	-2.12501E-004	0.00000E+000	-3.05000E-003	-9.29272E-004	10	...........	-0.07
	546	0.063817	-1.09090E-002	-2.18517E-004	0.00000E+000	-9.60001E-003	-9.29272E-004	10	...........	-0.07
	553	0.064633	-1.74090E-002	-2.20522E-004	0.00000E+000	-1.61500E-002	-7.29272E-004	10	...........	-0.07
	560	0.06545	-2.37090E-002	-2.20522E-004	0.00000E+000	-2.26500E-002	-9.29272E-004	10	...........	-0.07
	567	0.066267	-3.04090E-002	-2.15509E-004	0.00000E+000	-2.92000E-002	-9.29272E-004	10	...........	-0.07
	574	0.067083	-3.71090E-002	-2.20522E-004	0.00000E+000	-3.57500E-002	-7.29272E-004	10	...........	-0.07
	581	0.0679	-4.35090E-002	-2.16512E-004	0.00000E+000	-4.22500E-002	-7.29272E-004	10	...........	-0.07
	588	0.068717	-5.00090E-002	-2.16512E-004	0.00000E+000	-4.88000E-002	-9.29272E-004	10	...........	-0.07
	595	0.069533	-5.64090E-002	-2.14507E-004	0.00000E+000	-5.53500E-002	-8.29272E-004	10	...........	-0.07
	602	0.07035	-6.31090E-002	-2.16512E-004	0.00000E+000	-6.18500E-002	-9.29272E-004	10	...........	-0.07
	609	0.071167	-6.95090E-002	-2.12501E-004	0.00000E+000	-6.84000E-002	-9.29272E-004	10	...........	-0.07
	616	0.071983	-7.61090E-002	-2.16512E-004	0.00000E+000	-7.49500E-002	-9.29272E-004	10	...........	-0.07
	623	0.0728	-8.27090E-002	-2.12501E-004	0.00000E+000	-8.14500E-002	-9.29272E-004	10	...........	-0.07
	630	0.073617	-8.92090E-002	-2.17514E-004	0.00000E+000	-8.80000E-002	-7.29272E-004	10	...........	-0.07
	637	0.074433	-9.56090E-002	-2.17514E-004	0.00000E+000	-9.45500E-002	-7.29272E-004	10	...........	-0.07
	644	0.07525	-1.02309E-001	-2.15509E-004	0.00000E+000	-1.01050E-001	-7.29272E-004	10	...........	-0.07
	651	0.076067	-1.08809E-001	-2.15509E-004	0.00000E+000	-1.07600E-001	-9.29272E-004	10	...........	-0.07
	658	0.076883	-1.15309E-001	-2.12501E-004	0.00000E+000	-1.14150E-001	-9.29272E-004	10	...........	-0.07
	665	0.0777	-1.21709E-001	-2.06486E-004	0.00000E+000	-1.20650E-001	-7.29272E-004	10	...........	-0.07
	672	0.078517	-1.28309E-001	-2.14507E-004	0.00000E+000	-1.27200E-001	-7.29272E-004	10	...........	-0.07
	679	0.079333	-1.34709E-001	-2.12501E-004	0.00000E+000	-1.33750E-001	-8.29272E-004	10	...........	-0.07
	686	0.08015	-1.41409E-001	-2.14507E-004	0.00000E+000	-1.40250E-001	-9.29272E-004	10	...........	-0.07
	693	0.080967	-1.47909E-001	-2.12501E-004	0.00000E+000	-1.46800E-001	-9.29272E-004	10	...........	-0.07
	700	0.081783	-1.54509E-001	-2.16512E-004	0.00000E+000	-1.53350E-001	-7.29272E-004	10	...........	-0.07
	707	0.0826	-1.61209E-001	-2.11499E-004	0.00000E+000	-1.59850E-001	-9.29272E-004	10	...........	-0.07
	714	0.083417	-1.67609E-001	-2.13504E-004	0.00000E+000	-1.66400E-001	-9.29272E-004	10	...........	-0.07
	721	0.084233	-1.74109E-001	-2.12501E-004	0.00000E+000	-1.72950E-001	-9.29272E-004	10	...........	-0.07
	728	0.08505	-1.80709E-001	-2.16512E-004	0.00000E+000	-1.79450E-001	-6.29272E-004	10	...........	-0.07
	735	0.085867	-1.87109E-001	-2.10496E-004	0.00000E+000	-1.86000E-001	-7.29272E-004	10	...........	-0.07
	742	0.086683	-1.93709E-001	-2.13504E-004	0.00000E+000	-1.92550E-001	-7.29272E-004	10	...........	-0.07
	749	0.0875	-2.00309E-001	-2.04481E-004	0.00000E+000	-1.99050E-001	-7.29272E-004	10	...........	-0.07
	756	0.088317	-2.06709E-001	-2.12501E-004	0.00000E+000	-2.05600E-001	-9.29272E-004	10	...........	-0.07
	763	0.089133	-2.13309E-001	-2.08491E-004	0.00000E+000	-2.12150E-001	-9.29272E-004	10	...........	-0.07
	770	0.08995	-2.19709E-001	-2.08491E-004	0.00000E+000	-2.18650E-001	-8.29272E-004	10	...........	-0.07
	777	0.090767	-2.26309E-001	-2.11499E-004	0.00000E+000	-2.25200E-001	-9.29272E-004	10	...........	-0.07
	784	0.091583	-2.32909E-001	-2.13504E-004	0.00000E+000	-2.31750E-001	-6.29272E-004	10	...........	-0.07
	791	0.0924	-2.39309E-001	-2.14507E-004	0.00000E+000	-2.38250E-001	-6.29272E-004	10	...........	-0.07
	798	0.093217	-2.45909E-001	-2.16512E-004	0.00000E+000	-2.44800E-001	-6.29272E-004	10	...........	-0.07
	805	0.094033	-2.52509E-001	-2.10496E-004	0.00000E+000	-2.51350E-001	-9.29272E-004	10	...........	-0.07
	812	0.09485	-2.59109E-001	-2.16512E-004	0.00000E+000	-2.57850E-001	-9.29272E-004	10	...........	-0.07
	819	0.095667	-2.65609E-001	-2.16512E-004	0.00000E+000	-2.64400E-001	-9.29272E-004	10	...........	-0.07
	826	0.096483	-2.72009E-001	-2.23530E-004	0.00000E+000	-2.70950E-001	-7.29272E-004	10	...........	-0.07
	833	0.0973	-2.78309E-001	-2.16512E-004	0.00000E+000	-2.77450E-001	-8.29272E-004	10	...........	-0.07
	840	0.098117	-2.85109E-001	-2.26538E-004	0.00000E+000	-2.84000E-001	-9.29272E-004	10	...........	-0.07
	847	0.098933	-2.91609E-001	-2.22527E-004	0.00000E+000	-2.90550E-001	-9.29272E-004	10	...........	-0.07
	854	0.09975	-2.98109E-001	-2.28543E-004	0.00000E+000	-2.97050E-001	-7.29272E-004	10	...........	-0.07
	861	0.100567	-3.04709E-001	-2.28543E-004	0.00000E+000	-3.03600E-001	-7.29272E-004	10	...........	-0.07
	868	0.101383	-3.11209E-001	-2.32553E-004	0.00000E+000	-3.10150E-001	-7.29272E-004	10	...........	-0.07
	875	0.1022	-3.17709E-001	-2.32553E-004	0.00000E+000	-3.16650E-001	-6.29272E-004	10	...........	-0.07
	882	0.103017	-3.24309E-001	-2.42579E-004	0.00000E+000	-3.23200E-001	-9.29272E-004	10	...........	-0.07
	889	0.103833	-3.30609E-001	-2.46590E-004	0.00000E+000	-3.29750E-001	-9.29272E-004	10	...........	-0.07
	896	0.10465	-3.37309E-001	-2.52605E-004	0.00000E+000	-3.36250E-001	-9.29272E-004	10	...........	-0.07
	903	0.105467	-3.43809E-001	-2.53608E-004	0.00000E+000	-3.42800E-001	-7.29272E-004	10	...........	-0.07
	910	0.106283	-3.50209E-001	-2.64636E-004	0.00000E+000	-3.49350E-001	-9.29272E-004	10	...........	-0.07
	917	0.1071	-3.56909E-001	-2.56616E-004	0.00000E+000	-3.55850E-001	-9.29272E-004	10	...........	-0.07
	924	0.107917	-3.63609E-001	-2.69649E-004	0.00000E+000	-3.62400E-001	-9.29272E-004	10	...........	-0.07
	931	0.108733	-3.70109E-001	-2.72657E-004	0.00000E+000	-3.68950E-001	-7.29272E-004	10	...........	-0.07
	938	0.10955	-3.76509E-001	-2.81680E-004	0.00000E+000	-3.75450E-001	-9.29272E-004	10	...........	-0.07
	945	0.110367	-3.83009E-001	-2.88699E-004	0.00000E+000	-3.82000E-001	-9.29272E-004	10	...........	-0.07
	952	0.111183	-3.89609E-001	-3.06745E-004	0.00000E+000	-3.88550E-001	-7.29272E-004	10	...........	-0.07
	959	0.112	-3.96009E-001	-3.07748E-004	0.00000E+000	-3.95050E-001	-9.29272E-004	10	...........	-0.07
	966	0.112817	-4.02709E-001	-3.27800E-004	0.00000E+000	-4.01600E-001	-7.29272E-004	10	...........	-0.07
	973	0.113633	-4.09109E-001	-3.42839E-004	0.00000E+000	-4.08150E-001	-9.29272E-004	10	...........	-0.07
	980	0.11445	-4.15709E-001	-3.56875E-004	0.00000E+000	-4.14650E-001	-9.29272E-004	10	...........	-0.07
	987	0.115267	-4.22309E-001	-3.76927E-004	0.00000E+000	-4.21200E-001	-9.29272E-004	10	...........	-0.07
	994	0.116083	-4.28709E-001	-4.09010E-004	0.00000E+000	-4.27750E-001	-9.29272E-004	10	...........	-0.07
	1001	0.1169	-4.35309E-001	-4.37082E-004	0.00000E+000	-4.34250E-001	-9.29272E-004	10	...........	-0.07
	1008	0.117717	-4.41909E-001	-4.69165E-004	0.00000E+000	-4.40800E-001	-8.29272E-004	10	...........	-0.07
	1015	0.118533	-4.48309E-001	-5.09269E-004	0.00000E+000	-4.47350E-001	-6.29272E-004	10	...........	-0.07
	1022	0.11935	-4.54809E-001	-5.62407E-004	0.00000E+000	-4.53850E-001	-7.29272E-004	10	...........	-0.07
	1029	0.120167	-4.61409E-001	-6.13539E-004	0.00000E+000	-4.60400E-001	-9.29272E-004	10	...........	-0.07
	1036	0.120983	-4.67709E-001	-6.85726E-004	0.00000E+000	-4.66950E-001	-8.29272E-004	10	...........	-0.07
	1043	0.1218	-4.74409E-001	-7.48889E-004	0.00000E+000	-4.73450E-001	-7.29272E-004	10	...........	-0.07
	1050	0.122617	-4.81009E-001	-8.24084E-004	0.00000E+000	-4.80000E-001	-7.29272E-004	10	...........	-0.07
	1057	0.123433	-4.87509E-001	-9.02286E-004	0.00000E+000	-4.86550E-001	-8.29272E-004	10	...........	-0.07
	1064	0.12425	-4.94309E-001	-9.82494E-004	0.00000E+000	-4.93050E-001	-8.29272E-004	10	...........	-0.07
	1071	0.125067	-5.00509E-001	-1.06872E-003	0.00000E+000	-4.99600E-001	-7.29272E-004	10	...........	-0.07
	1078	0.125883	-5.07109E-001	-1.16296E-003	0.00000E+000	-5.06150E-001	-7.29272E-004	10	...........	-0.07
	1085	0.1267	-5.13609E-001	-1.25219E-003	0.00000E+000	-5.12650E-001	-9.29272E-004	10	...........	-0.07
	1092	0.127517	-5.20209E-001	-1.35546E-003	0.00000E+000	-5.19200E-001	-9.29272E-004	10	...........	-0.07
	1099	0.128333	-5.26609E-001	-1.46374E-003	0.00000E+000	-5.25750E-001	-7.29272E-004	10	...........	-0.07
	1106	0.12915	-5.33309E-001	-1.58806E-003	0.00000E+000	-5.32250E-001	-7.29272E-004	10	...........	-0.07
	1113	0.129967	-5.39809E-001	-1.71739E-003	0.00000E+000	-5.38800E-001	-9.29272E-004	10	...........	-0.07
	1120	0.130783	-5.46409E-001	-1.86377E-003	0.00000E+000	-5.45350E-001	-7.29272E-004	10	...........	-0.07
	1127	0.1316	-5.52709E-001	-2.01116E-003	0.00000E+000	-5.51850E-001	-6.29272E-004	10	...........	-0.07
	1134	0.132417	-5.59309E-001	-2.18160E-003	0.00000E+000	-5.58400E-001	-8.29272E-004	10	...........	-0.07
	1141	0.133233	-5.65909E-001	-2.34602E-003	0.00000E+000	-5.64950E-001	-9.29272E-004	10	...........	-0.07
	1148	0.13405	-5.72509E-001	-2.51446E-003	0.00000E+000	-5.71450E-001	-9.29272E-004	10	...........	-0.07
	1155	0.134867	-5.78909E-001	-2.68390E-003	0.00000E+000	-5.78000E-001	-9.29272E-004	10	...........	-0.07
	1162	0.135683	-5.85509E-001	-2.84531E-003	0.00000E+000	-5.84550E-001	-8.29272E-004	10	...........	-0.07
	1169	0.1365	-5.91909E-001	-2.99971E-003	0.00000E+000	-5.91050E-001	-9.29272E-004	10	...........	-0.07
	1176	0.137317	-5.98409E-001	-3.14308E-003	0.00000E+000	-5.97600E-001	-7.29272E-004	10	...........	-0.07
	1183	0.138133	-6.05109E-001	-3.26039E-003	0.00000E+000	-6.04150E-001	-7.29272E-004	10	...........	-0.07
	1190	0.13895	-6.11509E-001	-3.36466E-003	0.00000E+000	-6.10650E-001	-8.29272E-004	10	...........	-0.07
	1197	0.139767	-6.18009E-001	-3.43885E-003	0.00000E+000	-6.17200E-001	-7.29272E-004	10	...........	-0.07
	1204	0.140583	-6.24509E-001	-3.48898E-003	0.00000E+000	-6.23750E-001	-9.29272E-004	10	...........	-0.07
	1211	0.1414	-6.31109E-001	-3.50101E-003	0.00000E+000	-6.30250E-001	-8.29272E-004	10	...........	-0.07
	1218	0.142217	-6.37709E-001	-3.49700E-003	0.00000E+000	-6.36800E-001	-7.29272E-004	10	...........	-0.07
	1225	0.143033	-6.44309E-001	-3.46091E-003	0.00000E+000	-6.43350E-001	-9.29272E-004	10	...........	-0.07
	1232	0.14385	-6.50709E-001	-3.39674E-003	0.00000E+000	-6.49850E-001	-9.29272E-004	10	...........	-0.07
	1239	0.144667	-6.57209E-001	-3.32455E-003	0.00000E+000	-6.56400E-001	-9.29272E-004	10	...........	-0.07
	1246	0.145483	-6.63909E-001	-3.24635E-003	0.00000E+000	-6.62950E-001	-8.29272E-004	10	...........	-0.07
	1253	0.1463	-6.70309E-001	-3.15612E-003	0.00000E+000	-6.69450E-001	-9.29272E-004	10	...........	-0.07
	1260	0.147117	-6.77109E-001	-3.07591E-003	0.00000E+000	-6.76000E-001	-8.29272E-004	10	...........	-0.07
	1267	0.147933	-6.83209E-001	-2.99269E-003	0.00000E+000	-6.82550E-001	-8.29272E-004	10	...........	-0.07
	1274	0.14875	-6.90009E-001	-2.92251E-003	0.00000E+000	-6.89050E-001	-7.29272E-004	10	...........	-0.07
	1281	0.149567	-6.96409E-001	-2.85133E-003	0.00000E+000	-6.95600E-001	-8.29272E-004	10	...........	-0.07
	1288	0.150383	-7.02909E-001	-2.79117E-003	0.00000E+000	-7.02150E-001	-7.29272E-004	10	...........	-0.07
	1295	0.1512	-7.09409E-001	-2.72701E-003	0.00000E+000	-7.08650E-001	-8.29272E-004	10	...........	-0.07
	1302	0.152017	-7.16009E-001	-2.67387E-003	0.00000E+000	-7.15200E-001	-8.29272E-004	10	...........	-0.07
	1309	0.152833	-7.22709E-001	-2.61873E-003	0.00000E+000	-7.21750E-001	-9.29272E-004	10	...........	-0.07
	1316	0.15365	-7.29109E-001	-2.56459E-003	0.00000E+000	-7.28250E-001	-8.29272E-004	10	...........	-0.07
	1323	0.154467	-7.35609E-001	-2.51245E-003	0.00000E+000	-7.34800E-001	-7.29272E-004	10	...........	-0.07
	1330	0.155283	-7.42309E-001	-2.46032E-003	0.00000E+000	-7.41350E-001	-9.29272E-004	10	...........	-0.07
	1337	0.1561	-7.48709E-001	-2.41219E-003	0.00000E+000	-7.47850E-001	-9.29272E-004	10	...........	-0.07
	1344	0.156917	-7.55209E-001	-2.36307E-003	0.00000E+000	-7.54400E-001	-9.29272E-004	10	...........	-0.07
	1351	0.157733	-7.61709E-001	-2.30993E-003	0.00000E+000	-7.60950E-001	-9.29272E-004	10	...........	-0.07
	1358	0.15855	-7.68409E-001	-2.26581E-003	0.00000E+000	-7.67450E-001	-7.29272E-004	10	...........	-0.07
	1365	0.159367	-7.74909E-001	-2.21769E-003	0.00000E+000	-7.74000E-001	-7.29272E-004	10	...........	-0.07
	1372	0.160183	-7.81309E-001	-2.18059E-003	0.00000E+000	-7.80550E-001	-8.29272E-004	10	...........	-0.07
	1379	0.161	-7.87909E-001	-2.12445E-003	0.00000E+000	-7.87050E-001	-8.29272E-004	10	...........	-0.07
	1386	0.161817	-7.94409E-001	-2.08535E-003	0.00000E+000	-7.93600E-001	-9.29272E-004	10	...........	-0.07
	1393	0.162633	-8.00909E-001	-2.04625E-003	0.00000E+000	-8.00150E-001	-9.29272E-004	10	...........	-0.07
	1400	0.16345	-8.07509E-001	-2.00113E-003	0.00000E+000	-8.06650E-001	-9.29272E-004	10	...........	-0.07
	1407	0.164267	-8.13909E-001	-1.96303E-003	0.00000E+000	-8.13200E-001	-8.29272E-004	10	...........	-0.07
	1414	0.165083	-8.20709E-001	-1.92894E-003	0.00000E+000	-8.19750E-001	-7.29272E-004	10	...........	-0.07
	1421	0.1659	-8.27109E-001	-1.89485E-003	0.00000E+000	-8.26250E-001	-6.29272E-004	10	...........	-0.07
	1428	0.166717	-8.33709E-001	-1.85876E-003	0.00000E+000	-8.32800E-001	-8.29272E-004	10	...........	-0.07
	1435	0.167533	-8.40109E-001	-1.82166E-003	0.00000E+000	-8.39350E-001	-9.29272E-004	10	...........	-0.07
	1442	0.16835	-8.46509E-001	-1.78858E-003	0.00000E+000	-8.45850E-001	-9.29272E-004	10	...........	-0.07
	1449	0.169167	-8.53109E-001	-1.76051E-003	0.00000E+000	-8.52400E-001	-7.29272E-004	10	...........	-0.07
	1456	0.169983	-8.59609E-001	-1.73043E-003	0.00000E+000	-8.58950E-001	-9.29272E-004	10	...........	-0.07
	1463	0.1708	-8.66409E-001	-1.70637E-003	0.00000E+000	-8.65450E-001	-8.29272E-004	10	...........	-0.07
	1470	0.171617	-8.72909E-001	-1.68431E-003	0.00000E+000	-8.72000E-001	-9.29272E-004	10	...........	-0.07
	1477	0.172433	-8.79509E-001	-1.65423E-003	0.00000E+000	-8.78550E-001	-7.29272E-004	10	...........	-0.07
	1484	0.17325	-8.85909E-001	-1.62616E-003	0.00000E+000	-8.85050E-001	-9.29272E-004	10	...........	-0.07
	1491	0.174067	-8.92309E-001	-1.59809E-003	0.00000E+000	-8.91600E-001	-6.29272E-004	10	...........	-0.07
	1498	0.174883	-8.98909E-001	-1.58004E-003	0.00000E+000	-8.98150E-001	-7.29272E-004	10	...........	-0.07
	1505	0.1757	-9.05209E-001	-1.55497E-003	0.00000E+000	-9.04650E-001	-7.29272E-004	10	...........	-0.07
	1512	0.176517	-9.12009E-001	-1.53994E-003	0.00000E+000	-9.11200E-001	-8.29272E-004	10	...........	-0.07
	1519	0.177333	-9.18509E-001	-1.51788E-003	0.00000E+000	-9.17750E-001	-7.29272E-004	10	...........	-0.07
	1526	0.17815	-9.25109E-001	-1.49983E-003	0.00000E+000	-9.24250E-001	-9.29272E-004	10	...........	-0.07
	1533	0.178967	-9.31509E-001	-1.48179E-003	0.00000E+000	-9.30800E-001	-7.29272E-004	10	...........	-0.07
	1540	0.179783	-9.38109E-001	-1.45973E-003	0.00000E+000	-9.37350E-001	-9.29272E-004	10	...........	-0.07
	1547	0.1806	-9.44609E-001	-1.43968E-003	0.00000E+000	-9.43850E-001	-8.29272E-004	10	...........	-0.07
	1554	0.181417	-9.51109E-001	-1.42965E-003	0.00000E+000	-9.50400E-001	-8.29272E-004	10	...........	-0.07
	1561	0.182233	-9.57809E-001	-1.41261E-003	0.00000E+000	-9.56950E-001	-9.29272E-004	10	...........	-0.07
	1568	0.18305	-9.64309E-001	-1.39757E-003	0.00000E+000	-9.63450E-001	-9.29272E-004	10	...........	-0.07
	1575	0.183867	-9.70709E-001	-1.38353E-003	0.00000E+000	-9.70000E-001	-9.29272E-004	10	...........	-0.07
	1582	0.184683	-9.77209E-001	-1.37250E-003	0.00000E+000	-9.76550E-001	-7.29272E-004	10	...........	-0.07
	1589	0.1855	-9.83909E-001	-1.35446E-003	0.00000E+000	-9.83050E-001	-8.29272E-004	10	...........	-0.07
	1596	0.186317	-9.90409E-001	-1.35045E-003	0.00000E+000	-9.89600E-001	-7.29272E-004	10	...........	-0.07
	1603	0.187133	-9.96609E-001	-1.33541E-003	0.00000E+000	-9.96150E-001	-9.29272E-004	10	...........	-0.07
	1610	0.18795	-9.97709E-001	-1.08676E-003	0.00000E+000	-9.97050E-001	-9.29272E-004	10	...........	-0.07
	1617	0.188767	-9.91109E-001	-9.36374E-004	0.00000E+000	-9.90550E-001	-8.29272E-004	10	...........	-0.07
	1624	0.189583	-9.84609E-001	-8.62182E-004	0.00000E+000	-9.84000E-001	-7.29272E-004	10	...........	-0.07
	1631	0.1904	-9.78109E-001	-8.10047E-004	0.00000E+000	-9.77450E-001	-7.29272E-004	10	...........	-0.07
	1638	0.191217	-9.71609E-001	-7.76962E-004	0.00000E+000	-9.70950E-001	-7.29272E-004	10	...........	-0.07
	1645	0.192033	-9.65009E-001	-7.35855E-004	0.00000E+000	-9.64400E-001	-7.29272E-004	10	...........	-0.07
	1652	0.19285	-9.58509E-001	-7.09788E-004	0.00000E+000	-9.57850E-001	-8.29272E-004	10	...........	-0.07
	1659	0.193667	-9.51909E-001	-6.87731E-004	0.00000E+000	-9.51350E-001	-7.29272E-004	10	...........	-0.07
	1666	0.194483	-9.45509E-001	-6.71689E-004	0.00000E+000	-9.44800E-001	-8.29272E-004	10	...........	-0.07
	1673	0.1953	-9.38909E-001	-6.53643E-004	0.00000E+000	-9.38250E-001	-9.29272E-004	10	...........	-0.07
	1680	0.196117	-9.32309E-001	-6.37601E-004	0.00000E+000	-9.31750E-001	-8.29272E-004	10	...........	-0.07
	1687	0.196933	-9.25809E-001	-6.17549E-004	0.00000E+000	-9.25200E-001	-6.29272E-004	10	...........	-0.07
	1694	0.19775	-9.19509E-001	-6.05518E-004	0.00000E+000	-9.18650E-001	-9.29272E-004	10	...........	-0.07
	1701	0.198567	-9.12709E-001	-5.97498E-004	0.00000E+000	-9.12150E-001	-7.29272E-004	10	...........	-0.07
	1708	0.199383	-9.06409E-001	-5.84464E-004	0.00000E+000	-9.05600E-001	-9.29272E-004	10	...........	-0.07
	1715	0.2002	-8.99709E-001	-5.73435E-004	0.00000E+000	-8.99050E-001	-9.29272E-004	10	...........	-0.07
	1722	0.201017	-8.93309E-001	-5.70427E-004	0.00000E+000	-8.92550E-001	-5.29272E-004	10	...........	-0.07
	1729	0.201833	-8.86509E-001	-5.53383E-004	0.00000E+000	-8.86000E-001	-9.29272E-004	10	...........	-0.07
	1736	0.20265	-8.80309E-001	-5.49373E-004	0.00000E+000	-8.79450E-001	-7.29272E-004	10	...........	-0.07
	1743	0.203467	-8.73709E-001	-5.35337E-004	0.00000E+000	-8.72950E-001	-6.29272E-004	10	...........	-0.07
	1750	0.204283	-8.67109E-001	-5.33331E-004	0.00000E+000	-8.66400E-001	-7.29272E-004	10	...........	-0.07
	1757	0.2051	-8.60509E-001	-5.25311E-004	0.00000E+000	-8.59850E-001	-9.29272E-004	10	...........	-0.07
	1764	0.205917	-8.54309E-001	-5.25311E-004	0.00000E+000	-8.53350E-001	-8.29272E-004	10	...........	-0.07
	1771	0.206733	-8.47609E-001	-5.10272E-004	0.00000E+000	-8.46800E-001	-9.29272E-004	10	...........	-0.07
	1778	0.20755	-8.40909E-001	-5.01248E-004	0.00000E+000	-8.40250E-001	-7.29272E-004	10	...........	-0.07
	1785	0.208367	-8.34409E-001	-4.90220E-004	0.00000E+000	-8.33750E-001	-8.29272E-004	10	...........	-0.07
	1792	0.209183	-8.27909E-001	-4.89217E-004	0.00000E+000	-8.27200E-001	-9.29272E-004	10	...........	-0.07
	1799	0.21	-8.21209E-001	-4.79191E-004	0.00000E+000	-8.20650E-001	-9.29272E-004	10	...........	-0.07
	1806	0.210817	-8.14909E-001	-4.77186E-004	0.00000E+000	-8.14150E-001	-8.29272E-004	10	...........	-0.07
	1813	0.211633	-8.08309E-001	-4.66158E-004	0.00000E+000	-8.07600E-001	-7.29272E-004	10	...........	-0.07
	1820	0.21245	-8.01809E-001	-4.66158E-004	0.00000E+000	-8.01050E-001	-7.29272E-004	10	...........	-0.07
	1827	0.213267	-7.95209E-001	-4.52121E-004	0.00000E+000	-7.94550E-001	-9.29272E-004	10	...........	-0.07
	1834	0.214083	-7.88709E-001	-4.49114E-004	0.00000E+000	-7.88000E-001	-9.29272E-004	10	...........	-0.07
	1841	0.2149	-7.82009E-001	-4.41093E-004	0.00000E+000	-7.81450E-001	-8.29272E-004	10	...........	-0.07
	1848	0.215717	-7.75709E-001	-4.37082E-004	0.00000E+000	-7.74950E-001	-9.29272E-004	10	...........	-0.07
	1855	0.216533	-7.69009E-001	-4.25051E-004	0.00000E+000	-7.68400E-001	-7.29272E-004	10	...........	-0.07
	1862	0.21735	-7.62709E-001	-4.21041E-004	0.00000E+000	-7.61850E-001	-6.29272E-004	10	...........	-0.07
	1869	0.218167	-7.56109E-001	-4.15025E-004	0.00000E+000	-7.55350E-001	-7.29272E-004	10	...........	-0.07
	1876	0.218983	-7.49709E-001	-4.09010E-004	0.00000E+000	-7.48800E-001	-9.29272E-004	10	...........	-0.07
	1883	0.2198	-7.43009E-001	-4.01992E-004	0.00000E+000	-7.42250E-001	-8.29272E-004	10	...........	-0.07
	1890	0.220617	-7.36309E-001	-3.94974E-004	0.00000E+000	-7.35750E-001	-8.29272E-004	10	...........	-0.07
	1897	0.221433	-7.30009E-001	-3.88958E-004	0.00000E+000	-7.29200E-001	-9.29272E-004	10	...........	-0.07
	1904	0.22225	-7.23509E-001	-3.78932E-004	0.00000E+000	-7.22650E-001	-1.02927E-003	10	...........	-0.07
	1911	0.223067	-7.17009E-001	-3.69909E-004	0.00000E+000	-7.16150E-001	-7.29272E-004	10	...........	-0.07
	1918	0.223883	-7.10409E-001	-3.64896E-004	0.00000E+000	-7.09600E-001	-8.29272E-004	10	...........	-0.07
	1925	0.2247	-7.03909E-001	-3.48854E-004	0.00000E+000	-7.03050E-001	-7.29272E-004	10	...........	-0.07
	1932	0.225517	-6.97509E-001	-3.42839E-004	0.00000E+000	-6.96550E-001	-7.29272E-004	10	...........	-0.07
	1939	0.226333	-6.90709E-001	-3.22787E-004	0.00000E+000	-6.90000E-001	-9.29272E-004	10	...........	-0.07
	1946	0.22715	-6.84309E-001	-3.14766E-004	0.00000E+000	-6.83450E-001	-7.29272E-004	10	...........	-0.07
	1953	0.227967	-6.77709E-001	-3.00730E-004	0.00000E+000	-6.76950E-001	-9.29272E-004	10	...........	-0.07
	1960	0.228783	-6.71309E-001	-2.92709E-004	0.00000E+000	-6.70400E-001	-9.29272E-004	10	...........	-0.07
	1967	0.2296	-6.64609E-001	-2.72657E-004	0.00000E+000	-6.63850E-001	-9.29272E-004	10	...........	-0.07
	1974	0.230417	-6.58109E-001	-2.62631E-004	0.00000E+000	-6.57350E-001	-9.29272E-004	10	...........	-0.07
	1981	0.231233	-6.51709E-001	-2.32553E-004	0.00000E+000	-6.50800E-001	-7.29272E-004	10	...........	-0.07
	1988	0.23205	-6.44909E-001	-2.16512E-004	0.00000E+000	-6.44250E-001	-9.29272E-004	10	...........	-0.07
	1995	0.232867	-6.38609E-001	-1.92450E-004	0.00000E+000	-6.37750E-001	-9.29272E-004	10	...........	-0.07
	2002	0.233683	-6.32109E-001	-1.64377E-004	0.00000E+000	-6.31200E-001	-9.29272E-004	10	...........	-0.07
	2009	0.2345	-6.25509E-001	-1.22268E-004	0.00000E+000	-6.24650E-001	-7.29272E-004	10	...........	-0.07
	2016	0.235317	-6.19009E-001	-9.62005E-005	0.00000E+000	-6.18150E-001	-7.29272E-004	10	...........	-0.07
	2023	0.236133	-6.12309E-001	-4.60708E-005	0.00000E+000	-6.11600E-001	-9.29272E-004	10	...........	-0.07
	2030	0.23695	-6.05909E-001	-5.96707E-006	0.00000E+000	-6.05050E-001	-7.29272E-004	10	...........	-0.07
	2037	0.237767	-5.99309E-001	5.21834E-005	0.00000E+000	-5.98550E-001	-7.29272E-004	10	...........	-0.07
	2044	0.238583	-5.92809E-001	1.10334E-004	0.00000E+000	-5.92000E-001	-8.29272E-004	10	...........	-0.07
	2051	0.2394	-5.86409E-001	1.75502E-004	0.00000E+000	-5.85450E-001	-8.29272E-004	10	...........	-0.07
	2058	0.240217	-5.79809E-001	2.42676E-004	0.00000E+000	-5.78950E-001	-8.29272E-004	10	...........	-0.07
	2065	0.241033	-5.73309E-001	3.20879E-004	0.00000E+000	-5.72400E-001	-8.29272E-004	10	...........	-0.07
	2072	0.24185	-5.66709E-001	4.09107E-004	0.00000E+000	-5.65850E-001	-1.02927E-003	10	...........	-0.07
	2079	0.242667	-5.60109E-001	4.99340E-004	0.00000E+000	-5.59350E-001	-8.29272E-004	10	...........	-0.07
	2086	0.243483	-5.53809E-001	5.86566E-004	0.00000E+000	-5.52800E-001	-8.29272E-004	10	...........	-0.07
	2093	0.2443	-5.47109E-001	6.83818E-004	0.00000E+000	-5.46250E-001	-9.29272E-004	10	...........	-0.07
	2100	0.245117	-5.40509E-001	7.74051E-004	0.00000E+000	-5.39750E-001	-9.29272E-004	10	...........	-0.07
	2107	0.245933	-5.34009E-001	8.67292E-004	0.00000E+000	-5.33200E-001	-1.02927E-003	10	...........	-0.07
	2114	0.24675	-5.27409E-001	9.54518E-004	0.00000E+000	-5.26650E-001	-8.29272E-004	10	...........	-0.07
	2121	0.247567	-5.21109E-001	1.04676E-003	0.00000E+000	-5.20150E-001	-1.02927E-003	10	...........	-0.07
	2128	0.248383	-5.14609E-001	1.13900E-003	0.00000E+000	-5.13600E-001	-9.29272E-004	10	...........	-0.07
	2135	0.2492	-5.07909E-001	1.22923E-003	0.00000E+000	-5.07050E-001	-8.29272E-004	10	...........	-0.07
	2142	0.250017	-5.01409E-001	1.30142E-003	0.00000E+000	-5.00550E-001	-8.29272E-004	10	...........	-0.07
	2149	0.250833	-4.94909E-001	1.38363E-003	0.00000E+000	-4.94000E-001	-8.29272E-004	10	...........	-0.07
	2156	0.25165	-4.88409E-001	1.44980E-003	0.00000E+000	-4.87450E-001	-9.29272E-004	10	...........	-0.07
	2163	0.252467	-4.81909E-001	1.51196E-003	0.00000E+000	-4.80950E-001	-9.29272E-004	10	...........	-0.07
	2170	0.253283	-4.75409E-001	1.56410E-003	0.00000E+000	-4.74400E-001	-9.29272E-004	10	...........	-0.07
	2177	0.2541	-4.68809E-001	1.61021E-003	0.00000E+000	-4.67850E-001	-8.29272E-004	10	...........	-0.07
	2184	0.254917	-4.62309E-001	1.63829E-003	0.00000E+000	-4.61350E-001	-8.29272E-004	10	...........	-0.07
	2191	0.255733	-4.55709E-001	1.67037E-003	0.00000E+000	-4.54800E-001	-9.29272E-004	10	...........	-0.07
	2198	0.25655	-4.49209E-001	1.68240E-003	0.00000E+000	-4.48250E-001	-6.29272E-004	10	...........	-0.07
	2205	0.257367	-4.42709E-001	1.68541E-003	0.00000E+000	-4.41750E-001	-8.29272E-004	10	...........	-0.07
	2212	0.258183	-4.36309E-001	1.68240E-003	0.00000E+000	-4.35200E-001	-9.29272E-004	10	...........	-0.07
	2219	0.259	-4.29609E-001	1.67739E-003	0.00000E+000	-4.28650E-001	-8.29272E-004	10	...........	-0.07
	2226	0.259817	-4.23009E-001	1.66034E-003	0.00000E+000	-4.22150E-001	-9.29272E-004	10	...........	-0.07
	2233	0.260633	-4.16609E-001	1.64430E-003	0.00000E+000	-4.15600E-001	-8.29272E-004	10	...........	-0.07
	2240	0.26145	-4.09909E-001	1.62024E-003	0.00000E+000	-4.09050E-001	-8.29272E-004	10	...........	-0.07
	2247	0.262267	-4.03409E-001	1.59718E-003	0.00000E+000	-4.02550E-001	-1.02927E-003	10	...........	-0.07
	2254	0.263083	-3.96909E-001	1.57212E-003	0.00000E+000	-3.96000E-001	-8.29272E-004	10	...........	-0.07
	2261	0.2639	-3.90309E-001	1.54805E-003	0.00000E+000	-3.89450E-001	-1.02927E-003	10	...........	-0.07
	2268	0.264717	-3.83909E-001	1.52098E-003	0.00000E+000	-3.82950E-001	-9.29272E-004	10	...........	-0.07
	2275	0.265533	-3.77509E-001	1.50193E-003	0.00000E+000	-3.76400E-001	-7.29272E-004	10	...........	-0.07
	2282	0.26635	-3.70809E-001	1.47887E-003	0.00000E+000	-3.69850E-001	-8.29272E-004	10	...........	-0.07
	2289	0.267167	-3.64409E-001	1.46083E-003	0.00000E+000	-3.63350E-001	-9.29272E-004	10	...........	-0.07
	2296	0.267983	-3.57809E-001	1.43576E-003	0.00000E+000	-3.56800E-001	-6.29272E-004	10	...........	-0.07
	2303	0.2688	-3.51309E-001	1.42273E-003	0.00000E+000	-3.50250E-001	-7.29272E-004	10	...........	-0.07
	2310	0.269617	-3.44409E-001	1.40167E-003	0.00000E+000	-3.43750E-001	-8.29272E-004	10	...........	-0.07
	2317	0.270433	-3.38109E-001	1.38764E-003	0.00000E+000	-3.37200E-001	-9.29272E-004	10	...........	-0.07
	2324	0.27125	-3.31709E-001	1.37561E-003	0.00000E+000	-3.30650E-001	-7.29272E-004	10	...........	-0.07
	2331	0.272067	-3.25109E-001	1.35856E-003	0.00000E+000	-3.24150E-001	-1.02927E-003	10	...........	-0.07
	2338	0.272883	-3.18709E-001	1.34352E-003	0.00000E+000	-3.17600E-001	-6.29272E-004	10	...........	-0.07
	2345	0.2737	-3.12009E-001	1.33049E-003	0.00000E+000	-3.11050E-001	-8.29272E-004	10	...........	-0.07
	2352	0.274517	-3.05509E-001	1.31345E-003	0.00000E+000	-3.04550E-001	-1.02927E-003	10	...........	-0.07
	2359	0.275333	-2.98809E-001	1.30643E-003	0.00000E+000	-2.98000E-001	-9.29272E-004	10	...........	-0.07
	2366	0.27615	-2.92309E-001	1.29339E-003	0.00000E+000	-2.91450E-001	-8.29272E-004	10	...........	-0.07
	2373	0.276967	-2.85909E-001	1.27936E-003	0.00000E+000	-2.84950E-001	-9.29272E-004	10	...........	-0.07
	2380	0.277783	-2.79409E-001	1.26933E-003	0.00000E+000	-2.78400E-001	-9.29272E-004	10	...........	-0.07
	2387	0.2786	-2.72809E-001	1.25730E-003	0.00000E+000	-2.71850E-001	-9.29272E-004	10	...........	-0.07
	2394	0.279417	-2.66209E-001	1.24226E-003	0.00000E+000	-2.65350E-001	-1.02927E-003	10	...........	-0.07
	2401	0.280233	-2.59809E-001	1.22722E-003	0.00000E+000	-2.58800E-001	-1.02927E-003	10	...........	-0.07
	2408	0.28105	-2.53309E-001	1.21118E-003	0.00000E+000	-2.52250E-001	-8.29272E-004	10	...........	-0.07
	2415	0.281867	-2.46809E-001	1.19213E-003	0.00000E+000	-2.45750E-001	-7.29272E-004	10	...........	-0.07
	2422	0.282683	-2.40109E-001	1.18211E-003	0.00000E+000	-2.39200E-001	-9.29272E-004	10	...........	-0.07
	2429	0.2835	-2.33509E-001	1.16306E-003	0.00000E+000	-2.32650E-001	-8.29272E-004	10	...........	-0.07
	2436	0.284317	-2.27109E-001	1.14702E-003	0.00000E+000	-2.26150E-001	-8.29272E-004	10	...........	-0.07
	2443	0.285133	-2.20409E-001	1.13699E-003	0.00000E+000	-2.19600E-001	-8.29272E-004	10	...........	-0.07
	2450	0.28595	-2.14109E-001	1.11493E-003	0.00000E+000	-2.13050E-001	-8.29272E-004	10	...........	-0.07
	2457	0.286767	-2.07509E-001	1.09889E-003	0.00000E+000	-2.06550E-001	-8.29272E-004	10	...........	-0.07
	2464	0.287583	-2.00909E-001	1.07884E-003	0.00000E+000	-2.00000E-001	-8.29272E-004	10	...........	-0.07
	2471	0.2884	-1.94309E-001	1.07082E-003	0.00000E+000	-1.93450E-001	-9.29272E-004	10	...........	-0.07
	2478	0.289217	-1.87909E-001	1.04074E-003	0.00000E+000	-1.86950E-001	-1.02927E-003	10	...........	-0.07
	2485	0.290033	-1.81209E-001	1.02871E-003	0.00000E+000	-1.80400E-001	-8.29272E-004	10	...........	-0.07
	2492	0.29085	-1.74909E-001	1.01367E-003	0.00000E+000	-1.73850E-001	-9.29272E-004	10	...........	-0.07
	2499	0.291667	-1.68309E-001	9.92617E-004	0.00000E+000	-1.67350E-001	-8.29272E-004	10	...........	-0.07
	2506	0.292483	-1.61909E-001	9.84596E-004	0.00000E+000	-1.60800E-001	-8.29272E-004	10	...........	-0.07
	2513	0.2933	-1.55209E-001	9.68554E-004	0.00000E+000	-1.54250E-001	-8.29272E-004	10	...........	-0.07
	2520	0.294117	-1.48809E-001	9.46497E-004	0.00000E+000	-1.47750E-001	-1.02927E-003	10	...........	-0.07
	2527	0.294933	-1.42309E-001	9.40482E-004	0.00000E+000	-1.41200E-001	-8.29272E-004	10	...........	-0.07
	2534	0.29575	-1.35609E-001	9.24440E-004	0.00000E+000	-1.34650E-001	-8.29272E-004	10	...........	-0.07
	2541	0.296567	-1.29109E-001	9.08399E-004	0.00000E+000	-1.28150E-001	-8.29272E-004	10	...........	-0.07
	2548	0.297383	-1.22709E-001	8.94362E-004	0.00000E+000	-1.21600E-001	-7.29272E-004	10	...........	-0.07
	2555	0.2982	-1.16109E-001	8.82331E-004	0.00000E+000	-1.15050E-001	-8.29272E-004	10	...........	-0.07
	2562	0.299017	-1.09609E-001	8.75313E-004	0.00000E+000	-1.08550E-001	-8.29272E-004	10	...........	-0.07
	2569	0.299833	-1.02909E-001	8.66290E-004	0.00000E+000	-1.02000E-001	-9.29272E-004	10	...........	-0.07
	2576	0.30065	-9.65090E-002	8.50248E-004	0.00000E+000	-9.54500E-002	-8.29272E-004	10	...........	-0.07
	2583	0.301467	-9.01090E-002	8.34207E-004	0.00000E+000	-8.89500E-002	-9.29272E-004	10	...........	-0.07
	2590	0.302283	-8.35090E-002	8.30196E-004	0.00000E+000	-8.24000E-002	-8.29272E-004	10	...........	-0.07
	2597	0.3031	-7.70090E-002	8.26186E-004	0.00000E+000	-7.58500E-002	-1.02927E-003	10	...........	-0.07
	2604	0.303917	-7.05090E-002	8.18165E-004	0.00000E+000	-6.93500E-002	-1.02927E-003	10	...........	-0.07
	2611	0.304733	-6.39090E-002	8.16160E-004	0.00000E+000	-6.28000E-002	-9.29272E-004	10	...........	-0.07
	2618	0.30555	-5.73090E-002	8.09142E-004	0.00000E+000	-5.62500E-002	-9.29272E-004	10	...........	-0.07
	2625	0.306367	-5.07090E-002	8.08139E-004	0.00000E+000	-4.97500E-002	-8.29272E-004	10	...........	-0.07
	2632	0.307183	-4.41090E-002	8.02124E-004	0.00000E+000	-4.32000E-002	-9.29272E-004	10	...........	-0.07
	2639	0.308	-3.77090E-002	8.04129E-004	0.00000E+000	-3.66500E-002	-8.29272E-004	10	...........	-0.07
	2646	0.308817	-3.12090E-002	7.98113E-004	0.00000E+000	-3.01500E-002	-9.29272E-004	10	...........	-0.07
	2653	0.309633	-2.47090E-002	7.98113E-004	0.00000E+000	-2.36000E-002	-7.29272E-004	10	...........	-0.07
	2660	0.31045	-1.81090E-002	8.02124E-004	0.00000E+000	-1.70500E-002	-9.29272E-004	10	...........	-0.07
	2667	0.311267	-1.13090E-002	8.04129E-004	0.00000E+000	-1.05500E-002	-9.29272E-004	10	...........	-0.07
	2674	0.312083	-5.00900E-003	8.02124E-004	0.00000E+000	-4.00001E-003	-6.29272E-004	10	...........	-0.07
	2681	0.3129	1.69100E-003	8.12150E-004	0.00000E+000	2.55001E-003	-8.29272E-004	10	...........	-0.07
	2688	0.313717	7.89100E-003	8.06134E-004	0.00000E+000	9.04998E-003	-8.29272E-004	10	...........	-0.07
	2695	0.314533	1.44910E-002	8.22176E-004	0.00000E+000	1.56000E-002	-1.02927E-003	10	...........	-0.07
	2702	0.31535	2.10910E-002	8.16160E-004	0.00000E+000	2.21500E-002	-1.02927E-003	10	...........	-0.07
	2709	0.316167	2.76910E-002	8.28191E-004	0.00000E+000	2.86500E-002	-9.29272E-004	10	...........	-0.07
	2716	0.316983	3.40910E-002	8.30196E-004	0.00000E+000	3.52000E-002	-8.29272E-004	10	...........	-0.07
	2723	0.3178	4.06910E-002	8.42227E-004	0.00000E+000	4.17500E-002	-9.29272E-004	10	...........	-0.07
	2730	0.318617	4.72910E-002	8.44233E-004	0.00000E+000	4.82500E-002	-8.29272E-004	10	...........	-0.07
	2737	0.319433	5.36910E-002	8.58269E-004	0.00000E+000	5.48000E-002	-1.02927E-003	10	...........	-0.07
	2744	0.32025	6.01910E-002	8.70300E-004	0.00000E+000	6.13500E-002	-8.29272E-004	10	...........	-0.07
	2751	0.321067	6.67910E-002	8.76316E-004	0.00000E+000	6.78500E-002	-6.29272E-004	10	...........	-0.07
	2758	0.321883	7.32910E-002	8.86342E-004	0.00000E+000	7.44000E-002	-8.29272E-004	10	...........	-0.07
	2765	0.3227	7.98910E-002	9.06393E-004	0.00000E+000	8.09500E-002	-9.29272E-004	10	...........	-0.07
	2772	0.323517	8.62910E-002	9.06393E-004	0.00000E+000	8.74500E-002	-9.29272E-004	10	...........	-0.07
	2779	0.324333	9.28910E-002	9.16419E-004	0.00000E+000	9.40000E-002	-8.29272E-004	10	...........	-0.07
	2786	0.32515	9.92910E-002	9.24440E-004	0.00000E+000	1.00550E-001	-8.29272E-004	10	...........	-0.07
	2793	0.325967	1.06091E-001	9.32461E-004	0.00000E+000	1.07050E-001	-8.29272E-004	10	...........	-0.07
	2800	0.326783	1.12491E-001	9.32461E-004	0.00000E+000	1.13600E-001	-8.29272E-004	10	...........	-0.07
	2807	0.3276	1.19191E-001	9.48502E-004	0.00000E+000	1.20150E-001	-6.29272E-004	10	...........	-0.07
	2814	0.328417	1.25491E-001	9.46497E-004	0.00000E+000	1.26650E-001	-1.02927E-003	10	...........	-0.07
	2821	0.329233	1.32191E-001	9.55521E-004	0.00000E+000	1.33200E-001	-8.29272E-004	10	...........	-0.07
	2828	0.33005	1.38591E-001	9.54518E-004	0.00000E+000	1.39750E-001	-9.29272E-004	10	...........	-0.07
	2835	0.330867	1.45191E-001	9.51510E-004	0.00000E+000	1.46250E-001	-8.29272E-004	10	...........	-0.07
	2842	0.331683	1.51691E-001	9.50508E-004	0.00000E+000	1.52800E-001	-1.02927E-003	10	...........	-0.07
	2849	0.3325	1.58291E-001	9.46497E-004	0.00000E+000	1.59350E-001	-9.29272E-004	10	...........	-0.07
	2856	0.333317	1.64691E-001	9.34466E-004	0.00000E+000	1.65850E-001	-8.29272E-004	10	...........	-0.07
	2863	0.334133	1.71291E-001	9.34466E-004	0.00000E+000	1.72400E-001	-8.29272E-004	10	...........	-0.07
	2870	0.33495	1.77891E-001	9.18425E-004	0.00000E+000	1.78950E-001	-8.29272E-004	10	...........	-0.07
	2877	0.335767	1.84191E-001	9.09401E-004	0.00000E+000	1.85450E-001	-6.29272E-004	10	...........	-0.07
	2884	0.336583	1.90791E-001	8.86342E-004	0.00000E+000	1.92000E-001	-8.29272E-004	10	...........	-0.07
	2891	0.3374	1.97591E-001	8.76316E-004	0.00000E+000	1.98550E-001	-8.29272E-004	10	...........	-0.07
	2898	0.338217	2.03991E-001	8.58269E-004	0.00000E+000	2.05050E-001	-8.29272E-004	10	...........	-0.07
	2905	0.339033	2.10391E-001	8.40222E-004	0.00000E+000	2.11600E-001	-8.29272E-004	10	...........	-0.07
	2912	0.33985	2.16991E-001	8.19168E-004	0.00000E+000	2.18150E-001	-8.29272E-004	10	...........	-0.07
	2919	0.340667	2.23491E-001	8.10144E-004	0.00000E+000	2.24650E-001	-9.29272E-004	10	...........	-0.07
	2926	0.341483	2.29991E-001	7.84077E-004	0.00000E+000	2.31200E-001	-9.29272E-004	10	...........	-0.07
	2933	0.3423	2.36491E-001	7.74051E-004	0.00000E+000	2.37750E-001	-9.29272E-004	10	...........	-0.07
	2940	0.343117	2.43091E-001	7.56004E-004	0.00000E+000	2.44250E-001	-1.02927E-003	10	...........	-0.07
	2947	0.343933	2.49691E-001	7.41968E-004	0.00000E+000	2.50800E-001	-7.29272E-004	10	...........	-0.07
	2954	0.34475	2.56091E-001	7.33947E-004	0.00000E+000	2.57350E-001	-7.29272E-004	10	...........	-0.07
	2961	0.345567	2.62691E-001	7.15901E-004	0.00000E+000	2.63850E-001	-9.29272E-004	10	...........	-0.07
	2968	0.346383	2.69291E-001	7.01864E-004	0.00000E+000	2.70400E-001	-8.29272E-004	10	...........	-0.07
	2975	0.3472	2.75991E-001	6.91838E-004	0.00000E+000	2.76950E-001	-8.29272E-004	10	...........	-0.07
	2982	0.348017	2.82391E-001	6.71786E-004	0.00000E+000	2.83450E-001	-7.29272E-004	10	...........	-0.07
	2989	0.348833	2.88791E-001	6.63766E-004	0.00000E+000	2.90000E-001	-1.02927E-003	10	...........	-0.07
	2996	0.34965	2.95091E-001	6.53740E-004	0.00000E+000	2.96550E-001	-8.29272E-004	10	...........	-0.07
	3003	0.350467	3.01791E-001	6.42711E-004	0.00000E+000	3.03050E-001	-8.29272E-004	10	...........	-0.07
	3010	0.351283	3.08491E-001	6.37698E-004	0.00000E+000	3.09600E-001	-7.29272E-004	10	...........	-0.07
	3017	0.3521	3.14891E-001	6.31683E-004	0.00000E+000	3.16150E-001	-6.29272E-004	10	...........	-0.07
	3024	0.352917	3.21391E-001	6.17646E-004	0.00000E+000	3.22650E-001	-9.29272E-004	10	...........	-0.07
	3031	0.353733	3.27891E-001	6.11631E-004	0.00000E+000	3.29200E-001	-8.29272E-004	10	...........	-0.07
	3038	0.35455	3.34591E-001	6.06618E-004	0.00000E+000	3.35750E-001	-8.29272E-004	10	...........	-0.07
	3045	0.355367	3.41091E-001	5.97595E-004	0.00000E+000	3.42250E-001	-9.29272E-004	10	...........	-0.07
	3052	0.356183	3.47791E-001	5.93584E-004	0.00000E+000	3.48800E-001	-8.29272E-004	10	...........	-0.07
	3059	0.357	3.54091E-001	5.91579E-004	0.00000E+000	3.55350E-001	-9.29272E-004	10	...........	-0.07
	3066	0.357817	3.60591E-001	5.78545E-004	0.00000E+000	3.61850E-001	-7.29272E-004	10	...........	-0.07
	3073	0.358633	3.67191E-001	5.76540E-004	0.00000E+000	3.68400E-001	-8.29272E-004	10	...........	-0.07
	3080	0.35945	3.73791E-001	5.69522E-004	0.00000E+000	3.74950E-001	-8.29272E-004	10	...........	-0.07
	3087	0.360267	3.80291E-001	5.65512E-004	0.00000E+000	3.81450E-001	-8.29272E-004	10	...........	-0.07
	3094	0.361083	3.86691E-001	5.61501E-004	0.00000E+000	3.88000E-001	-8.29272E-004	10	...........	-0.07
	3101	0.3619	3.93291E-001	5.63506E-004	0.00000E+000	3.94550E-001	-8.29272E-004	10	...........	-0.07
	3108	0.362717	3.99691E-001	5.57491E-004	0.00000E+000	4.01050E-001	-1.02927E-003	10	...........	-0.07
	3115	0.363533	4.06391E-001	5.62504E-004	0.00000E+000	4.07600E-001	-8.29272E-004	10	...........	-0.07
	3122	0.36435	4.12891E-001	5.57491E-004	0.00000E+000	4.14150E-001	-9.29272E-004	10	...........	-0.07
	3129	0.365167	4.19491E-001	5.55486E-004	0.00000E+000	4.20650E-001	-7.29272E-004	10	...........	-0.07
	3136	0.365983	4.25991E-001	5.52478E-004	0.00000E+000	4.27200E-001	-9.29272E-004	10	...........	-0.07
	3143	0.3668	4.32491E-001	5.49470E-004	0.00000E+000	4.33750E-001	-1.02927E-003	10	...........	-0.07
	3150	0.367617	4.39091E-001	5.41449E-004	0.00000E+000	4.40250E-001	-8.29272E-004	10	...........	-0.07
	3157	0.368433	4.45691E-001	5.53480E-004	0.00000E+000	4.46800E-001	-9.29272E-004	10	...........	-0.07
	3164	0.36925	4.52091E-001	5.51475E-004	0.00000E+000	4.53350E-001	-8.29272E-004	10	...........	-0.07
	3171	0.370067	4.58591E-001	5.47465E-004	0.00000E+000	4.59850E-001	-8.29272E-004	10	...........	-0.07
	3178	0.370883	4.65091E-001	5.45460E-004	0.00000E+000	4.66400E-001	-9.29272E-004	10	...........	-0.07
	3185	0.3717	4.71691E-001	5.49470E-004	0.00000E+000	4.72950E-001	-1.02927E-003	10	...........	-0.07
	3192	0.372517	4.78091E-001	5.43454E-004	0.00000E+000	4.79450E-001	-1.02927E-003	10	...........	-0.07
	3199	0.373333	4.84591E-001	5.44457E-004	0.00000E+000	4.86000E-001	-9.29272E-004	10	...........	-0.07
	3206	0.37415	4.91291E-001	5.43454E-004	0.00000E+000	4.92550E-001	-8.29272E-004	10	...........	-0.07
	3213	0.374967	4.97691E-001	5.37439E-004	0.00000E+000	4.99050E-001	-9.29272E-004	10	...........	-0.07
	3214	0.375083	4.98691E-001	5.33429E-004	0.00000E+000	5.00000E-001	-9.29272E-004	10	...........	-0.07
CURVE2	TABLE
	Pt	T	Vf	Im	Vu	Sig	Ach	IERange	Over	Temp
	#	s	V vs. Ref.	A	V	V	V	#	bits	deg C
	3215	0.3752	4.98691E-001	4.77283E-004	0.00000E+000	5.00000E-001	-9.29272E-004	10	...........	-0.07