File: data/02-SI/Figures_S9_S11_RDE/14btmapaq-rde/1mkcl-5mmolar14btmapaq-nitrogen-3000mvpers.DTA
EXPLAIN
TAG	CV
TITLE	LABEL	Cyclic Voltammetry	Test &Identifier
DATE	LABEL	1/31/2023	Date
TIME	LABEL	14:05:02	Time
NOTES	NOTES	1	&Notes...

PSTAT	PSTAT	REF3000-21108	Potentiostat
VINIT	POTEN	5.00000E-001	F	Initial &E (V)
VLIMIT1	POTEN	-1.00000E+000	F	Scan Limit &1 (V)
VLIMIT2	POTEN	5.00000E-001	F	Scan Limit &2 (V)
VFINAL	POTEN	5.00000E-001	F	Final &E (V)
SCANRATE	QUANT	2.99999E+003	&Scan Rate (mV/s)
STEPSIZE	QUANT	1.00000E+000	St&ep Size (mV)
CYCLES	IQUANT	1	C&ycles (#)
IMODE	SELECTOR	1	I/E Range &Mode
IRANGE	QUANT	1.00000E+001	&Max Current (mA)
AREA	QUANT	1.00000E+000	Electrode &Area (cm^2)
ELECTRODETYPE	SELECTOR	0	Electrode Type
STRIPPING	TOGGLE	F	Used for Stripping
POLARITY	TOGGLE	F	Signal Polarity
CONDIT	TWOPARAM	F	1.50000E+001	0.00000E+000	Conditionin&g	Time(s)	E(V)
DELAY	TWOPARAM	F	5.00000E+000	0.00000E+000	Init. De&lay	Time(s)	Stab.(mV/s)
EQDELAY	QUANT	0.00000E+000	Equil. &Time (s)
IRCOMP	SELECTOR	0	IRCom&p
PFCOR	QUANT	5.00000E+001	PF Corr. (ohm)
SAMPLINGMODE	SELECTOR	1	Sampling &Mode
EOC	QUANT	0	Open Circuit (V)
PSTATMODEL	IQUANT	5	Pstat Model
PSTATSECTION	LABEL	REF3000-21108	Pstat Section
PSTATSERIALNO	LABEL	21108	Pstat Serial Number
CTRLMODE	IQUANT	1	Control Mode
ELECTROMETER	IQUANT	0	RE=0 or CS=1
IESTAB	IQUANT	2	I/E Stability
CASPEED	IQUANT	4	Control Amp Speed
CONVENTION	IQUANT	1	Current Convention
ICHRANGE	IQUANT	2	Ich Range
ICHRANGEMODE	TOGGLE	F	Ich Auto Range
ICHOFFSETENABLE	TOGGLE	F	Ich Offset Enable
ICHOFFSET	QUANT	0	Ich Offset (V)
ICHFILTER	IQUANT	1	Ich Filter
VCHRANGE	IQUANT	2	Vch Range
VCHRANGEMODE	TOGGLE	F	Vch Auto Range
VCHOFFSETENABLE	TOGGLE	F	Vch Offset Enable
VCHOFFSET	QUANT	0	Vch Offset (V)
VCHFILTER	IQUANT	1	Vch Filter
ACHRANGE	IQUANT	2	Ach Range
ACHOFFSETENABLE	TOGGLE	F	Ach Offset Enable
ACHOFFSET	QUANT	0	Ach Offset (V)
ACHFILTER	IQUANT	0	Ach Filter
IERANGELOWERLIMIT	IQUANT	2	I/E Range Lower Limit
IERANGEMODE	TOGGLE	F	I/E AutoRange
IERANGE	IQUANT	10	I/E Range
POSFEEDENABLE	TOGGLE	F	Positive Feedback IR Comp
POSFEEDRESISTANCE	QUANT	0	Positive Feedback Resistance (ohm)
ACHSELECT	IQUANT	0	Ach Select
SENSECABLEID	IQUANT	14	Sense Cable ID
PWRCABLEID	IQUANT	7	Power Cable ID
DCCALDATE	LABEL	11/9/2022	DC Calibration Date
ACCALDATE	LABEL	11/9/2022	AC Calibration Date
THERMOSELECT	IQUANT	1	Thermo Select
FRAMEWORKVERSION	LABEL	7.8.2	Framework Version
INSTRUMENTVERSION	LABEL	4.40	Instrument Version
COMPLIANCEVOLTAGE	IQUANT	0	Compliance Voltage
CURVE1	TABLE
	Pt	T	Vf	Im	Vu	Sig	Ach	IERange	Over	Temp
	#	s	V vs. Ref.	A	V	V	V	#	bits	deg C
	0	0.000333	4.98766E-001	6.44652E-005	0.00000E+000	5.00000E-001	-8.29272E-004	10	..........a	-327.74
	7	0.002667	4.91716E-001	2.46120E-005	0.00000E+000	4.93000E-001	-8.29272E-004	10	..........a	-327.74
	14	0.005	4.84741E-001	1.90978E-005	0.00000E+000	4.86000E-001	-8.79272E-004	10	..........a	-327.74
	21	0.007333	4.77691E-001	1.50874E-005	0.00000E+000	4.79000E-001	-6.29272E-004	10	..........a	-327.74
	28	0.009667	4.70716E-001	1.23303E-005	0.00000E+000	4.72000E-001	-8.29272E-004	10	..........a	-327.74
	35	0.012	4.63741E-001	6.81600E-006	0.00000E+000	4.65000E-001	-7.29272E-004	10	..........a	-327.74
	42	0.014333	4.56766E-001	7.31730E-006	0.00000E+000	4.58000E-001	-8.29272E-004	10	..........a	-327.74
	49	0.016667	4.49666E-001	2.80563E-006	0.00000E+000	4.51000E-001	-7.79272E-004	10	..........a	-327.74
	56	0.019	4.42791E-001	2.55498E-006	0.00000E+000	4.44000E-001	-8.29272E-004	10	..........a	-327.74
	63	0.021333	4.35666E-001	4.84920E-008	0.00000E+000	4.37000E-001	-8.29272E-004	10	..........a	-327.74
	70	0.023667	4.28841E-001	-1.20475E-006	0.00000E+000	4.30000E-001	-7.29272E-004	10	..........a	-327.74
	77	0.026	4.21741E-001	-2.70864E-006	0.00000E+000	4.23000E-001	-7.29272E-004	10	..........a	-327.74
	84	0.028333	4.14841E-001	-6.46837E-006	0.00000E+000	4.16000E-001	-8.79272E-004	10	..........a	-327.74
	91	0.030667	4.07716E-001	-9.22550E-006	0.00000E+000	4.09000E-001	-7.29272E-004	10	..........a	-327.74
	98	0.033	4.00666E-001	-1.02281E-005	0.00000E+000	4.02000E-001	-8.79272E-004	10	..........a	-327.74
	105	0.035333	3.93816E-001	-1.22333E-005	0.00000E+000	3.95000E-001	-7.79272E-004	10	..........a	-327.74
	112	0.037667	3.86766E-001	-1.42385E-005	0.00000E+000	3.88000E-001	-7.79272E-004	10	..........a	-327.74
	119	0.04	3.79716E-001	-1.32359E-005	0.00000E+000	3.81000E-001	-7.29272E-004	10	..........a	-327.74
	126	0.042333	3.72691E-001	-1.39878E-005	0.00000E+000	3.74000E-001	-6.29272E-004	10	..........a	-327.74
	133	0.044667	3.65841E-001	-1.84995E-005	0.00000E+000	3.67000E-001	-8.79272E-004	10	..........a	-327.74
	140	0.047	3.58816E-001	-1.74969E-005	0.00000E+000	3.60000E-001	-6.79272E-004	10	..........a	-327.74
	147	0.049333	3.51741E-001	-2.00034E-005	0.00000E+000	3.53000E-001	-8.79272E-004	10	..........a	-327.74
	154	0.051667	3.44766E-001	-2.10060E-005	0.00000E+000	3.46000E-001	-8.79272E-004	10	..........a	-327.74
	161	0.054	3.37766E-001	-2.32618E-005	0.00000E+000	3.39000E-001	-8.79272E-004	10	..........a	-327.74
	168	0.056333	3.30841E-001	-2.50164E-005	0.00000E+000	3.32000E-001	-8.29272E-004	10	..........a	-327.74
	175	0.058667	3.23816E-001	-2.67709E-005	0.00000E+000	3.25000E-001	-8.79272E-004	10	..........a	-327.74
	182	0.061	3.16741E-001	-2.85254E-005	0.00000E+000	3.18000E-001	-7.29272E-004	10	..........a	-327.74
	189	0.063333	3.09941E-001	-2.95280E-005	0.00000E+000	3.11000E-001	-7.79272E-004	10	..........a	-327.74
	196	0.065667	3.02841E-001	-3.10319E-005	0.00000E+000	3.04000E-001	-7.79272E-004	10	..........a	-327.74
	203	0.068	2.95791E-001	-3.20345E-005	0.00000E+000	2.97000E-001	-7.29272E-004	10	..........a	-327.74
	210	0.070333	2.88816E-001	-3.45410E-005	0.00000E+000	2.90000E-001	-6.79272E-004	10	..........a	-327.74
	217	0.072667	2.81716E-001	-3.55436E-005	0.00000E+000	2.83000E-001	-7.79272E-004	10	..........a	-327.74
	224	0.075	2.74741E-001	-3.50423E-005	0.00000E+000	2.76000E-001	-7.29272E-004	10	..........a	-327.74
	231	0.077333	2.67816E-001	-3.77994E-005	0.00000E+000	2.69000E-001	-8.79272E-004	10	..........a	-327.74
	238	0.079667	2.60791E-001	-3.93033E-005	0.00000E+000	2.62000E-001	-9.29272E-004	10	..........a	-327.74
	245	0.082	2.53866E-001	-4.03059E-005	0.00000E+000	2.55000E-001	-6.79272E-004	10	..........a	-327.74
	252	0.084333	2.46791E-001	-4.10579E-005	0.00000E+000	2.48000E-001	-7.29272E-004	10	..........a	-327.74
	259	0.086667	2.39816E-001	-4.10579E-005	0.00000E+000	2.41000E-001	-7.29272E-004	10	..........a	-327.74
	266	0.089	2.32866E-001	-4.25618E-005	0.00000E+000	2.34000E-001	-6.79272E-004	10	..........a	-327.74
	273	0.091333	2.25716E-001	-4.25618E-005	0.00000E+000	2.27000E-001	-9.29272E-004	10	..........a	-327.74
	280	0.093667	2.18816E-001	-4.55695E-005	0.00000E+000	2.20000E-001	-6.79272E-004	10	..........a	-327.74
	287	0.096	2.11741E-001	-4.40656E-005	0.00000E+000	2.13000E-001	-7.79272E-004	10	..........a	-327.74
	294	0.098333	2.04791E-001	-4.90786E-005	0.00000E+000	2.06000E-001	-8.29272E-004	10	..........a	-327.74
	301	0.100667	1.97916E-001	-4.55695E-005	0.00000E+000	1.99000E-001	-9.29272E-004	10	..........a	-327.74
	308	0.103	1.90916E-001	-4.78254E-005	0.00000E+000	1.92000E-001	-7.79272E-004	10	..........a	-327.74
	315	0.105333	1.83791E-001	-4.98306E-005	0.00000E+000	1.85000E-001	-8.79272E-004	10	..........a	-327.74
	322	0.107667	1.76916E-001	-4.95799E-005	0.00000E+000	1.78000E-001	-7.79272E-004	10	..........a	-327.74
	329	0.11	1.69816E-001	-5.18357E-005	0.00000E+000	1.71000E-001	-8.79272E-004	10	..........a	-327.74
	336	0.112333	1.62891E-001	-5.08332E-005	0.00000E+000	1.64000E-001	-7.79272E-004	10	..........a	-327.74
	343	0.114667	1.55841E-001	-5.50942E-005	0.00000E+000	1.57000E-001	-7.79272E-004	10	..........a	-327.74
	350	0.117	1.48841E-001	-5.40916E-005	0.00000E+000	1.50000E-001	-8.29272E-004	10	..........a	-327.74
	357	0.119333	1.41841E-001	-5.28383E-005	0.00000E+000	1.43000E-001	-6.79272E-004	10	..........a	-327.74
	364	0.121667	1.34816E-001	-5.30890E-005	0.00000E+000	1.36000E-001	-7.79272E-004	10	..........a	-327.74
	371	0.124	1.27766E-001	-5.20864E-005	0.00000E+000	1.29000E-001	-8.29272E-004	10	..........a	-327.74
	378	0.126333	1.21066E-001	-5.35903E-005	0.00000E+000	1.22000E-001	-7.79272E-004	10	..........a	-327.74
	385	0.128667	1.13941E-001	-5.38409E-005	0.00000E+000	1.15000E-001	-6.79272E-004	10	..........a	-327.74
	392	0.131	1.06916E-001	-5.65981E-005	0.00000E+000	1.08000E-001	-7.79272E-004	10	..........a	-327.74
	399	0.133333	9.99410E-002	-5.68487E-005	0.00000E+000	1.01000E-001	-7.29272E-004	10	..........a	-327.74
	406	0.135667	9.28410E-002	-5.65981E-005	0.00000E+000	9.40000E-002	-7.79272E-004	10	..........a	-327.74
	413	0.138	8.59410E-002	-5.76007E-005	0.00000E+000	8.70000E-002	-7.29272E-004	10	..........a	-327.74
	420	0.140333	7.88660E-002	-5.78513E-005	0.00000E+000	8.00000E-002	-9.29272E-004	10	..........a	-327.74
	427	0.142667	7.18910E-002	-5.76007E-005	0.00000E+000	7.30000E-002	-8.29272E-004	10	..........a	-327.74
	434	0.145	6.48660E-002	-5.96059E-005	0.00000E+000	6.60000E-002	-7.79272E-004	10	..........a	-327.74
	441	0.147333	5.78910E-002	-6.18617E-005	0.00000E+000	5.90000E-002	-8.79272E-004	10	..........a	-327.74
	448	0.149667	5.08160E-002	-6.03578E-005	0.00000E+000	5.20000E-002	-8.29272E-004	10	..........a	-327.74
	455	0.152	4.38910E-002	-5.88539E-005	0.00000E+000	4.50000E-002	-8.29272E-004	10	..........a	-327.74
	462	0.154333	3.69410E-002	-5.78513E-005	0.00000E+000	3.80000E-002	-8.29272E-004	10	..........a	-327.74
	469	0.156667	2.99160E-002	-6.13604E-005	0.00000E+000	3.10000E-002	-9.29272E-004	10	..........a	-327.74
	476	0.159	2.29410E-002	-6.18617E-005	0.00000E+000	2.40000E-002	-7.79272E-004	10	..........a	-327.74
	483	0.161333	1.57910E-002	-6.18617E-005	0.00000E+000	1.70000E-002	-8.29272E-004	10	..........a	-327.74
	490	0.163667	8.84100E-003	-6.18617E-005	0.00000E+000	9.99999E-003	-7.79272E-004	10	..........a	-327.74
	497	0.166	1.89100E-003	-6.01071E-005	0.00000E+000	2.99999E-003	-8.29272E-004	10	..........a	-327.74
	504	0.168333	-5.13400E-003	-6.03578E-005	0.00000E+000	-4.00001E-003	-7.79272E-004	10	..........a	-327.74
	511	0.170667	-1.21590E-002	-6.28643E-005	0.00000E+000	-1.10000E-002	-8.29272E-004	10	..........a	-327.74
	518	0.173	-1.90340E-002	-6.13604E-005	0.00000E+000	-1.80000E-002	-7.79272E-004	10	..........a	-327.74
	525	0.175333	-2.61090E-002	-6.16110E-005	0.00000E+000	-2.50000E-002	-5.79272E-004	10	..........a	-327.74
	532	0.177667	-3.31590E-002	-6.21123E-005	0.00000E+000	-3.20000E-002	-8.79272E-004	10	..........a	-327.74
	539	0.18	-4.01590E-002	-6.43682E-005	0.00000E+000	-3.90000E-002	-8.29272E-004	10	..........a	-327.74
	546	0.182333	-4.69590E-002	-6.06084E-005	0.00000E+000	-4.60000E-002	-7.79272E-004	10	..........a	-327.74
	553	0.184667	-5.40090E-002	-6.28643E-005	0.00000E+000	-5.30000E-002	-8.29272E-004	10	..........a	-327.74
	560	0.187	-6.11590E-002	-5.96059E-005	0.00000E+000	-6.00000E-002	-8.29272E-004	10	..........a	-327.74
	567	0.189333	-6.80590E-002	-6.28643E-005	0.00000E+000	-6.70000E-002	-7.79272E-004	10	..........a	-327.74
	574	0.191667	-7.51340E-002	-6.03578E-005	0.00000E+000	-7.40000E-002	-8.29272E-004	10	..........a	-327.74
	581	0.194	-8.20590E-002	-6.23630E-005	0.00000E+000	-8.10000E-002	-8.29272E-004	10	..........a	-327.74
	588	0.196333	-8.92090E-002	-6.13604E-005	0.00000E+000	-8.80000E-002	-7.79272E-004	10	..........a	-327.74
	595	0.198667	-9.61090E-002	-5.98565E-005	0.00000E+000	-9.50000E-002	-7.79272E-004	10	..........a	-327.74
	602	0.201	-1.02984E-001	-6.28643E-005	0.00000E+000	-1.02000E-001	-7.79272E-004	10	..........a	-327.74
	609	0.203333	-1.10109E-001	-6.01071E-005	0.00000E+000	-1.09000E-001	-7.79272E-004	10	..........a	-327.74
	616	0.205667	-1.17134E-001	-5.98565E-005	0.00000E+000	-1.16000E-001	-8.79272E-004	10	..........a	-327.74
	623	0.208	-1.24034E-001	-5.93552E-005	0.00000E+000	-1.23000E-001	-8.29272E-004	10	..........a	-327.74
	630	0.210333	-1.31084E-001	-6.03578E-005	0.00000E+000	-1.30000E-001	-6.79272E-004	10	..........a	-327.74
	637	0.212667	-1.38059E-001	-5.81020E-005	0.00000E+000	-1.37000E-001	-8.29272E-004	10	..........a	-327.74
	644	0.215	-1.45009E-001	-5.98565E-005	0.00000E+000	-1.44000E-001	-7.79272E-004	10	..........a	-327.74
	651	0.217333	-1.52084E-001	-6.21123E-005	0.00000E+000	-1.51000E-001	-7.79272E-004	10	..........a	-327.74
	658	0.219667	-1.58934E-001	-5.86033E-005	0.00000E+000	-1.58000E-001	-7.79272E-004	10	..........a	-327.74
	665	0.222	-1.65959E-001	-5.91046E-005	0.00000E+000	-1.65000E-001	-8.29272E-004	10	..........a	-327.74
	672	0.224333	-1.72984E-001	-5.96059E-005	0.00000E+000	-1.72000E-001	-7.79272E-004	10	..........a	-327.74
	679	0.226667	-1.79909E-001	-5.88539E-005	0.00000E+000	-1.79000E-001	-7.29272E-004	10	..........a	-327.74
	686	0.229	-1.87134E-001	-5.98565E-005	0.00000E+000	-1.86000E-001	-8.29272E-004	10	..........a	-327.74
	693	0.231333	-1.94034E-001	-5.78513E-005	0.00000E+000	-1.93000E-001	-8.79272E-004	10	..........a	-327.74
	700	0.233667	-2.01034E-001	-6.11097E-005	0.00000E+000	-2.00000E-001	-9.29272E-004	10	..........a	-327.74
	707	0.236	-2.08059E-001	-5.81020E-005	0.00000E+000	-2.07000E-001	-7.79272E-004	10	..........a	-327.74
	714	0.238333	-2.14909E-001	-5.96059E-005	0.00000E+000	-2.14000E-001	-7.79272E-004	10	..........a	-327.74
	721	0.240667	-2.21959E-001	-6.03578E-005	0.00000E+000	-2.21000E-001	-7.29272E-004	10	..........a	-327.74
	728	0.243	-2.29084E-001	-6.01071E-005	0.00000E+000	-2.28000E-001	-7.79272E-004	10	..........a	-327.74
	735	0.245333	-2.35984E-001	-6.31149E-005	0.00000E+000	-2.35000E-001	-8.29272E-004	10	..........a	-327.74
	742	0.247667	-2.43009E-001	-6.23630E-005	0.00000E+000	-2.42000E-001	-8.29272E-004	10	..........a	-327.74
	749	0.25	-2.50009E-001	-6.33656E-005	0.00000E+000	-2.49000E-001	-7.79272E-004	10	..........a	-327.74
	756	0.252333	-2.57034E-001	-6.73760E-005	0.00000E+000	-2.56000E-001	-6.29272E-004	10	..........a	-327.74
	763	0.254667	-2.63984E-001	-6.88798E-005	0.00000E+000	-2.63000E-001	-8.29272E-004	10	..........a	-327.74
	770	0.257	-2.71034E-001	-6.78773E-005	0.00000E+000	-2.70000E-001	-6.79272E-004	10	..........a	-327.74
	777	0.259333	-2.77984E-001	-6.86292E-005	0.00000E+000	-2.77000E-001	-7.29272E-004	10	..........a	-327.74
	784	0.261667	-2.85059E-001	-7.01331E-005	0.00000E+000	-2.84000E-001	-7.29272E-004	10	..........a	-327.74
	791	0.264	-2.91934E-001	-7.46448E-005	0.00000E+000	-2.91000E-001	-8.29272E-004	10	..........a	-327.74
	798	0.266333	-2.98984E-001	-7.51461E-005	0.00000E+000	-2.98000E-001	-6.29272E-004	10	..........a	-327.74
	805	0.268667	-3.06009E-001	-7.91564E-005	0.00000E+000	-3.05000E-001	-6.79272E-004	10	..........a	-327.74
	812	0.271	-3.13034E-001	-8.31668E-005	0.00000E+000	-3.12000E-001	-9.29272E-004	10	..........a	-327.74
	819	0.273333	-3.19984E-001	-8.76785E-005	0.00000E+000	-3.19000E-001	-8.29272E-004	10	..........a	-327.74
	826	0.275667	-3.26859E-001	-8.64252E-005	0.00000E+000	-3.26000E-001	-7.29272E-004	10	..........a	-327.74
	833	0.278	-3.33984E-001	-9.16889E-005	0.00000E+000	-3.33000E-001	-6.79272E-004	10	..........a	-327.74
	840	0.280333	-3.40934E-001	-9.69525E-005	0.00000E+000	-3.40000E-001	-8.29272E-004	10	..........a	-327.74
	847	0.282667	-3.47984E-001	-1.02216E-004	0.00000E+000	-3.47000E-001	-6.79272E-004	10	..........a	-327.74
	854	0.285	-3.54959E-001	-1.03219E-004	0.00000E+000	-3.54000E-001	-8.29272E-004	10	..........a	-327.74
	861	0.287333	-3.61984E-001	-1.08733E-004	0.00000E+000	-3.61000E-001	-7.29272E-004	10	..........a	-327.74
	868	0.289667	-3.69059E-001	-1.15751E-004	0.00000E+000	-3.68000E-001	-6.79272E-004	10	..........a	-327.74
	875	0.292	-3.75959E-001	-1.22519E-004	0.00000E+000	-3.75000E-001	-7.29272E-004	10	..........a	-327.74
	882	0.294333	-3.82809E-001	-1.29286E-004	0.00000E+000	-3.82000E-001	-7.29272E-004	10	..........a	-327.74
	889	0.296667	-3.89959E-001	-1.34800E-004	0.00000E+000	-3.89000E-001	-7.29272E-004	10	..........a	-327.74
	896	0.299	-3.96959E-001	-1.39813E-004	0.00000E+000	-3.96000E-001	-8.79272E-004	10	..........a	-327.74
	903	0.301333	-4.03934E-001	-1.50842E-004	0.00000E+000	-4.03000E-001	-8.29272E-004	10	..........a	-327.74
	910	0.303667	-4.10959E-001	-1.62121E-004	0.00000E+000	-4.10000E-001	-8.29272E-004	10	..........a	-327.74
	917	0.306	-4.18009E-001	-1.76408E-004	0.00000E+000	-4.17000E-001	-9.29272E-004	10	..........a	-327.74
	924	0.308333	-4.24984E-001	-1.93202E-004	0.00000E+000	-4.24000E-001	-7.79272E-004	10	..........a	-327.74
	931	0.310667	-4.31934E-001	-2.15760E-004	0.00000E+000	-4.31000E-001	-9.29272E-004	10	..........a	-327.74
	938	0.313	-4.38884E-001	-2.37817E-004	0.00000E+000	-4.38000E-001	-8.79272E-004	10	..........a	-327.74
	945	0.315333	-4.45959E-001	-2.66642E-004	0.00000E+000	-4.45000E-001	-7.29272E-004	10	..........a	-327.74
	952	0.317667	-4.52934E-001	-2.98725E-004	0.00000E+000	-4.52000E-001	-7.29272E-004	10	..........a	-327.74
	959	0.32	-4.59959E-001	-3.42087E-004	0.00000E+000	-4.59000E-001	-6.79272E-004	10	..........a	-327.74
	966	0.322333	-4.66834E-001	-3.83945E-004	0.00000E+000	-4.66000E-001	-8.29272E-004	10	..........a	-327.74
	973	0.324667	-4.73959E-001	-4.33323E-004	0.00000E+000	-4.73000E-001	-7.29272E-004	10	..........a	-327.74
	980	0.327	-4.80909E-001	-4.87212E-004	0.00000E+000	-4.80000E-001	-8.29272E-004	10	..........a	-327.74
	987	0.329333	-4.87909E-001	-5.39096E-004	0.00000E+000	-4.87000E-001	-7.29272E-004	10	..........a	-327.74
	994	0.331667	-4.94759E-001	-5.93988E-004	0.00000E+000	-4.94000E-001	-9.29272E-004	10	..........a	-327.74
	1001	0.334	-5.01959E-001	-6.55147E-004	0.00000E+000	-5.01000E-001	-7.79272E-004	10	..........a	-327.74
	1008	0.336333	-5.08859E-001	-7.21569E-004	0.00000E+000	-5.08000E-001	-7.29272E-004	10	..........a	-327.74
	1015	0.338667	-5.15834E-001	-7.90998E-004	0.00000E+000	-5.15000E-001	-7.79272E-004	10	..........a	-327.74
	1022	0.341	-5.22884E-001	-8.69702E-004	0.00000E+000	-5.22000E-001	-8.29272E-004	10	..........a	-327.74
	1029	0.343333	-5.29834E-001	-9.55674E-004	0.00000E+000	-5.29000E-001	-7.79272E-004	10	..........a	-327.74
	1036	0.345667	-5.36859E-001	-1.05368E-003	0.00000E+000	-5.36000E-001	-6.29272E-004	10	..........a	-327.74
	1043	0.348	-5.43934E-001	-1.15720E-003	0.00000E+000	-5.43000E-001	-8.79272E-004	10	..........a	-327.74
	1050	0.350333	-5.50959E-001	-1.26698E-003	0.00000E+000	-5.50000E-001	-7.29272E-004	10	..........a	-327.74
	1057	0.352667	-5.57884E-001	-1.37877E-003	0.00000E+000	-5.57000E-001	-7.79272E-004	10	..........a	-327.74
	1064	0.355	-5.64809E-001	-1.49056E-003	0.00000E+000	-5.64000E-001	-6.79272E-004	10	..........a	-327.74
	1071	0.357333	-5.71859E-001	-1.59583E-003	0.00000E+000	-5.71000E-001	-9.29272E-004	10	..........a	-327.74
	1078	0.359667	-5.78909E-001	-1.68982E-003	0.00000E+000	-5.78000E-001	-7.79272E-004	10	..........a	-327.74
	1085	0.362	-5.85859E-001	-1.77354E-003	0.00000E+000	-5.85000E-001	-8.29272E-004	10	..........a	-327.74
	1092	0.364333	-5.92909E-001	-1.83219E-003	0.00000E+000	-5.92000E-001	-7.79272E-004	10	..........a	-327.74
	1099	0.366667	-5.99834E-001	-1.86879E-003	0.00000E+000	-5.99000E-001	-6.79272E-004	10	..........a	-327.74
	1106	0.369	-6.06834E-001	-1.88157E-003	0.00000E+000	-6.06000E-001	-6.79272E-004	10	..........a	-327.74
	1113	0.371333	-6.13909E-001	-1.87004E-003	0.00000E+000	-6.13000E-001	-6.79272E-004	10	..........a	-327.74
	1120	0.373667	-6.20759E-001	-1.83620E-003	0.00000E+000	-6.20000E-001	-8.79272E-004	10	..........a	-327.74
	1127	0.376	-6.27834E-001	-1.78256E-003	0.00000E+000	-6.27000E-001	-9.29272E-004	10	..........a	-327.74
	1134	0.378333	-6.34884E-001	-1.71890E-003	0.00000E+000	-6.34000E-001	-8.29272E-004	10	..........a	-327.74
	1141	0.380667	-6.41859E-001	-1.65448E-003	0.00000E+000	-6.41000E-001	-8.79272E-004	10	..........a	-327.74
	1148	0.383	-6.48784E-001	-1.58881E-003	0.00000E+000	-6.48000E-001	-8.29272E-004	10	..........a	-327.74
	1155	0.385333	-6.55884E-001	-1.53091E-003	0.00000E+000	-6.55000E-001	-8.29272E-004	10	..........a	-327.74
	1162	0.387667	-6.62859E-001	-1.47677E-003	0.00000E+000	-6.62000E-001	-7.79272E-004	10	..........a	-327.74
	1169	0.39	-6.69709E-001	-1.42739E-003	0.00000E+000	-6.69000E-001	-6.79272E-004	10	..........a	-327.74
	1176	0.392333	-6.76934E-001	-1.38679E-003	0.00000E+000	-6.76000E-001	-8.79272E-004	10	..........a	-327.74
	1183	0.394667	-6.83759E-001	-1.34568E-003	0.00000E+000	-6.83000E-001	-7.29272E-004	10	..........a	-327.74
	1190	0.397	-6.90859E-001	-1.31260E-003	0.00000E+000	-6.90000E-001	-8.29272E-004	10	..........a	-327.74
	1197	0.399333	-6.97834E-001	-1.27701E-003	0.00000E+000	-6.97000E-001	-8.29272E-004	10	..........a	-327.74
	1204	0.401667	-7.04759E-001	-1.24743E-003	0.00000E+000	-7.04000E-001	-8.79272E-004	10	..........a	-327.74
	1211	0.404	-7.11859E-001	-1.21459E-003	0.00000E+000	-7.11000E-001	-7.29272E-004	10	..........a	-327.74
	1218	0.406333	-7.18809E-001	-1.18652E-003	0.00000E+000	-7.18000E-001	-8.29272E-004	10	..........a	-327.74
	1225	0.408667	-7.25884E-001	-1.15695E-003	0.00000E+000	-7.25000E-001	-8.29272E-004	10	..........a	-327.74
	1232	0.411	-7.32809E-001	-1.12712E-003	0.00000E+000	-7.32000E-001	-8.29272E-004	10	..........a	-327.74
	1239	0.413333	-7.39809E-001	-1.10155E-003	0.00000E+000	-7.39000E-001	-7.79272E-004	10	..........a	-327.74
	1246	0.415667	-7.46759E-001	-1.07498E-003	0.00000E+000	-7.46000E-001	-7.79272E-004	10	..........a	-327.74
	1253	0.418	-7.53934E-001	-1.05293E-003	0.00000E+000	-7.53000E-001	-8.79272E-004	10	..........a	-327.74
	1260	0.420333	-7.60759E-001	-1.03037E-003	0.00000E+000	-7.60000E-001	-6.79272E-004	10	..........a	-327.74
	1267	0.422667	-7.67834E-001	-1.00781E-003	0.00000E+000	-7.67000E-001	-6.79272E-004	10	..........a	-327.74
	1274	0.425	-7.74809E-001	-9.87507E-004	0.00000E+000	-7.74000E-001	-7.29272E-004	10	..........a	-327.74
	1281	0.427333	-7.81784E-001	-9.67956E-004	0.00000E+000	-7.81000E-001	-7.79272E-004	10	..........a	-327.74
	1288	0.429667	-7.88834E-001	-9.47653E-004	0.00000E+000	-7.88000E-001	-7.79272E-004	10	..........a	-327.74
	1295	0.432	-7.95759E-001	-9.28604E-004	0.00000E+000	-7.95000E-001	-7.79272E-004	10	..........a	-327.74
	1302	0.434333	-8.02759E-001	-9.10808E-004	0.00000E+000	-8.02000E-001	-7.79272E-004	10	..........a	-327.74
	1309	0.436667	-8.09859E-001	-8.91759E-004	0.00000E+000	-8.09000E-001	-7.79272E-004	10	..........a	-327.74
	1316	0.439	-8.16759E-001	-8.78725E-004	0.00000E+000	-8.16000E-001	-8.29272E-004	10	..........a	-327.74
	1323	0.441333	-8.23784E-001	-8.65441E-004	0.00000E+000	-8.23000E-001	-9.29272E-004	10	..........a	-327.74
	1330	0.443667	-8.30609E-001	-8.46391E-004	0.00000E+000	-8.30000E-001	-8.29272E-004	10	..........a	-327.74
	1337	0.446	-8.37809E-001	-8.33859E-004	0.00000E+000	-8.37000E-001	-9.29272E-004	10	..........a	-327.74
	1344	0.448333	-8.44684E-001	-8.21327E-004	0.00000E+000	-8.44000E-001	-8.29272E-004	10	..........a	-327.74
	1351	0.450667	-8.51684E-001	-8.09546E-004	0.00000E+000	-8.51000E-001	-6.79272E-004	10	..........a	-327.74
	1358	0.453	-8.58684E-001	-7.97014E-004	0.00000E+000	-8.58000E-001	-8.29272E-004	10	..........a	-327.74
	1365	0.455333	-8.65734E-001	-7.84481E-004	0.00000E+000	-8.65000E-001	-8.29272E-004	10	..........a	-327.74
	1372	0.457667	-8.72784E-001	-7.71448E-004	0.00000E+000	-8.72000E-001	-6.79272E-004	10	..........a	-327.74
	1379	0.46	-8.79734E-001	-7.62174E-004	0.00000E+000	-8.79000E-001	-9.29272E-004	10	..........a	-327.74
	1386	0.462333	-8.86709E-001	-7.49391E-004	0.00000E+000	-8.86000E-001	-8.79272E-004	10	..........a	-327.74
	1393	0.464667	-8.93734E-001	-7.42623E-004	0.00000E+000	-8.93000E-001	-7.79272E-004	10	..........a	-327.74
	1400	0.467	-9.00734E-001	-7.32346E-004	0.00000E+000	-9.00000E-001	-7.79272E-004	10	..........a	-327.74
	1407	0.469333	-9.07684E-001	-7.22822E-004	0.00000E+000	-9.07000E-001	-7.29272E-004	10	..........a	-327.74
	1414	0.471667	-9.14709E-001	-7.14550E-004	0.00000E+000	-9.14000E-001	-7.29272E-004	10	..........a	-327.74
	1421	0.474	-9.21734E-001	-7.06780E-004	0.00000E+000	-9.21000E-001	-8.79272E-004	10	..........a	-327.74
	1428	0.476333	-9.28684E-001	-6.97757E-004	0.00000E+000	-9.28000E-001	-7.79272E-004	10	..........a	-327.74
	1435	0.478667	-9.35684E-001	-6.91240E-004	0.00000E+000	-9.35000E-001	-7.79272E-004	10	..........a	-327.74
	1442	0.481	-9.42659E-001	-6.82969E-004	0.00000E+000	-9.42000E-001	-8.29272E-004	10	..........a	-327.74
	1449	0.483333	-9.49684E-001	-6.77204E-004	0.00000E+000	-9.49000E-001	-8.29272E-004	10	..........a	-327.74
	1456	0.485667	-9.56809E-001	-6.71188E-004	0.00000E+000	-9.56000E-001	-7.29272E-004	10	..........a	-327.74
	1463	0.488	-9.63609E-001	-6.64170E-004	0.00000E+000	-9.63000E-001	-8.29272E-004	10	..........a	-327.74
	1470	0.490333	-9.70709E-001	-6.58405E-004	0.00000E+000	-9.70000E-001	-7.79272E-004	10	..........a	-327.74
	1477	0.492667	-9.77609E-001	-6.52891E-004	0.00000E+000	-9.77000E-001	-8.79272E-004	10	..........a	-327.74
	1484	0.495	-9.84609E-001	-6.45121E-004	0.00000E+000	-9.84000E-001	-8.79272E-004	10	..........a	-327.74
	1491	0.497333	-9.91634E-001	-6.42865E-004	0.00000E+000	-9.91000E-001	-7.79272E-004	10	..........a	-327.74
	1498	0.499667	-9.98559E-001	-6.34343E-004	0.00000E+000	-9.98000E-001	-8.29272E-004	10	..........a	-327.74
	1505	0.502	-9.95609E-001	-5.37342E-004	0.00000E+000	-9.95000E-001	-6.29272E-004	10	..........a	-327.74
	1512	0.504333	-9.88709E-001	-5.02502E-004	0.00000E+000	-9.88000E-001	-7.79272E-004	10	..........a	-327.74
	1519	0.506667	-9.81684E-001	-4.79191E-004	0.00000E+000	-9.81000E-001	-8.29272E-004	10	..........a	-327.74
	1526	0.509	-9.74734E-001	-4.64654E-004	0.00000E+000	-9.74000E-001	-7.79272E-004	10	..........a	-327.74
	1533	0.511333	-9.67684E-001	-4.50367E-004	0.00000E+000	-9.67000E-001	-8.29272E-004	10	..........a	-327.74
	1540	0.513667	-9.60684E-001	-4.41594E-004	0.00000E+000	-9.60000E-001	-8.79272E-004	10	..........a	-327.74
	1547	0.516	-9.53709E-001	-4.30566E-004	0.00000E+000	-9.53000E-001	-9.79272E-004	10	..........a	-327.74
	1554	0.518333	-9.46709E-001	-4.22796E-004	0.00000E+000	-9.46000E-001	-7.29272E-004	10	..........a	-327.74
	1561	0.520667	-9.39684E-001	-4.13271E-004	0.00000E+000	-9.39000E-001	-7.79272E-004	10	..........a	-327.74
	1568	0.523	-9.32759E-001	-4.03997E-004	0.00000E+000	-9.32000E-001	-7.79272E-004	10	..........a	-327.74
	1575	0.525333	-9.25684E-001	-4.00989E-004	0.00000E+000	-9.25000E-001	-6.79272E-004	10	..........a	-327.74
	1582	0.527667	-9.18709E-001	-3.94723E-004	0.00000E+000	-9.18000E-001	-7.29272E-004	10	..........a	-327.74
	1589	0.53	-9.11634E-001	-3.89961E-004	0.00000E+000	-9.11000E-001	-6.79272E-004	10	..........a	-327.74
	1596	0.532333	-9.04709E-001	-3.84948E-004	0.00000E+000	-9.04000E-001	-7.29272E-004	10	..........a	-327.74
	1603	0.534667	-8.97759E-001	-3.80937E-004	0.00000E+000	-8.97000E-001	-7.29272E-004	10	..........a	-327.74
	1610	0.537	-8.90684E-001	-3.74420E-004	0.00000E+000	-8.90000E-001	-8.29272E-004	10	..........a	-327.74
	1617	0.539333	-8.83609E-001	-3.69658E-004	0.00000E+000	-8.83000E-001	-8.79272E-004	10	..........a	-327.74
	1624	0.541667	-8.76709E-001	-3.65898E-004	0.00000E+000	-8.76000E-001	-8.29272E-004	10	..........a	-327.74
	1631	0.544	-8.69734E-001	-3.64645E-004	0.00000E+000	-8.69000E-001	-8.29272E-004	10	..........a	-327.74
	1638	0.546333	-8.62709E-001	-3.58128E-004	0.00000E+000	-8.62000E-001	-7.79272E-004	10	..........a	-327.74
	1645	0.548667	-8.55634E-001	-3.53115E-004	0.00000E+000	-8.55000E-001	-7.29272E-004	10	..........a	-327.74
	1652	0.551	-8.48659E-001	-3.48604E-004	0.00000E+000	-8.48000E-001	-7.79272E-004	10	..........a	-327.74
	1659	0.553333	-8.41609E-001	-3.47852E-004	0.00000E+000	-8.41000E-001	-8.29272E-004	10	..........a	-327.74
	1666	0.555667	-8.34709E-001	-3.43591E-004	0.00000E+000	-8.34000E-001	-8.79272E-004	10	..........a	-327.74
	1673	0.558	-8.27634E-001	-3.40833E-004	0.00000E+000	-8.27000E-001	-6.79272E-004	10	..........a	-327.74
	1680	0.560333	-8.20734E-001	-3.37826E-004	0.00000E+000	-8.20000E-001	-7.79272E-004	10	..........a	-327.74
	1687	0.562667	-8.13884E-001	-3.34317E-004	0.00000E+000	-8.13000E-001	-9.29272E-004	10	..........a	-327.74
	1694	0.565	-8.06759E-001	-3.29554E-004	0.00000E+000	-8.06000E-001	-8.29272E-004	10	..........a	-327.74
	1701	0.567333	-7.99809E-001	-3.29053E-004	0.00000E+000	-7.99000E-001	-7.79272E-004	10	..........a	-327.74
	1708	0.569667	-7.92834E-001	-3.24792E-004	0.00000E+000	-7.92000E-001	-7.29272E-004	10	..........a	-327.74
	1715	0.572	-7.85809E-001	-3.20782E-004	0.00000E+000	-7.85000E-001	-8.29272E-004	10	..........a	-327.74
	1722	0.574333	-7.78659E-001	-3.15267E-004	0.00000E+000	-7.78000E-001	-7.79272E-004	10	..........a	-327.74
	1729	0.576667	-7.71784E-001	-3.11508E-004	0.00000E+000	-7.71000E-001	-7.29272E-004	10	..........a	-327.74
	1736	0.579	-7.64809E-001	-3.08249E-004	0.00000E+000	-7.64000E-001	-8.29272E-004	10	..........a	-327.74
	1743	0.581333	-7.57759E-001	-3.04740E-004	0.00000E+000	-7.57000E-001	-7.29272E-004	10	..........a	-327.74
	1750	0.583667	-7.50784E-001	-3.02735E-004	0.00000E+000	-7.50000E-001	-9.79272E-004	10	..........a	-327.74
	1757	0.586	-7.43834E-001	-2.97722E-004	0.00000E+000	-7.43000E-001	-8.29272E-004	10	..........a	-327.74
	1764	0.588333	-7.36809E-001	-2.93712E-004	0.00000E+000	-7.36000E-001	-8.29272E-004	10	..........a	-327.74
	1771	0.590667	-7.29734E-001	-2.92208E-004	0.00000E+000	-7.29000E-001	-9.29272E-004	10	..........a	-327.74
	1778	0.593	-7.22759E-001	-2.85941E-004	0.00000E+000	-7.22000E-001	-7.29272E-004	10	..........a	-327.74
	1785	0.595333	-7.15859E-001	-2.81931E-004	0.00000E+000	-7.15000E-001	-7.79272E-004	10	..........a	-327.74
	1792	0.597667	-7.08759E-001	-2.77419E-004	0.00000E+000	-7.08000E-001	-5.79272E-004	10	..........a	-327.74
	1799	0.6	-7.01759E-001	-2.72406E-004	0.00000E+000	-7.01000E-001	-7.79272E-004	10	..........a	-327.74
	1806	0.602333	-6.94784E-001	-2.67644E-004	0.00000E+000	-6.94000E-001	-7.79272E-004	10	..........a	-327.74
	1813	0.604667	-6.87759E-001	-2.61127E-004	0.00000E+000	-6.87000E-001	-7.79272E-004	10	..........a	-327.74
	1820	0.607	-6.80859E-001	-2.55864E-004	0.00000E+000	-6.80000E-001	-7.79272E-004	10	..........a	-327.74
	1827	0.609333	-6.73759E-001	-2.47342E-004	0.00000E+000	-6.73000E-001	-9.29272E-004	10	..........a	-327.74
	1834	0.611667	-6.66809E-001	-2.39070E-004	0.00000E+000	-6.66000E-001	-8.79272E-004	10	..........a	-327.74
	1841	0.614	-6.59709E-001	-2.31551E-004	0.00000E+000	-6.59000E-001	-8.29272E-004	10	..........a	-327.74
	1848	0.616333	-6.52784E-001	-2.20272E-004	0.00000E+000	-6.52000E-001	-7.79272E-004	10	..........a	-327.74
	1855	0.618667	-6.45709E-001	-2.10496E-004	0.00000E+000	-6.45000E-001	-6.29272E-004	10	..........a	-327.74
	1862	0.621	-6.38834E-001	-1.98966E-004	0.00000E+000	-6.38000E-001	-8.29272E-004	10	..........a	-327.74
	1869	0.623333	-6.31859E-001	-1.82424E-004	0.00000E+000	-6.31000E-001	-7.79272E-004	10	..........a	-327.74
	1876	0.625667	-6.24834E-001	-1.66633E-004	0.00000E+000	-6.24000E-001	-7.79272E-004	10	..........a	-327.74
	1883	0.628	-6.17934E-001	-1.46832E-004	0.00000E+000	-6.17000E-001	-7.29272E-004	10	..........a	-327.74
	1890	0.630333	-6.10809E-001	-1.24023E-004	0.00000E+000	-6.10000E-001	-8.29272E-004	10	..........a	-327.74
	1897	0.632667	-6.03834E-001	-9.19395E-005	0.00000E+000	-6.03000E-001	-6.79272E-004	10	..........a	-327.74
	1904	0.635	-5.96984E-001	-5.68487E-005	0.00000E+000	-5.96000E-001	-8.29272E-004	10	..........a	-327.74
	1911	0.637333	-5.89859E-001	-1.57424E-005	0.00000E+000	-5.89000E-001	-5.29272E-004	10	..........a	-327.74
	1918	0.639667	-5.82934E-001	3.31341E-005	0.00000E+000	-5.82000E-001	-8.29272E-004	10	..........a	-327.74
	1925	0.642	-5.75959E-001	8.82768E-005	0.00000E+000	-5.75000E-001	-8.29272E-004	10	..........a	-327.74
	1932	0.644333	-5.68884E-001	1.49435E-004	0.00000E+000	-5.68000E-001	-7.29272E-004	10	..........a	-327.74
	1939	0.646667	-5.61909E-001	2.17110E-004	0.00000E+000	-5.61000E-001	-7.29272E-004	10	..........a	-327.74
	1946	0.649	-5.54884E-001	2.86790E-004	0.00000E+000	-5.54000E-001	-9.29272E-004	10	..........a	-327.74
	1953	0.651333	-5.47859E-001	3.57975E-004	0.00000E+000	-5.47000E-001	-7.29272E-004	10	..........a	-327.74
	1960	0.653667	-5.40859E-001	4.31665E-004	0.00000E+000	-5.40000E-001	-9.79272E-004	10	..........a	-327.74
	1967	0.656	-5.34034E-001	5.03351E-004	0.00000E+000	-5.33000E-001	-7.29272E-004	10	..........a	-327.74
	1974	0.658333	-5.26884E-001	5.73783E-004	0.00000E+000	-5.26000E-001	-8.29272E-004	10	..........a	-327.74
	1981	0.660667	-5.19959E-001	6.38200E-004	0.00000E+000	-5.19000E-001	-7.29272E-004	10	..........a	-327.74
	1988	0.663	-5.12934E-001	7.01864E-004	0.00000E+000	-5.12000E-001	-7.79272E-004	10	..........a	-327.74
	1995	0.665333	-5.05934E-001	7.56004E-004	0.00000E+000	-5.05000E-001	-8.29272E-004	10	..........a	-327.74
	2002	0.667667	-4.98784E-001	8.05132E-004	0.00000E+000	-4.98000E-001	-8.29272E-004	10	..........a	-327.74
	2009	0.67	-4.91909E-001	8.48744E-004	0.00000E+000	-4.91000E-001	-8.29272E-004	10	..........a	-327.74
	2016	0.672333	-4.85009E-001	8.84086E-004	0.00000E+000	-4.84000E-001	-8.79272E-004	10	..........a	-327.74
	2023	0.674667	-4.77909E-001	9.12910E-004	0.00000E+000	-4.77000E-001	-9.29272E-004	10	..........a	-327.74
	2030	0.677	-4.70859E-001	9.35218E-004	0.00000E+000	-4.70000E-001	-8.29272E-004	10	..........a	-327.74
	2037	0.679333	-4.63984E-001	9.44743E-004	0.00000E+000	-4.63000E-001	-8.29272E-004	10	..........a	-327.74
	2044	0.681667	-4.57034E-001	9.48502E-004	0.00000E+000	-4.56000E-001	-1.02927E-003	10	..........a	-327.74
	2051	0.684	-4.49884E-001	9.42988E-004	0.00000E+000	-4.49000E-001	-7.79272E-004	10	..........a	-327.74
	2058	0.686333	-4.42934E-001	9.34466E-004	0.00000E+000	-4.42000E-001	-7.29272E-004	10	..........a	-327.74
	2065	0.688667	-4.35984E-001	9.21934E-004	0.00000E+000	-4.35000E-001	-8.29272E-004	10	..........a	-327.74
	2072	0.691	-4.29009E-001	9.05391E-004	0.00000E+000	-4.28000E-001	-7.29272E-004	10	..........a	-327.74
	2079	0.693333	-4.22009E-001	8.86091E-004	0.00000E+000	-4.21000E-001	-7.29272E-004	10	..........a	-327.74
	2086	0.695667	-4.14834E-001	8.69047E-004	0.00000E+000	-4.14000E-001	-7.29272E-004	10	..........a	-327.74
	2093	0.698	-4.07959E-001	8.51251E-004	0.00000E+000	-4.07000E-001	-8.29272E-004	10	..........a	-327.74
	2100	0.700333	-4.00909E-001	8.29946E-004	0.00000E+000	-4.00000E-001	-8.79272E-004	10	..........a	-327.74
	2107	0.702667	-3.93884E-001	8.11899E-004	0.00000E+000	-3.93000E-001	-8.29272E-004	10	..........a	-327.74
	2114	0.705	-3.86934E-001	7.95356E-004	0.00000E+000	-3.86000E-001	-7.29272E-004	10	..........a	-327.74
	2121	0.707333	-3.79909E-001	7.80067E-004	0.00000E+000	-3.79000E-001	-7.79272E-004	10	..........a	-327.74
	2128	0.709667	-3.72884E-001	7.59263E-004	0.00000E+000	-3.72000E-001	-8.29272E-004	10	..........a	-327.74
	2135	0.712	-3.65859E-001	7.45227E-004	0.00000E+000	-3.65000E-001	-8.79272E-004	10	..........a	-327.74
	2142	0.714333	-3.58934E-001	7.29686E-004	0.00000E+000	-3.58000E-001	-8.29272E-004	10	..........a	-327.74
	2149	0.716667	-3.52009E-001	7.19410E-004	0.00000E+000	-3.51000E-001	-8.29272E-004	10	..........a	-327.74
	2156	0.719	-3.44859E-001	7.07379E-004	0.00000E+000	-3.44000E-001	-8.29272E-004	10	..........a	-327.74
	2163	0.721333	-3.37934E-001	6.93593E-004	0.00000E+000	-3.37000E-001	-8.79272E-004	10	..........a	-327.74
	2170	0.723667	-3.30884E-001	6.86073E-004	0.00000E+000	-3.30000E-001	-9.29272E-004	10	..........a	-327.74
	2177	0.726	-3.24009E-001	6.72538E-004	0.00000E+000	-3.23000E-001	-8.79272E-004	10	..........a	-327.74
	2184	0.728333	-3.16934E-001	6.63515E-004	0.00000E+000	-3.16000E-001	-7.79272E-004	10	..........a	-327.74
	2191	0.730667	-3.10059E-001	6.52236E-004	0.00000E+000	-3.09000E-001	-8.79272E-004	10	..........a	-327.74
	2198	0.733	-3.02959E-001	6.41959E-004	0.00000E+000	-3.02000E-001	-7.79272E-004	10	..........a	-327.74
	2205	0.735333	-2.95959E-001	6.35442E-004	0.00000E+000	-2.95000E-001	-8.29272E-004	10	..........a	-327.74
	2212	0.737667	-2.89059E-001	6.25166E-004	0.00000E+000	-2.88000E-001	-7.29272E-004	10	..........a	-327.74
	2219	0.74	-2.81959E-001	6.16143E-004	0.00000E+000	-2.81000E-001	-8.29272E-004	10	..........a	-327.74
	2226	0.742333	-2.74984E-001	6.06618E-004	0.00000E+000	-2.74000E-001	-8.29272E-004	10	..........a	-327.74
	2233	0.744667	-2.67934E-001	5.98848E-004	0.00000E+000	-2.67000E-001	-8.29272E-004	10	..........a	-327.74
	2240	0.747	-2.60909E-001	5.88822E-004	0.00000E+000	-2.60000E-001	-8.29272E-004	10	..........a	-327.74
	2247	0.749333	-2.54009E-001	5.79047E-004	0.00000E+000	-2.53000E-001	-8.29272E-004	10	..........a	-327.74
	2254	0.751667	-2.46984E-001	5.68269E-004	0.00000E+000	-2.46000E-001	-8.29272E-004	10	..........a	-327.74
	2261	0.754	-2.40109E-001	5.58995E-004	0.00000E+000	-2.39000E-001	-8.29272E-004	10	..........a	-327.74
	2268	0.756333	-2.33009E-001	5.49470E-004	0.00000E+000	-2.32000E-001	-8.29272E-004	10	..........a	-327.74
	2275	0.758667	-2.25984E-001	5.37439E-004	0.00000E+000	-2.25000E-001	-7.29272E-004	10	..........a	-327.74
	2282	0.761	-2.18934E-001	5.30922E-004	0.00000E+000	-2.18000E-001	-8.29272E-004	10	..........a	-327.74
	2289	0.763333	-2.12059E-001	5.17136E-004	0.00000E+000	-2.11000E-001	-9.29272E-004	10	..........a	-327.74
	2296	0.765667	-2.04909E-001	5.09116E-004	0.00000E+000	-2.04000E-001	-7.29272E-004	10	..........a	-327.74
	2303	0.768	-1.98009E-001	5.02348E-004	0.00000E+000	-1.97000E-001	-8.29272E-004	10	..........a	-327.74
	2310	0.770333	-1.90909E-001	4.91570E-004	0.00000E+000	-1.90000E-001	-8.29272E-004	10	..........a	-327.74
	2317	0.772667	-1.83984E-001	4.86808E-004	0.00000E+000	-1.83000E-001	-7.79272E-004	10	..........a	-327.74
	2324	0.775	-1.77109E-001	4.75027E-004	0.00000E+000	-1.76000E-001	-9.29272E-004	10	..........a	-327.74
	2331	0.777333	-1.69984E-001	4.65001E-004	0.00000E+000	-1.69000E-001	-8.29272E-004	10	..........a	-327.74
	2338	0.779667	-1.63159E-001	4.57231E-004	0.00000E+000	-1.62000E-001	-8.29272E-004	10	..........a	-327.74
	2345	0.782	-1.55984E-001	4.50464E-004	0.00000E+000	-1.55000E-001	-7.29272E-004	10	..........a	-327.74
	2352	0.784333	-1.49084E-001	4.42443E-004	0.00000E+000	-1.48000E-001	-8.29272E-004	10	..........a	-327.74
	2359	0.786667	-1.42034E-001	4.35926E-004	0.00000E+000	-1.41000E-001	-8.29272E-004	10	..........a	-327.74
	2366	0.789	-1.35084E-001	4.27404E-004	0.00000E+000	-1.34000E-001	-9.29272E-004	10	..........a	-327.74
	2373	0.791333	-1.28059E-001	4.23394E-004	0.00000E+000	-1.27000E-001	-8.29272E-004	10	..........a	-327.74
	2380	0.793667	-1.20959E-001	4.15373E-004	0.00000E+000	-1.20000E-001	-8.79272E-004	10	..........a	-327.74
	2387	0.796	-1.14034E-001	4.13619E-004	0.00000E+000	-1.13000E-001	-7.79272E-004	10	..........a	-327.74
	2394	0.798333	-1.07109E-001	4.05096E-004	0.00000E+000	-1.06000E-001	-8.79272E-004	10	..........a	-327.74
	2401	0.800667	-9.99840E-002	4.00835E-004	0.00000E+000	-9.90000E-002	-8.29272E-004	10	..........a	-327.74
	2408	0.803	-9.29340E-002	3.96574E-004	0.00000E+000	-9.20000E-002	-7.79272E-004	10	..........a	-327.74
	2415	0.805333	-8.60840E-002	3.91311E-004	0.00000E+000	-8.50000E-002	-8.79272E-004	10	..........a	-327.74
	2422	0.807667	-7.90590E-002	3.88804E-004	0.00000E+000	-7.80000E-002	-7.79272E-004	10	..........a	-327.74
	2429	0.81	-7.21090E-002	3.89306E-004	0.00000E+000	-7.10000E-002	-8.29272E-004	10	..........a	-327.74
	2436	0.812333	-6.51340E-002	3.86047E-004	0.00000E+000	-6.40000E-002	-7.79272E-004	10	..........a	-327.74
	2443	0.814667	-5.81090E-002	3.85546E-004	0.00000E+000	-5.70000E-002	-8.29272E-004	10	..........a	-327.74
	2450	0.817	-5.12090E-002	3.82789E-004	0.00000E+000	-5.00000E-002	-9.29272E-004	10	..........a	-327.74
	2457	0.819333	-4.40840E-002	3.81786E-004	0.00000E+000	-4.30000E-002	-7.29272E-004	10	..........a	-327.74
	2464	0.821667	-3.71840E-002	3.80282E-004	0.00000E+000	-3.60000E-002	-7.79272E-004	10	..........a	-327.74
	2471	0.824	-3.00590E-002	3.83290E-004	0.00000E+000	-2.90000E-002	-8.79272E-004	10	..........a	-327.74
	2478	0.826333	-2.30340E-002	3.81285E-004	0.00000E+000	-2.20000E-002	-8.79272E-004	10	..........a	-327.74
	2485	0.828667	-1.62340E-002	3.81285E-004	0.00000E+000	-1.50000E-002	-8.79272E-004	10	..........a	-327.74
	2492	0.831	-9.10900E-003	3.85546E-004	0.00000E+000	-8.00000E-003	-9.29272E-004	10	..........a	-327.74
	2499	0.833333	-2.00900E-003	3.90809E-004	0.00000E+000	-1.00000E-003	-8.29272E-004	10	..........a	-327.74
	2506	0.835667	4.84100E-003	3.92063E-004	0.00000E+000	5.99998E-003	-8.29272E-004	10	..........a	-327.74
	2513	0.838	1.19910E-002	3.94068E-004	0.00000E+000	1.30000E-002	-8.79272E-004	10	..........a	-327.74
	2520	0.840333	1.89660E-002	4.01086E-004	0.00000E+000	2.00000E-002	-9.29272E-004	10	..........a	-327.74
	2527	0.842667	2.58660E-002	4.00585E-004	0.00000E+000	2.70000E-002	-6.79272E-004	10	..........a	-327.74
	2534	0.845	3.29160E-002	4.08104E-004	0.00000E+000	3.40000E-002	-8.29272E-004	10	..........a	-327.74
	2541	0.847333	3.97160E-002	4.08104E-004	0.00000E+000	4.10000E-002	-8.29272E-004	10	..........a	-327.74
	2548	0.849667	4.68410E-002	4.12616E-004	0.00000E+000	4.80000E-002	-6.79272E-004	10	..........a	-327.74
	2555	0.852	5.39160E-002	4.19133E-004	0.00000E+000	5.50000E-002	-8.29272E-004	10	..........a	-327.74
	2562	0.854333	6.09160E-002	4.20135E-004	0.00000E+000	6.20000E-002	-8.29272E-004	10	..........a	-327.74
	2569	0.856667	6.79660E-002	4.26151E-004	0.00000E+000	6.90000E-002	-7.79272E-004	10	..........a	-327.74
	2576	0.859	7.48910E-002	4.27905E-004	0.00000E+000	7.60000E-002	-9.29272E-004	10	..........a	-327.74
	2583	0.861333	8.18660E-002	4.30412E-004	0.00000E+000	8.30000E-002	-8.29272E-004	10	..........a	-327.74
	2590	0.863667	8.89660E-002	4.34422E-004	0.00000E+000	9.00000E-002	-9.29272E-004	10	..........a	-327.74
	2597	0.866	9.57410E-002	4.32167E-004	0.00000E+000	9.70000E-002	-9.29272E-004	10	..........a	-327.74
	2604	0.868333	1.02841E-001	4.31916E-004	0.00000E+000	1.04000E-001	-8.29272E-004	10	..........a	-327.74
	2611	0.870667	1.09816E-001	4.31916E-004	0.00000E+000	1.11000E-001	-7.79272E-004	10	..........a	-327.74
	2618	0.873	1.16841E-001	4.29660E-004	0.00000E+000	1.18000E-001	-7.29272E-004	10	..........a	-327.74
	2625	0.875333	1.23891E-001	4.25650E-004	0.00000E+000	1.25000E-001	-7.29272E-004	10	..........a	-327.74
	2632	0.877667	1.30891E-001	4.22391E-004	0.00000E+000	1.32000E-001	-8.29272E-004	10	..........a	-327.74
	2639	0.88	1.37866E-001	4.12867E-004	0.00000E+000	1.39000E-001	-7.29272E-004	10	..........a	-327.74
	2646	0.882333	1.44941E-001	4.09357E-004	0.00000E+000	1.46000E-001	-9.29272E-004	10	..........a	-327.74
	2653	0.884667	1.51841E-001	4.03342E-004	0.00000E+000	1.53000E-001	-8.29272E-004	10	..........a	-327.74
	2660	0.887	1.58791E-001	3.94319E-004	0.00000E+000	1.60000E-001	-8.79272E-004	10	..........a	-327.74
	2667	0.889333	1.65966E-001	3.88303E-004	0.00000E+000	1.67000E-001	-7.79272E-004	10	..........a	-327.74
	2674	0.891667	1.72866E-001	3.79280E-004	0.00000E+000	1.74000E-001	-8.29272E-004	10	..........a	-327.74
	2681	0.894	1.79841E-001	3.73515E-004	0.00000E+000	1.81000E-001	-8.29272E-004	10	..........a	-327.74
	2688	0.896333	1.86916E-001	3.64742E-004	0.00000E+000	1.88000E-001	-8.29272E-004	10	..........a	-327.74
	2695	0.898667	1.93816E-001	3.55969E-004	0.00000E+000	1.95000E-001	-8.29272E-004	10	..........a	-327.74
	2702	0.901	2.00941E-001	3.51458E-004	0.00000E+000	2.02000E-001	-8.29272E-004	10	..........a	-327.74
	2709	0.903333	2.07766E-001	3.42685E-004	0.00000E+000	2.09000E-001	-7.79272E-004	10	..........a	-327.74
	2716	0.905667	2.14791E-001	3.36920E-004	0.00000E+000	2.16000E-001	-8.29272E-004	10	..........a	-327.74
	2723	0.908	2.21841E-001	3.28899E-004	0.00000E+000	2.23000E-001	-7.29272E-004	10	..........a	-327.74
	2730	0.910333	2.28766E-001	3.22633E-004	0.00000E+000	2.30000E-001	-8.79272E-004	10	..........a	-327.74
	2737	0.912667	2.35841E-001	3.17620E-004	0.00000E+000	2.37000E-001	-8.29272E-004	10	..........a	-327.74
	2744	0.915	2.42841E-001	3.12607E-004	0.00000E+000	2.44000E-001	-8.29272E-004	10	..........a	-327.74
	2751	0.917333	2.49891E-001	3.08096E-004	0.00000E+000	2.51000E-001	-8.29272E-004	10	..........a	-327.74
	2758	0.919667	2.56866E-001	3.02080E-004	0.00000E+000	2.58000E-001	-8.29272E-004	10	..........a	-327.74
	2765	0.922	2.63841E-001	3.01328E-004	0.00000E+000	2.65000E-001	-9.29272E-004	10	..........a	-327.74
	2772	0.924333	2.70841E-001	2.94059E-004	0.00000E+000	2.72000E-001	-8.29272E-004	10	..........a	-327.74
	2779	0.926667	2.77941E-001	2.87292E-004	0.00000E+000	2.79000E-001	-7.29272E-004	10	..........a	-327.74
	2786	0.929	2.84741E-001	2.83031E-004	0.00000E+000	2.86000E-001	-7.29272E-004	10	..........a	-327.74
	2793	0.931333	2.91891E-001	2.83031E-004	0.00000E+000	2.93000E-001	-8.29272E-004	10	..........a	-327.74
	2800	0.933667	2.98766E-001	2.80023E-004	0.00000E+000	3.00000E-001	-8.79272E-004	10	..........a	-327.74
	2807	0.936	3.05741E-001	2.75511E-004	0.00000E+000	3.07000E-001	-8.29272E-004	10	..........a	-327.74
	2814	0.938333	3.12841E-001	2.76514E-004	0.00000E+000	3.14000E-001	-8.29272E-004	10	..........a	-327.74
	2821	0.940667	3.19841E-001	2.69997E-004	0.00000E+000	3.21000E-001	-8.79272E-004	10	..........a	-327.74
	2828	0.943	3.26841E-001	2.68242E-004	0.00000E+000	3.28000E-001	-8.29272E-004	10	..........a	-327.74
	2835	0.945333	3.33866E-001	2.66738E-004	0.00000E+000	3.35000E-001	-8.79272E-004	10	..........a	-327.74
	2842	0.947667	3.40766E-001	2.62227E-004	0.00000E+000	3.42000E-001	-8.29272E-004	10	..........a	-327.74
	2849	0.95	3.47766E-001	2.63731E-004	0.00000E+000	3.49000E-001	-7.29272E-004	10	..........a	-327.74
	2856	0.95233	3.54741E-001	2.61475E-004	0.00000E+000	3.56000E-001	-8.29272E-004	10	..........a	-327.74
	2863	0.95467	3.61791E-001	2.57715E-004	0.00000E+000	3.63000E-001	-8.29272E-004	10	..........a	-327.74
	2870	0.957	3.68666E-001	2.59219E-004	0.00000E+000	3.70000E-001	-7.29272E-004	10	..........a	-327.74
	2877	0.95933	3.75641E-001	2.57214E-004	0.00000E+000	3.77000E-001	-8.29272E-004	10	..........a	-327.74
	2884	0.96167	3.82691E-001	2.56713E-004	0.00000E+000	3.84000E-001	-8.29272E-004	10	..........a	-327.74
	2891	0.964	3.89741E-001	2.54206E-004	0.00000E+000	3.91000E-001	-6.79272E-004	10	..........a	-327.74
	2898	0.96633	3.96816E-001	2.55459E-004	0.00000E+000	3.98000E-001	-8.79272E-004	10	..........a	-327.74
	2905	0.96867	4.03766E-001	2.51700E-004	0.00000E+000	4.05000E-001	-8.79272E-004	10	..........a	-327.74
	2912	0.971	4.10716E-001	2.55209E-004	0.00000E+000	4.12000E-001	-7.79272E-004	10	..........a	-327.74
	2919	0.97333	4.17766E-001	2.53705E-004	0.00000E+000	4.19000E-001	-8.29272E-004	10	..........a	-327.74
	2926	0.97567	4.24691E-001	2.52201E-004	0.00000E+000	4.26000E-001	-8.29272E-004	10	..........a	-327.74
	2933	0.978	4.31666E-001	2.52452E-004	0.00000E+000	4.33000E-001	-7.79272E-004	10	..........a	-327.74
	2940	0.98033	4.38691E-001	2.52702E-004	0.00000E+000	4.40000E-001	-9.79272E-004	10	..........a	-327.74
	2947	0.98267	4.45816E-001	2.51700E-004	0.00000E+000	4.47000E-001	-8.29272E-004	10	..........a	-327.74
	2954	0.985	4.52741E-001	2.50446E-004	0.00000E+000	4.54000E-001	-8.29272E-004	10	..........a	-327.74
	2961	0.98733	4.59816E-001	2.48191E-004	0.00000E+000	4.61000E-001	-8.29272E-004	10	..........a	-327.74
	2968	0.98967	4.66691E-001	2.46185E-004	0.00000E+000	4.68000E-001	-7.79272E-004	10	..........a	-327.74
	2975	0.992	4.73716E-001	2.43679E-004	0.00000E+000	4.75000E-001	-8.79272E-004	10	..........a	-327.74
	2982	0.99433	4.80816E-001	2.44431E-004	0.00000E+000	4.82000E-001	-8.29272E-004	10	..........a	-327.74
	2989	0.99667	4.87591E-001	2.43679E-004	0.00000E+000	4.89000E-001	-7.79272E-004	10	..........a	-327.74
	2996	0.999	4.94691E-001	2.39919E-004	0.00000E+000	4.96000E-001	-8.29272E-004	10	..........a	-327.74
	3000	1.00033	4.98716E-001	2.39418E-004	0.00000E+000	5.00000E-001	-8.29272E-004	10	..........a	-327.74
CURVE2	TABLE
	Pt	T	Vf	Im	Vu	Sig	Ach	IERange	Over	Temp
	#	s	V vs. Ref.	A	V	V	V	#	bits	deg C
	3001	1.00067	4.98766E-001	2.15857E-004	0.00000E+000	5.00000E-001	-8.29272E-004	10	..........a	-327.74