File: data/02-SI/Figures_S9_S11_RDE/14btmapaq-rde/1mkcl-5mmolar14btmapaq-nitrogen-400mvpers.DTA
EXPLAIN
TAG	CV
TITLE	LABEL	Cyclic Voltammetry	Test &Identifier
DATE	LABEL	1/31/2023	Date
TIME	LABEL	14:02:45	Time
NOTES	NOTES	1	&Notes...

PSTAT	PSTAT	REF3000-21108	Potentiostat
VINIT	POTEN	5.00000E-001	F	Initial &E (V)
VLIMIT1	POTEN	-1.00000E+000	F	Scan Limit &1 (V)
VLIMIT2	POTEN	5.00000E-001	F	Scan Limit &2 (V)
VFINAL	POTEN	5.00000E-001	F	Final &E (V)
SCANRATE	QUANT	3.99999E+002	&Scan Rate (mV/s)
STEPSIZE	QUANT	1.00000E+000	St&ep Size (mV)
CYCLES	IQUANT	1	C&ycles (#)
IMODE	SELECTOR	1	I/E Range &Mode
IRANGE	QUANT	1.00000E+001	&Max Current (mA)
AREA	QUANT	1.00000E+000	Electrode &Area (cm^2)
ELECTRODETYPE	SELECTOR	0	Electrode Type
STRIPPING	TOGGLE	F	Used for Stripping
POLARITY	TOGGLE	F	Signal Polarity
CONDIT	TWOPARAM	F	1.50000E+001	0.00000E+000	Conditionin&g	Time(s)	E(V)
DELAY	TWOPARAM	F	5.00000E+000	0.00000E+000	Init. De&lay	Time(s)	Stab.(mV/s)
EQDELAY	QUANT	0.00000E+000	Equil. &Time (s)
IRCOMP	SELECTOR	0	IRCom&p
PFCOR	QUANT	5.00000E+001	PF Corr. (ohm)
SAMPLINGMODE	SELECTOR	1	Sampling &Mode
EOC	QUANT	0	Open Circuit (V)
PSTATMODEL	IQUANT	5	Pstat Model
PSTATSECTION	LABEL	REF3000-21108	Pstat Section
PSTATSERIALNO	LABEL	21108	Pstat Serial Number
CTRLMODE	IQUANT	1	Control Mode
ELECTROMETER	IQUANT	0	RE=0 or CS=1
IESTAB	IQUANT	2	I/E Stability
CASPEED	IQUANT	4	Control Amp Speed
CONVENTION	IQUANT	1	Current Convention
ICHRANGE	IQUANT	2	Ich Range
ICHRANGEMODE	TOGGLE	F	Ich Auto Range
ICHOFFSETENABLE	TOGGLE	F	Ich Offset Enable
ICHOFFSET	QUANT	0	Ich Offset (V)
ICHFILTER	IQUANT	2	Ich Filter
VCHRANGE	IQUANT	2	Vch Range
VCHRANGEMODE	TOGGLE	F	Vch Auto Range
VCHOFFSETENABLE	TOGGLE	F	Vch Offset Enable
VCHOFFSET	QUANT	0	Vch Offset (V)
VCHFILTER	IQUANT	2	Vch Filter
ACHRANGE	IQUANT	2	Ach Range
ACHOFFSETENABLE	TOGGLE	F	Ach Offset Enable
ACHOFFSET	QUANT	0	Ach Offset (V)
ACHFILTER	IQUANT	0	Ach Filter
IERANGELOWERLIMIT	IQUANT	2	I/E Range Lower Limit
IERANGEMODE	TOGGLE	F	I/E AutoRange
IERANGE	IQUANT	10	I/E Range
POSFEEDENABLE	TOGGLE	F	Positive Feedback IR Comp
POSFEEDRESISTANCE	QUANT	0	Positive Feedback Resistance (ohm)
ACHSELECT	IQUANT	0	Ach Select
SENSECABLEID	IQUANT	14	Sense Cable ID
PWRCABLEID	IQUANT	7	Power Cable ID
DCCALDATE	LABEL	11/9/2022	DC Calibration Date
ACCALDATE	LABEL	11/9/2022	AC Calibration Date
THERMOSELECT	IQUANT	1	Thermo Select
FRAMEWORKVERSION	LABEL	7.8.2	Framework Version
INSTRUMENTVERSION	LABEL	4.40	Instrument Version
COMPLIANCEVOLTAGE	IQUANT	0	Compliance Voltage
CURVE1	TABLE
	Pt	T	Vf	Im	Vu	Sig	Ach	IERange	Over	Temp
	#	s	V vs. Ref.	A	V	V	V	#	bits	deg C
	0	0.0025	4.98788E-001	1.01183E-004	0.00000E+000	5.00000E-001	-8.22606E-004	10	..........a	-327.74
	7	0.02	4.91828E-001	8.09972E-005	0.00000E+000	4.93000E-001	-8.09272E-004	10	..........a	-327.74
	14	0.0375	4.84904E-001	6.94674E-005	0.00000E+000	4.86000E-001	-8.22606E-004	10	..........a	-327.74
	21	0.055	4.77928E-001	6.11124E-005	0.00000E+000	4.79000E-001	-7.82606E-004	10	..........a	-327.74
	28	0.0725	4.70824E-001	5.50300E-005	0.00000E+000	4.72000E-001	-8.29272E-004	10	..........a	-327.74
	35	0.09	4.63778E-001	5.03512E-005	0.00000E+000	4.65000E-001	-7.82606E-004	10	..........a	-327.74
	42	0.1075	4.56844E-001	4.69424E-005	0.00000E+000	4.58000E-001	-8.22606E-004	10	..........a	-327.74
	49	0.125	4.49861E-001	4.38678E-005	0.00000E+000	4.51000E-001	-8.09272E-004	10	..........a	-327.74
	56	0.1425	4.42841E-001	4.11274E-005	0.00000E+000	4.44000E-001	-7.55939E-004	10	..........a	-327.74
	63	0.16	4.35801E-001	3.88883E-005	0.00000E+000	4.37000E-001	-8.49272E-004	10	..........a	-327.74
	70	0.1775	4.28914E-001	3.65489E-005	0.00000E+000	4.30000E-001	-8.02606E-004	10	..........a	-327.74
	77	0.195	4.21851E-001	3.49781E-005	0.00000E+000	4.23000E-001	-8.42605E-004	10	..........a	-327.74
	84	0.2125	4.14824E-001	3.31735E-005	0.00000E+000	4.16000E-001	-8.22606E-004	10	..........a	-327.74
	91	0.23	4.07858E-001	3.19704E-005	0.00000E+000	4.09000E-001	-8.02606E-004	10	..........a	-327.74
	98	0.2475	4.00874E-001	3.11014E-005	0.00000E+000	4.02000E-001	-8.62605E-004	10	..........a	-327.74
	105	0.265	3.93878E-001	2.96978E-005	0.00000E+000	3.95000E-001	-8.09272E-004	10	..........a	-327.74
	112	0.2825	3.86831E-001	2.77595E-005	0.00000E+000	3.88000E-001	-8.15939E-004	10	..........a	-327.74
	119	0.3	3.79808E-001	2.67903E-005	0.00000E+000	3.81000E-001	-8.35939E-004	10	..........a	-327.74
	126	0.3175	3.73024E-001	2.62222E-005	0.00000E+000	3.74000E-001	-7.62605E-004	10	..........a	-327.74
	133	0.335	3.65891E-001	2.48185E-005	0.00000E+000	3.67000E-001	-8.22606E-004	10	..........a	-327.74
	140	0.3525	3.58844E-001	2.44509E-005	0.00000E+000	3.60000E-001	-8.09272E-004	10	..........a	-327.74
	147	0.37	3.51858E-001	2.31475E-005	0.00000E+000	3.53000E-001	-7.75939E-004	10	..........a	-327.74
	154	0.3875	3.44878E-001	2.23455E-005	0.00000E+000	3.46000E-001	-8.29272E-004	10	..........a	-327.74
	161	0.405	3.37864E-001	2.15434E-005	0.00000E+000	3.39000E-001	-8.15939E-004	10	..........a	-327.74
	168	0.4225	3.30894E-001	2.13763E-005	0.00000E+000	3.32000E-001	-8.29272E-004	10	..........a	-327.74
	175	0.44	3.23754E-001	2.03403E-005	0.00000E+000	3.25000E-001	-8.29272E-004	10	..........a	-327.74
	182	0.4575	3.16901E-001	2.02400E-005	0.00000E+000	3.18000E-001	-8.35939E-004	10	..........a	-327.74
	189	0.475	3.09924E-001	1.90369E-005	0.00000E+000	3.11000E-001	-8.15939E-004	10	..........a	-327.74
	196	0.4925	3.02904E-001	1.84353E-005	0.00000E+000	3.04000E-001	-8.15939E-004	10	..........a	-327.74
	203	0.51	2.96078E-001	1.77335E-005	0.00000E+000	2.97000E-001	-7.95939E-004	10	..........a	-327.74
	210	0.5275	2.88894E-001	1.70985E-005	0.00000E+000	2.90000E-001	-7.75939E-004	10	..........a	-327.74
	217	0.545	2.81898E-001	1.71320E-005	0.00000E+000	2.83000E-001	-8.42605E-004	10	..........a	-327.74
	224	0.5625	2.74958E-001	1.69649E-005	0.00000E+000	2.76000E-001	-8.15939E-004	10	..........a	-327.74
	231	0.58	2.67918E-001	1.63299E-005	0.00000E+000	2.69000E-001	-8.35939E-004	10	..........a	-327.74
	238	0.5975	2.60984E-001	1.55947E-005	0.00000E+000	2.62000E-001	-8.29272E-004	10	..........a	-327.74
	245	0.615	2.53934E-001	1.52270E-005	0.00000E+000	2.55000E-001	-8.69272E-004	10	..........a	-327.74
	252	0.6325	2.46898E-001	1.49597E-005	0.00000E+000	2.48000E-001	-8.62605E-004	10	..........a	-327.74
	259	0.65	2.39894E-001	1.43247E-005	0.00000E+000	2.41000E-001	-8.15939E-004	10	..........a	-327.74
	266	0.6675	2.32931E-001	1.41910E-005	0.00000E+000	2.34000E-001	-8.55939E-004	10	..........a	-327.74
	273	0.685	2.25904E-001	1.38234E-005	0.00000E+000	2.27000E-001	-8.09272E-004	10	..........a	-327.74
	280	0.7025	2.18894E-001	1.38234E-005	0.00000E+000	2.20000E-001	-8.42605E-004	10	..........a	-327.74
	287	0.72	2.11864E-001	1.31550E-005	0.00000E+000	2.13000E-001	-8.15939E-004	10	..........a	-327.74
	294	0.7375	2.05008E-001	1.30213E-005	0.00000E+000	2.06000E-001	-8.02606E-004	10	..........a	-327.74
	301	0.755	1.98004E-001	1.27874E-005	0.00000E+000	1.99000E-001	-7.82606E-004	10	..........a	-327.74
	308	0.7725	1.90904E-001	1.18516E-005	0.00000E+000	1.92000E-001	-8.35939E-004	10	..........a	-327.74
	315	0.79	1.83951E-001	1.16511E-005	0.00000E+000	1.85000E-001	-8.15939E-004	10	..........a	-327.74
	322	0.8075	1.76978E-001	1.11164E-005	0.00000E+000	1.78000E-001	-7.62605E-004	10	..........a	-327.74
	329	0.825	1.69984E-001	1.05148E-005	0.00000E+000	1.71000E-001	-8.22606E-004	10	..........a	-327.74
	336	0.8425	1.62931E-001	1.05483E-005	0.00000E+000	1.64000E-001	-8.22606E-004	10	..........a	-327.74
	343	0.86	1.55924E-001	1.03143E-005	0.00000E+000	1.57000E-001	-8.35939E-004	10	..........a	-327.74
	350	0.8775	1.49034E-001	1.01806E-005	0.00000E+000	1.50000E-001	-8.09272E-004	10	..........a	-327.74
	357	0.895	1.42021E-001	9.84645E-006	0.00000E+000	1.43000E-001	-8.22606E-004	10	..........a	-327.74
	364	0.9125	1.34968E-001	9.54567E-006	0.00000E+000	1.36000E-001	-8.15939E-004	10	..........a	-327.74
	371	0.93	1.28031E-001	9.31173E-006	0.00000E+000	1.29000E-001	-8.35939E-004	10	..........a	-327.74
	378	0.9475	1.20984E-001	8.94412E-006	0.00000E+000	1.22000E-001	-8.22606E-004	10	..........a	-327.74
	385	0.965	1.13984E-001	8.37598E-006	0.00000E+000	1.15000E-001	-8.22606E-004	10	..........a	-327.74
	392	0.9825	1.06984E-001	8.97754E-006	0.00000E+000	1.08000E-001	-8.09272E-004	10	..........a	-327.74
	399	1	1.00001E-001	8.00836E-006	0.00000E+000	1.01000E-001	-7.95939E-004	10	..........a	-327.74
	406	1.0175	9.30811E-002	8.00836E-006	0.00000E+000	9.40000E-002	-8.22606E-004	10	..........a	-327.74
	413	1.035	8.59844E-002	7.27313E-006	0.00000E+000	8.70000E-002	-7.82606E-004	10	..........a	-327.74
	420	1.0525	7.89977E-002	7.23971E-006	0.00000E+000	8.00000E-002	-8.02606E-004	10	..........a	-327.74
	427	1.07	7.20744E-002	6.70499E-006	0.00000E+000	7.30000E-002	-8.15939E-004	10	..........a	-327.74
	434	1.0875	6.50411E-002	6.57131E-006	0.00000E+000	6.60000E-002	-8.02606E-004	10	..........a	-327.74
	441	1.105	5.79711E-002	5.86949E-006	0.00000E+000	5.90000E-002	-8.15939E-004	10	..........a	-327.74
	448	1.1225	5.09877E-002	5.83607E-006	0.00000E+000	5.20000E-002	-8.09272E-004	10	..........a	-327.74
	455	1.14	4.40144E-002	5.80265E-006	0.00000E+000	4.50000E-002	-8.29272E-004	10	..........a	-327.74
	462	1.1575	3.70277E-002	5.43504E-006	0.00000E+000	3.80000E-002	-8.09272E-004	10	..........a	-327.74
	469	1.175	3.00144E-002	5.06742E-006	0.00000E+000	3.10000E-002	-8.29272E-004	10	..........a	-327.74
	476	1.1925	2.29311E-002	4.53270E-006	0.00000E+000	2.40000E-002	-8.29272E-004	10	..........a	-327.74
	483	1.21	1.60344E-002	4.73322E-006	0.00000E+000	1.70000E-002	-7.95939E-004	10	..........a	-327.74
	490	1.2275	9.03106E-003	3.63037E-006	0.00000E+000	9.99999E-003	-8.22606E-004	10	..........a	-327.74
	497	1.245	1.96106E-003	3.42985E-006	0.00000E+000	2.99999E-003	-8.35939E-004	10	..........a	-327.74
	504	1.2625	-5.01561E-003	3.26275E-006	0.00000E+000	-4.00001E-003	-7.89272E-004	10	..........a	-327.74
	511	1.28	-1.19489E-002	3.09565E-006	0.00000E+000	-1.10000E-002	-8.09272E-004	10	..........a	-327.74
	518	1.2975	-1.89556E-002	3.09565E-006	0.00000E+000	-1.80000E-002	-8.35939E-004	10	..........a	-327.74
	525	1.315	-2.59423E-002	2.59435E-006	0.00000E+000	-2.50000E-002	-8.02606E-004	10	..........a	-327.74
	532	1.3325	-3.29523E-002	2.15990E-006	0.00000E+000	-3.20000E-002	-8.49272E-004	10	..........a	-327.74
	539	1.35	-3.99689E-002	1.85912E-006	0.00000E+000	-3.90000E-002	-8.35939E-004	10	..........a	-327.74
	546	1.3675	-4.69423E-002	1.89254E-006	0.00000E+000	-4.60000E-002	-8.29272E-004	10	..........a	-327.74
	553	1.385	-5.39289E-002	1.55834E-006	0.00000E+000	-5.30000E-002	-8.29272E-004	10	..........a	-327.74
	560	1.4025	-6.08989E-002	1.32440E-006	0.00000E+000	-6.00000E-002	-8.49272E-004	10	..........a	-327.74
	567	1.42	-6.79623E-002	1.29098E-006	0.00000E+000	-6.70000E-002	-8.15939E-004	10	..........a	-327.74
	574	1.4375	-7.49423E-002	1.29098E-006	0.00000E+000	-7.40000E-002	-8.02606E-004	10	..........a	-327.74
	581	1.455	-8.19489E-002	1.19072E-006	0.00000E+000	-8.10000E-002	-8.35939E-004	10	..........a	-327.74
	588	1.4725	-8.88889E-002	4.55487E-007	0.00000E+000	-8.80000E-002	-8.42605E-004	10	..........a	-327.74
	595	1.49	-9.59423E-002	8.23105E-007	0.00000E+000	-9.50000E-002	-8.15939E-004	10	..........a	-327.74
	602	1.5075	-1.02879E-001	5.89166E-007	0.00000E+000	-1.02000E-001	-8.55939E-004	10	..........a	-327.74
	609	1.525	-1.09962E-001	1.88128E-007	0.00000E+000	-1.09000E-001	-8.42605E-004	10	..........a	-327.74
	616	1.5425	-1.16962E-001	4.22067E-007	0.00000E+000	-1.16000E-001	-8.49272E-004	10	..........a	-327.74
	623	1.56	-1.23916E-001	8.78689E-008	0.00000E+000	-1.23000E-001	-8.15939E-004	10	..........a	-327.74
	630	1.5775	-1.30926E-001	-1.79490E-007	0.00000E+000	-1.30000E-001	-8.42605E-004	10	..........a	-327.74
	637	1.595	-1.37932E-001	2.21548E-007	0.00000E+000	-1.37000E-001	-8.55939E-004	10	..........a	-327.74
	644	1.6125	-1.44962E-001	8.78689E-008	0.00000E+000	-1.44000E-001	-8.49272E-004	10	..........a	-327.74
	651	1.63	-1.51839E-001	-7.92302E-008	0.00000E+000	-1.51000E-001	-8.55939E-004	10	..........a	-327.74
	658	1.6475	-1.58882E-001	-4.80268E-007	0.00000E+000	-1.58000E-001	-8.02606E-004	10	..........a	-327.74
	665	1.665	-1.65912E-001	-8.81305E-007	0.00000E+000	-1.65000E-001	-8.09272E-004	10	..........a	-327.74
	672	1.6825	-1.72942E-001	-1.08182E-006	0.00000E+000	-1.72000E-001	-8.22606E-004	10	..........a	-327.74
	679	1.7	-1.79866E-001	-1.24892E-006	0.00000E+000	-1.79000E-001	-8.35939E-004	10	..........a	-327.74
	686	1.7175	-1.86919E-001	-1.04840E-006	0.00000E+000	-1.86000E-001	-8.09272E-004	10	..........a	-327.74
	693	1.735	-1.93916E-001	-1.51628E-006	0.00000E+000	-1.93000E-001	-8.62605E-004	10	..........a	-327.74
	700	1.7525	-2.00909E-001	-2.18468E-006	0.00000E+000	-2.00000E-001	-8.35939E-004	10	..........a	-327.74
	707	1.77	-2.07802E-001	-1.91732E-006	0.00000E+000	-2.07000E-001	-7.95939E-004	10	..........a	-327.74
	714	1.7875	-2.14879E-001	-2.35178E-006	0.00000E+000	-2.14000E-001	-8.29272E-004	10	..........a	-327.74
	721	1.805	-2.21912E-001	-2.98675E-006	0.00000E+000	-2.21000E-001	-7.95939E-004	10	..........a	-327.74
	728	1.8225	-2.28942E-001	-3.15385E-006	0.00000E+000	-2.28000E-001	-7.35939E-004	10	..........a	-327.74
	735	1.84	-2.35862E-001	-4.15645E-006	0.00000E+000	-2.35000E-001	-7.75939E-004	10	..........a	-327.74
	742	1.8575	-2.42902E-001	-4.55748E-006	0.00000E+000	-2.42000E-001	-7.75939E-004	10	..........a	-327.74
	749	1.875	-2.49922E-001	-5.15904E-006	0.00000E+000	-2.49000E-001	-7.49272E-004	10	..........a	-327.74
	756	1.8925	-2.56892E-001	-5.39298E-006	0.00000E+000	-2.56000E-001	-7.95939E-004	10	..........a	-327.74
	763	1.91	-2.63779E-001	-6.09479E-006	0.00000E+000	-2.63000E-001	-8.15939E-004	10	..........a	-327.74
	770	1.9275	-2.70866E-001	-6.22847E-006	0.00000E+000	-2.70000E-001	-7.82606E-004	10	..........a	-327.74
	777	1.945	-2.77916E-001	-6.86345E-006	0.00000E+000	-2.77000E-001	-7.75939E-004	10	..........a	-327.74
	784	1.9625	-2.84822E-001	-6.89687E-006	0.00000E+000	-2.84000E-001	-7.49272E-004	10	..........a	-327.74
	791	1.98	-2.91822E-001	-7.56526E-006	0.00000E+000	-2.91000E-001	-8.15939E-004	10	..........a	-327.74
	798	1.9975	-2.98906E-001	-8.66812E-006	0.00000E+000	-2.98000E-001	-8.09272E-004	10	..........a	-327.74
	805	2.015	-3.05899E-001	-9.30309E-006	0.00000E+000	-3.05000E-001	-8.02606E-004	10	..........a	-327.74
	812	2.0325	-3.12922E-001	-9.43677E-006	0.00000E+000	-3.12000E-001	-7.89272E-004	10	..........a	-327.74
	819	2.05	-3.19849E-001	-9.83781E-006	0.00000E+000	-3.19000E-001	-8.02606E-004	10	..........a	-327.74
	826	2.0675	-3.26856E-001	-1.01720E-005	0.00000E+000	-3.26000E-001	-7.89272E-004	10	..........a	-327.74
	833	2.085	-3.33919E-001	-1.12749E-005	0.00000E+000	-3.33000E-001	-8.29272E-004	10	..........a	-327.74
	840	2.1025	-3.40972E-001	-1.14085E-005	0.00000E+000	-3.40000E-001	-8.02606E-004	10	..........a	-327.74
	847	2.12	-3.47859E-001	-1.28122E-005	0.00000E+000	-3.47000E-001	-7.82606E-004	10	..........a	-327.74
	854	2.1375	-3.54876E-001	-1.37479E-005	0.00000E+000	-3.54000E-001	-7.75939E-004	10	..........a	-327.74
	861	2.155	-3.61812E-001	-1.47839E-005	0.00000E+000	-3.61000E-001	-7.89272E-004	10	..........a	-327.74
	868	2.1725	-3.68816E-001	-1.59202E-005	0.00000E+000	-3.68000E-001	-8.02606E-004	10	..........a	-327.74
	875	2.19	-3.75792E-001	-1.72570E-005	0.00000E+000	-3.75000E-001	-8.22606E-004	10	..........a	-327.74
	882	2.2075	-3.82812E-001	-1.90283E-005	0.00000E+000	-3.82000E-001	-7.62605E-004	10	..........a	-327.74
	889	2.225	-3.89859E-001	-2.13342E-005	0.00000E+000	-3.89000E-001	-7.89272E-004	10	..........a	-327.74
	896	2.2425	-3.96842E-001	-2.40746E-005	0.00000E+000	-3.96000E-001	-7.69272E-004	10	..........a	-327.74
	903	2.26	-4.03812E-001	-2.76840E-005	0.00000E+000	-4.03000E-001	-7.69272E-004	10	..........a	-327.74
	910	2.2775	-4.10842E-001	-3.21622E-005	0.00000E+000	-4.10000E-001	-7.89272E-004	10	..........a	-327.74
	917	2.295	-4.17892E-001	-3.84117E-005	0.00000E+000	-4.17000E-001	-7.29272E-004	10	..........a	-327.74
	924	2.3125	-4.24826E-001	-4.52628E-005	0.00000E+000	-4.24000E-001	-7.89272E-004	10	..........a	-327.74
	931	2.33	-4.31816E-001	-5.48209E-005	0.00000E+000	-4.31000E-001	-7.75939E-004	10	..........a	-327.74
	938	2.3475	-4.38792E-001	-6.55820E-005	0.00000E+000	-4.38000E-001	-8.15939E-004	10	..........a	-327.74
	945	2.365	-4.45806E-001	-7.90836E-005	0.00000E+000	-4.45000E-001	-8.02606E-004	10	..........a	-327.74
	952	2.3825	-4.52792E-001	-9.29863E-005	0.00000E+000	-4.52000E-001	-8.15939E-004	10	..........a	-327.74
	959	2.4	-4.59809E-001	-1.09362E-004	0.00000E+000	-4.59000E-001	-7.89272E-004	10	..........a	-327.74
	966	2.4175	-4.66812E-001	-1.27275E-004	0.00000E+000	-4.66000E-001	-7.55939E-004	10	..........a	-327.74
	973	2.435	-4.73856E-001	-1.46993E-004	0.00000E+000	-4.73000E-001	-8.09272E-004	10	..........a	-327.74
	980	2.4525	-4.80806E-001	-1.68181E-004	0.00000E+000	-4.80000E-001	-7.95939E-004	10	..........a	-327.74
	987	2.47	-4.87752E-001	-1.91408E-004	0.00000E+000	-4.87000E-001	-8.09272E-004	10	..........a	-327.74
	994	2.4875	-4.94809E-001	-2.16706E-004	0.00000E+000	-4.94000E-001	-7.95939E-004	10	..........a	-327.74
	1001	2.505	-5.01819E-001	-2.45113E-004	0.00000E+000	-5.01000E-001	-8.42605E-004	10	..........a	-327.74
	1008	2.5225	-5.08779E-001	-2.76060E-004	0.00000E+000	-5.08000E-001	-8.02606E-004	10	..........a	-327.74
	1015	2.54	-5.15826E-001	-3.10115E-004	0.00000E+000	-5.15000E-001	-7.75939E-004	10	..........a	-327.74
	1022	2.5575	-5.22789E-001	-3.47445E-004	0.00000E+000	-5.22000E-001	-8.62605E-004	10	..........a	-327.74
	1029	2.575	-5.29859E-001	-3.88484E-004	0.00000E+000	-5.29000E-001	-7.89272E-004	10	..........a	-327.74
	1036	2.5925	-5.36789E-001	-4.30794E-004	0.00000E+000	-5.36000E-001	-7.95939E-004	10	..........a	-327.74
	1043	2.61	-5.43732E-001	-4.73872E-004	0.00000E+000	-5.43000E-001	-8.09272E-004	10	..........a	-327.74
	1050	2.6275	-5.50786E-001	-5.14243E-004	0.00000E+000	-5.50000E-001	-7.49272E-004	10	..........a	-327.74
	1057	2.645	-5.57799E-001	-5.50336E-004	0.00000E+000	-5.57000E-001	-7.95939E-004	10	..........a	-327.74
	1064	2.6625	-5.64682E-001	-5.79579E-004	0.00000E+000	-5.64000E-001	-7.75939E-004	10	..........a	-327.74
	1071	2.68	-5.71726E-001	-5.99096E-004	0.00000E+000	-5.71000E-001	-7.75939E-004	10	..........a	-327.74
	1078	2.6975	-5.78776E-001	-6.05546E-004	0.00000E+000	-5.78000E-001	-7.69272E-004	10	..........a	-327.74
	1085	2.715	-5.85809E-001	-6.00232E-004	0.00000E+000	-5.85000E-001	-7.89272E-004	10	..........a	-327.74
	1092	2.7325	-5.92772E-001	-5.84993E-004	0.00000E+000	-5.92000E-001	-8.09272E-004	10	..........a	-327.74
	1099	2.75	-5.99732E-001	-5.62133E-004	0.00000E+000	-5.99000E-001	-8.02606E-004	10	..........a	-327.74
	1106	2.7675	-6.06759E-001	-5.35732E-004	0.00000E+000	-6.06000E-001	-7.75939E-004	10	..........a	-327.74
	1113	2.785	-6.13842E-001	-5.09430E-004	0.00000E+000	-6.13000E-001	-7.95939E-004	10	..........a	-327.74
	1120	2.8025	-6.20672E-001	-4.83931E-004	0.00000E+000	-6.20000E-001	-7.75939E-004	10	..........a	-327.74
	1127	2.82	-6.27722E-001	-4.61272E-004	0.00000E+000	-6.27000E-001	-7.95939E-004	10	..........a	-327.74
	1134	2.8375	-6.34752E-001	-4.40552E-004	0.00000E+000	-6.34000E-001	-7.62605E-004	10	..........a	-327.74
	1141	2.855	-6.41756E-001	-4.23040E-004	0.00000E+000	-6.41000E-001	-7.75939E-004	10	..........a	-327.74
	1148	2.8725	-6.48736E-001	-4.07734E-004	0.00000E+000	-6.48000E-001	-7.89272E-004	10	..........a	-327.74
	1155	2.89	-6.55706E-001	-3.93363E-004	0.00000E+000	-6.55000E-001	-8.29272E-004	10	..........a	-327.74
	1162	2.9075	-6.62766E-001	-3.81265E-004	0.00000E+000	-6.62000E-001	-7.95939E-004	10	..........a	-327.74
	1169	2.925	-6.69756E-001	-3.69836E-004	0.00000E+000	-6.69000E-001	-8.02606E-004	10	..........a	-327.74
	1176	2.9425	-6.76639E-001	-3.59075E-004	0.00000E+000	-6.76000E-001	-8.02606E-004	10	..........a	-327.74
	1183	2.96	-6.83732E-001	-3.49851E-004	0.00000E+000	-6.83000E-001	-7.49272E-004	10	..........a	-327.74
	1190	2.9775	-6.90742E-001	-3.40159E-004	0.00000E+000	-6.90000E-001	-7.82606E-004	10	..........a	-327.74
	1197	2.995	-6.97742E-001	-3.31303E-004	0.00000E+000	-6.97000E-001	-7.55939E-004	10	..........a	-327.74
	1204	3.0125	-7.04722E-001	-3.22714E-004	0.00000E+000	-7.04000E-001	-8.62605E-004	10	..........a	-327.74
	1211	3.03	-7.11692E-001	-3.14994E-004	0.00000E+000	-7.11000E-001	-7.75939E-004	10	..........a	-327.74
	1218	3.0475	-7.18726E-001	-3.07842E-004	0.00000E+000	-7.18000E-001	-7.55939E-004	10	..........a	-327.74
	1225	3.065	-7.25766E-001	-3.00623E-004	0.00000E+000	-7.25000E-001	-7.95939E-004	10	..........a	-327.74
	1232	3.0825	-7.32729E-001	-2.94040E-004	0.00000E+000	-7.32000E-001	-8.09272E-004	10	..........a	-327.74
	1239	3.1	-7.39666E-001	-2.87790E-004	0.00000E+000	-7.39000E-001	-8.09272E-004	10	..........a	-327.74
	1246	3.1175	-7.46696E-001	-2.81875E-004	0.00000E+000	-7.46000E-001	-8.02606E-004	10	..........a	-327.74
	1253	3.135	-7.53776E-001	-2.76494E-004	0.00000E+000	-7.53000E-001	-7.89272E-004	10	..........a	-327.74
	1260	3.1525	-7.60699E-001	-2.71014E-004	0.00000E+000	-7.60000E-001	-7.62605E-004	10	..........a	-327.74
	1267	3.17	-7.67709E-001	-2.66067E-004	0.00000E+000	-7.67000E-001	-8.29272E-004	10	..........a	-327.74
	1274	3.1875	-7.74722E-001	-2.61489E-004	0.00000E+000	-7.74000E-001	-7.82606E-004	10	..........a	-327.74
	1281	3.205	-7.81669E-001	-2.57311E-004	0.00000E+000	-7.81000E-001	-7.69272E-004	10	..........a	-327.74
	1288	3.2225	-7.88606E-001	-2.53301E-004	0.00000E+000	-7.88000E-001	-8.29272E-004	10	..........a	-327.74
	1295	3.24	-7.95652E-001	-2.48956E-004	0.00000E+000	-7.95000E-001	-8.02606E-004	10	..........a	-327.74
	1302	3.2575	-8.02729E-001	-2.44846E-004	0.00000E+000	-8.02000E-001	-7.95939E-004	10	..........a	-327.74
	1309	3.275	-8.09662E-001	-2.41771E-004	0.00000E+000	-8.09000E-001	-8.35939E-004	10	..........a	-327.74
	1316	3.2925	-8.16649E-001	-2.38396E-004	0.00000E+000	-8.16000E-001	-8.02606E-004	10	..........a	-327.74
	1323	3.31	-8.23586E-001	-2.34586E-004	0.00000E+000	-8.23000E-001	-8.42605E-004	10	..........a	-327.74
	1330	3.3275	-8.30559E-001	-2.31311E-004	0.00000E+000	-8.30000E-001	-7.49272E-004	10	..........a	-327.74
	1337	3.345	-8.37576E-001	-2.28203E-004	0.00000E+000	-8.37000E-001	-7.95939E-004	10	..........a	-327.74
	1344	3.3625	-8.44556E-001	-2.25329E-004	0.00000E+000	-8.44000E-001	-8.22606E-004	10	..........a	-327.74
	1351	3.38	-8.51572E-001	-2.22254E-004	0.00000E+000	-8.51000E-001	-7.62605E-004	10	..........a	-327.74
	1358	3.3975	-8.58656E-001	-2.19614E-004	0.00000E+000	-8.58000E-001	-7.62605E-004	10	..........a	-327.74
	1365	3.415	-8.65609E-001	-2.17442E-004	0.00000E+000	-8.65000E-001	-7.95939E-004	10	..........a	-327.74
	1372	3.4325	-8.72572E-001	-2.14267E-004	0.00000E+000	-8.72000E-001	-8.09272E-004	10	..........a	-327.74
	1379	3.45	-8.79582E-001	-2.11860E-004	0.00000E+000	-8.79000E-001	-8.22606E-004	10	..........a	-327.74
	1386	3.4675	-8.86619E-001	-2.09922E-004	0.00000E+000	-8.86000E-001	-8.09272E-004	10	..........a	-327.74
	1393	3.485	-8.93612E-001	-2.07416E-004	0.00000E+000	-8.93000E-001	-7.49272E-004	10	..........a	-327.74
	1400	3.5025	-9.00536E-001	-2.05711E-004	0.00000E+000	-9.00000E-001	-8.55939E-004	10	..........a	-327.74
	1407	3.52	-9.07589E-001	-2.03205E-004	0.00000E+000	-9.07000E-001	-7.82606E-004	10	..........a	-327.74
	1414	3.5375	-9.14606E-001	-2.01099E-004	0.00000E+000	-9.14000E-001	-8.02606E-004	10	..........a	-327.74
	1421	3.555	-9.21546E-001	-1.99529E-004	0.00000E+000	-9.21000E-001	-7.95939E-004	10	..........a	-327.74
	1428	3.5725	-9.28612E-001	-1.97791E-004	0.00000E+000	-9.28000E-001	-7.89272E-004	10	..........a	-327.74
	1435	3.59	-9.35569E-001	-1.95852E-004	0.00000E+000	-9.35000E-001	-7.89272E-004	10	..........a	-327.74
	1442	3.6075	-9.42602E-001	-1.93647E-004	0.00000E+000	-9.42000E-001	-8.02606E-004	10	..........a	-327.74
	1449	3.625	-9.49556E-001	-1.92377E-004	0.00000E+000	-9.49000E-001	-8.35939E-004	10	..........a	-327.74
	1456	3.6425	-9.56502E-001	-1.91073E-004	0.00000E+000	-9.56000E-001	-7.75939E-004	10	..........a	-327.74
	1463	3.66	-9.63602E-001	-1.89670E-004	0.00000E+000	-9.63000E-001	-7.82606E-004	10	..........a	-327.74
	1470	3.6775	-9.70656E-001	-1.87965E-004	0.00000E+000	-9.70000E-001	-8.09272E-004	10	..........a	-327.74
	1477	3.695	-9.77472E-001	-1.86395E-004	0.00000E+000	-9.77000E-001	-7.89272E-004	10	..........a	-327.74
	1484	3.7125	-9.84512E-001	-1.84891E-004	0.00000E+000	-9.84000E-001	-8.02606E-004	10	..........a	-327.74
	1491	3.73	-9.91586E-001	-1.84022E-004	0.00000E+000	-9.91000E-001	-7.89272E-004	10	..........a	-327.74
	1498	3.7475	-9.98549E-001	-1.82852E-004	0.00000E+000	-9.98000E-001	-7.95939E-004	10	..........a	-327.74
	1505	3.765	-9.95569E-001	-1.73528E-004	0.00000E+000	-9.95000E-001	-8.42605E-004	10	..........a	-327.74
	1512	3.7825	-9.88566E-001	-1.68348E-004	0.00000E+000	-9.88000E-001	-8.15939E-004	10	..........a	-327.74
	1519	3.8	-9.81576E-001	-1.64772E-004	0.00000E+000	-9.81000E-001	-8.35939E-004	10	..........a	-327.74
	1526	3.8175	-9.74626E-001	-1.61864E-004	0.00000E+000	-9.74000E-001	-8.55939E-004	10	..........a	-327.74
	1533	3.835	-9.67592E-001	-1.58990E-004	0.00000E+000	-9.67000E-001	-7.89272E-004	10	..........a	-327.74
	1540	3.8525	-9.60562E-001	-1.56785E-004	0.00000E+000	-9.60000E-001	-8.22606E-004	10	..........a	-327.74
	1547	3.87	-9.53529E-001	-1.54813E-004	0.00000E+000	-9.53000E-001	-7.62605E-004	10	..........a	-327.74
	1554	3.8875	-9.46629E-001	-1.53543E-004	0.00000E+000	-9.46000E-001	-7.89272E-004	10	..........a	-327.74
	1561	3.905	-9.39589E-001	-1.51772E-004	0.00000E+000	-9.39000E-001	-8.02606E-004	10	..........a	-327.74
	1568	3.9225	-9.32536E-001	-1.50335E-004	0.00000E+000	-9.32000E-001	-8.09272E-004	10	..........a	-327.74
	1575	3.94	-9.25592E-001	-1.48463E-004	0.00000E+000	-9.25000E-001	-7.82606E-004	10	..........a	-327.74
	1582	3.9575	-9.18649E-001	-1.47260E-004	0.00000E+000	-9.18000E-001	-7.62605E-004	10	..........a	-327.74
	1589	3.975	-9.11616E-001	-1.45923E-004	0.00000E+000	-9.11000E-001	-8.09272E-004	10	..........a	-327.74
	1596	3.9925	-9.04562E-001	-1.44453E-004	0.00000E+000	-9.04000E-001	-7.82606E-004	10	..........a	-327.74
	1603	4.01	-8.97496E-001	-1.43250E-004	0.00000E+000	-8.97000E-001	-7.95939E-004	10	..........a	-327.74
	1610	4.0275	-8.90622E-001	-1.41946E-004	0.00000E+000	-8.90000E-001	-8.15939E-004	10	..........a	-327.74
	1617	4.045	-8.83612E-001	-1.40877E-004	0.00000E+000	-8.83000E-001	-8.09272E-004	10	..........a	-327.74
	1624	4.0625	-8.76582E-001	-1.39774E-004	0.00000E+000	-8.76000E-001	-7.82606E-004	10	..........a	-327.74
	1631	4.08	-8.69646E-001	-1.38604E-004	0.00000E+000	-8.69000E-001	-7.82606E-004	10	..........a	-327.74
	1638	4.0975	-8.62619E-001	-1.37167E-004	0.00000E+000	-8.62000E-001	-7.89272E-004	10	..........a	-327.74
	1645	4.115	-8.55622E-001	-1.36332E-004	0.00000E+000	-8.55000E-001	-7.62605E-004	10	..........a	-327.74
	1652	4.1325	-8.48596E-001	-1.35329E-004	0.00000E+000	-8.48000E-001	-7.69272E-004	10	..........a	-327.74
	1659	4.15	-8.41639E-001	-1.33825E-004	0.00000E+000	-8.41000E-001	-7.75939E-004	10	..........a	-327.74
	1666	4.1675	-8.34639E-001	-1.33558E-004	0.00000E+000	-8.34000E-001	-7.75939E-004	10	..........a	-327.74
	1673	4.185	-8.27652E-001	-1.32890E-004	0.00000E+000	-8.27000E-001	-7.82606E-004	10	..........a	-327.74
	1680	4.2025	-8.20596E-001	-1.31820E-004	0.00000E+000	-8.20000E-001	-8.35939E-004	10	..........a	-327.74
	1687	4.22	-8.13689E-001	-1.30717E-004	0.00000E+000	-8.13000E-001	-8.22606E-004	10	..........a	-327.74
	1694	4.2375	-8.06702E-001	-1.29748E-004	0.00000E+000	-8.06000E-001	-8.22606E-004	10	..........a	-327.74
	1701	4.255	-7.99669E-001	-1.28278E-004	0.00000E+000	-7.99000E-001	-8.02606E-004	10	..........a	-327.74
	1708	4.2725	-7.92676E-001	-1.27308E-004	0.00000E+000	-7.92000E-001	-8.35939E-004	10	..........a	-327.74
	1715	4.29	-7.85689E-001	-1.26673E-004	0.00000E+000	-7.85000E-001	-7.89272E-004	10	..........a	-327.74
	1722	4.3075	-7.78686E-001	-1.25537E-004	0.00000E+000	-7.78000E-001	-8.15939E-004	10	..........a	-327.74
	1729	4.325	-7.71679E-001	-1.25069E-004	0.00000E+000	-7.71000E-001	-7.82606E-004	10	..........a	-327.74
	1736	4.3425	-7.64622E-001	-1.23900E-004	0.00000E+000	-7.64000E-001	-8.15939E-004	10	..........a	-327.74
	1743	4.36	-7.57726E-001	-1.22964E-004	0.00000E+000	-7.57000E-001	-7.82606E-004	10	..........a	-327.74
	1750	4.3775	-7.50746E-001	-1.21794E-004	0.00000E+000	-7.50000E-001	-8.29272E-004	10	..........a	-327.74
	1757	4.395	-7.43692E-001	-1.21293E-004	0.00000E+000	-7.43000E-001	-7.82606E-004	10	..........a	-327.74
	1764	4.4125	-7.36729E-001	-1.20257E-004	0.00000E+000	-7.36000E-001	-7.55939E-004	10	..........a	-327.74
	1771	4.43	-7.29686E-001	-1.19020E-004	0.00000E+000	-7.29000E-001	-8.02606E-004	10	..........a	-327.74
	1778	4.4475	-7.22712E-001	-1.18151E-004	0.00000E+000	-7.22000E-001	-7.62605E-004	10	..........a	-327.74
	1785	4.465	-7.15732E-001	-1.17450E-004	0.00000E+000	-7.15000E-001	-8.09272E-004	10	..........a	-327.74
	1792	4.4825	-7.08702E-001	-1.15912E-004	0.00000E+000	-7.08000E-001	-7.95939E-004	10	..........a	-327.74
	1799	4.5	-7.01852E-001	-1.14442E-004	0.00000E+000	-7.01000E-001	-8.29272E-004	10	..........a	-327.74
	1806	4.5175	-6.94762E-001	-1.13406E-004	0.00000E+000	-6.94000E-001	-7.95939E-004	10	..........a	-327.74
	1813	4.535	-6.87739E-001	-1.12637E-004	0.00000E+000	-6.87000E-001	-7.95939E-004	10	..........a	-327.74
	1820	4.5525	-6.80729E-001	-1.11233E-004	0.00000E+000	-6.80000E-001	-8.09272E-004	10	..........a	-327.74
	1827	4.57	-6.73739E-001	-1.09696E-004	0.00000E+000	-6.73000E-001	-7.89272E-004	10	..........a	-327.74
	1834	4.5875	-6.66736E-001	-1.08259E-004	0.00000E+000	-6.66000E-001	-7.55939E-004	10	..........a	-327.74
	1841	4.605	-6.59706E-001	-1.06588E-004	0.00000E+000	-6.59000E-001	-8.22606E-004	10	..........a	-327.74
	1848	4.6225	-6.52756E-001	-1.04249E-004	0.00000E+000	-6.52000E-001	-7.89272E-004	10	..........a	-327.74
	1855	4.64	-6.45732E-001	-1.02010E-004	0.00000E+000	-6.45000E-001	-7.62605E-004	10	..........a	-327.74
	1862	4.6575	-6.38746E-001	-9.92692E-005	0.00000E+000	-6.38000E-001	-7.95939E-004	10	..........a	-327.74
	1869	4.675	-6.31729E-001	-9.62948E-005	0.00000E+000	-6.31000E-001	-7.95939E-004	10	..........a	-327.74
	1876	4.6925	-6.24736E-001	-9.25184E-005	0.00000E+000	-6.24000E-001	-7.89272E-004	10	..........a	-327.74
	1883	4.71	-6.17709E-001	-8.79065E-005	0.00000E+000	-6.17000E-001	-7.89272E-004	10	..........a	-327.74
	1890	4.7275	-6.10806E-001	-8.11557E-005	0.00000E+000	-6.10000E-001	-8.62605E-004	10	..........a	-327.74
	1897	4.745	-6.03739E-001	-7.30347E-005	0.00000E+000	-6.03000E-001	-7.75939E-004	10	..........a	-327.74
	1904	4.7625	-5.96642E-001	-6.14380E-005	0.00000E+000	-5.96000E-001	-8.02606E-004	10	..........a	-327.74
	1911	4.78	-5.89756E-001	-4.65662E-005	0.00000E+000	-5.89000E-001	-7.69272E-004	10	..........a	-327.74
	1918	4.7975	-5.82839E-001	-2.69488E-005	0.00000E+000	-5.82000E-001	-7.69272E-004	10	..........a	-327.74
	1925	4.815	-5.75756E-001	-9.48145E-007	0.00000E+000	-5.75000E-001	-8.29272E-004	10	..........a	-327.74
	1932	4.8325	-5.68752E-001	2.98983E-005	0.00000E+000	-5.68000E-001	-8.69272E-004	10	..........a	-327.74
	1939	4.85	-5.61806E-001	6.55238E-005	0.00000E+000	-5.61000E-001	-8.29272E-004	10	..........a	-327.74
	1946	4.8675	-5.54802E-001	1.04625E-004	0.00000E+000	-5.54000E-001	-8.42605E-004	10	..........a	-327.74
	1953	4.885	-5.47702E-001	1.44963E-004	0.00000E+000	-5.47000E-001	-8.15939E-004	10	..........a	-327.74
	1960	4.9025	-5.40756E-001	1.84966E-004	0.00000E+000	-5.40000E-001	-8.15939E-004	10	..........a	-327.74
	1967	4.92	-5.33856E-001	2.22263E-004	0.00000E+000	-5.33000E-001	-7.69272E-004	10	..........a	-327.74
	1974	4.9375	-5.26826E-001	2.56217E-004	0.00000E+000	-5.26000E-001	-7.89272E-004	10	..........a	-327.74
	1981	4.955	-5.19669E-001	2.85359E-004	0.00000E+000	-5.19000E-001	-7.89272E-004	10	..........a	-327.74
	1988	4.9725	-5.12769E-001	3.09455E-004	0.00000E+000	-5.12000E-001	-8.02606E-004	10	..........a	-327.74
	1995	4.99	-5.05812E-001	3.28838E-004	0.00000E+000	-5.05000E-001	-8.29272E-004	10	..........a	-327.74
	2002	5.0075	-4.98872E-001	3.43443E-004	0.00000E+000	-4.98000E-001	-7.89272E-004	10	..........a	-327.74
	2009	5.025	-4.91756E-001	3.53135E-004	0.00000E+000	-4.91000E-001	-8.22606E-004	10	..........a	-327.74
	2016	5.0425	-4.84796E-001	3.58783E-004	0.00000E+000	-4.84000E-001	-8.09272E-004	10	..........a	-327.74
	2023	5.06	-4.77836E-001	3.60721E-004	0.00000E+000	-4.77000E-001	-8.29272E-004	10	..........a	-327.74
	2030	5.0775	-4.70819E-001	3.59819E-004	0.00000E+000	-4.70000E-001	-7.75939E-004	10	..........a	-327.74
	2037	5.095	-4.63766E-001	3.54137E-004	0.00000E+000	-4.63000E-001	-8.02606E-004	10	..........a	-327.74
	2044	5.1125	-4.56839E-001	3.46985E-004	0.00000E+000	-4.56000E-001	-8.09272E-004	10	..........a	-327.74
	2051	5.13	-4.49822E-001	3.38229E-004	0.00000E+000	-4.49000E-001	-8.09272E-004	10	..........a	-327.74
	2058	5.1475	-4.42846E-001	3.28237E-004	0.00000E+000	-4.42000E-001	-8.42605E-004	10	..........a	-327.74
	2065	5.165	-4.35829E-001	3.16841E-004	0.00000E+000	-4.35000E-001	-7.89272E-004	10	..........a	-327.74
	2072	5.1825	-4.28842E-001	3.05478E-004	0.00000E+000	-4.28000E-001	-7.89272E-004	10	..........a	-327.74
	2079	5.2	-4.21852E-001	2.95385E-004	0.00000E+000	-4.21000E-001	-8.62605E-004	10	..........a	-327.74
	2086	5.2175	-4.14832E-001	2.84223E-004	0.00000E+000	-4.14000E-001	-9.15939E-004	10	..........a	-327.74
	2093	5.235	-4.07772E-001	2.74197E-004	0.00000E+000	-4.07000E-001	-8.49272E-004	10	..........a	-327.74
	2100	5.2525	-4.00819E-001	2.65174E-004	0.00000E+000	-4.00000E-001	-8.29272E-004	10	..........a	-327.74
	2107	5.27	-3.93879E-001	2.55983E-004	0.00000E+000	-3.93000E-001	-8.69272E-004	10	..........a	-327.74
	2114	5.2875	-3.86849E-001	2.47662E-004	0.00000E+000	-3.86000E-001	-8.35939E-004	10	..........a	-327.74
	2121	5.305	-3.79819E-001	2.40276E-004	0.00000E+000	-3.79000E-001	-8.02606E-004	10	..........a	-327.74
	2128	5.3225	-3.72836E-001	2.32924E-004	0.00000E+000	-3.72000E-001	-8.42605E-004	10	..........a	-327.74
	2135	5.34	-3.65816E-001	2.26240E-004	0.00000E+000	-3.65000E-001	-8.42605E-004	10	..........a	-327.74
	2142	5.3575	-3.58822E-001	2.20224E-004	0.00000E+000	-3.58000E-001	-8.09272E-004	10	..........a	-327.74
	2149	5.375	-3.51826E-001	2.14676E-004	0.00000E+000	-3.51000E-001	-7.82606E-004	10	..........a	-327.74
	2156	5.3925	-3.44849E-001	2.08995E-004	0.00000E+000	-3.44000E-001	-8.29272E-004	10	..........a	-327.74
	2163	5.41	-3.37906E-001	2.03815E-004	0.00000E+000	-3.37000E-001	-8.42605E-004	10	..........a	-327.74
	2170	5.4275	-3.30906E-001	1.99136E-004	0.00000E+000	-3.30000E-001	-8.35939E-004	10	..........a	-327.74
	2177	5.445	-3.23859E-001	1.94858E-004	0.00000E+000	-3.23000E-001	-8.29272E-004	10	..........a	-327.74
	2184	5.4625	-3.16902E-001	1.91082E-004	0.00000E+000	-3.16000E-001	-8.22606E-004	10	..........a	-327.74
	2191	5.48	-3.09902E-001	1.86604E-004	0.00000E+000	-3.09000E-001	-8.09272E-004	10	..........a	-327.74
	2198	5.4975	-3.02892E-001	1.83095E-004	0.00000E+000	-3.02000E-001	-8.29272E-004	10	..........a	-327.74
	2205	5.515	-2.95866E-001	1.79285E-004	0.00000E+000	-2.95000E-001	-8.02606E-004	10	..........a	-327.74
	2212	5.5325	-2.88916E-001	1.75575E-004	0.00000E+000	-2.88000E-001	-7.95939E-004	10	..........a	-327.74
	2219	5.55	-2.81909E-001	1.72100E-004	0.00000E+000	-2.81000E-001	-8.55939E-004	10	..........a	-327.74
	2226	5.5675	-2.74906E-001	1.68256E-004	0.00000E+000	-2.74000E-001	-8.62605E-004	10	..........a	-327.74
	2233	5.585	-2.67769E-001	1.65382E-004	0.00000E+000	-2.67000E-001	-8.35939E-004	10	..........a	-327.74
	2240	5.6025	-2.60786E-001	1.62207E-004	0.00000E+000	-2.60000E-001	-8.42605E-004	10	..........a	-327.74
	2247	5.62	-2.53912E-001	1.59133E-004	0.00000E+000	-2.53000E-001	-8.35939E-004	10	..........a	-327.74
	2254	5.6375	-2.46896E-001	1.55757E-004	0.00000E+000	-2.46000E-001	-8.02606E-004	10	..........a	-327.74
	2261	5.655	-2.39789E-001	1.52883E-004	0.00000E+000	-2.39000E-001	-8.49272E-004	10	..........a	-327.74
	2268	5.6725	-2.32956E-001	1.50109E-004	0.00000E+000	-2.32000E-001	-8.02606E-004	10	..........a	-327.74
	2275	5.69	-2.25916E-001	1.46901E-004	0.00000E+000	-2.25000E-001	-8.42605E-004	10	..........a	-327.74
	2282	5.7075	-2.18912E-001	1.44428E-004	0.00000E+000	-2.18000E-001	-8.22606E-004	10	..........a	-327.74
	2289	5.725	-2.11899E-001	1.41119E-004	0.00000E+000	-2.11000E-001	-7.89272E-004	10	..........a	-327.74
	2296	5.7425	-2.04922E-001	1.38847E-004	0.00000E+000	-2.04000E-001	-8.09272E-004	10	..........a	-327.74
	2303	5.76	-1.97942E-001	1.35873E-004	0.00000E+000	-1.97000E-001	-8.22606E-004	10	..........a	-327.74
	2310	5.7775	-1.90882E-001	1.33399E-004	0.00000E+000	-1.90000E-001	-8.42605E-004	10	..........a	-327.74
	2317	5.795	-1.83812E-001	1.31060E-004	0.00000E+000	-1.83000E-001	-8.75939E-004	10	..........a	-327.74
	2324	5.8125	-1.76916E-001	1.28788E-004	0.00000E+000	-1.76000E-001	-8.09272E-004	10	..........a	-327.74
	2331	5.83	-1.69956E-001	1.26381E-004	0.00000E+000	-1.69000E-001	-7.82606E-004	10	..........a	-327.74
	2338	5.8475	-1.62919E-001	1.23641E-004	0.00000E+000	-1.62000E-001	-8.49272E-004	10	..........a	-327.74
	2345	5.865	-1.55949E-001	1.21669E-004	0.00000E+000	-1.55000E-001	-8.09272E-004	10	..........a	-327.74
	2352	5.8825	-1.48979E-001	1.19764E-004	0.00000E+000	-1.48000E-001	-8.35939E-004	10	..........a	-327.74
	2359	5.9	-1.41986E-001	1.18160E-004	0.00000E+000	-1.41000E-001	-8.09272E-004	10	..........a	-327.74
	2366	5.9175	-1.34886E-001	1.16255E-004	0.00000E+000	-1.34000E-001	-7.89272E-004	10	..........a	-327.74
	2373	5.935	-1.27862E-001	1.14150E-004	0.00000E+000	-1.27000E-001	-7.89272E-004	10	..........a	-327.74
	2380	5.9525	-1.20962E-001	1.12713E-004	0.00000E+000	-1.20000E-001	-7.82606E-004	10	..........a	-327.74
	2387	5.97	-1.13969E-001	1.11108E-004	0.00000E+000	-1.13000E-001	-8.82606E-004	10	..........a	-327.74
	2394	5.9875	-1.06929E-001	1.09705E-004	0.00000E+000	-1.06000E-001	-8.15939E-004	10	..........a	-327.74
	2401	6.005	-9.99689E-002	1.08301E-004	0.00000E+000	-9.90000E-002	-8.49272E-004	10	..........a	-327.74
	2408	6.0225	-9.29856E-002	1.06898E-004	0.00000E+000	-9.20000E-002	-7.49272E-004	10	..........a	-327.74
	2415	6.04	-8.59523E-002	1.06095E-004	0.00000E+000	-8.50000E-002	-7.82606E-004	10	..........a	-327.74
	2422	6.0575	-7.89423E-002	1.04859E-004	0.00000E+000	-7.80000E-002	-8.15939E-004	10	..........a	-327.74
	2429	6.075	-7.19723E-002	1.03890E-004	0.00000E+000	-7.10000E-002	-8.09272E-004	10	..........a	-327.74
	2436	6.0925	-6.49723E-002	1.03489E-004	0.00000E+000	-6.40000E-002	-8.55939E-004	10	..........a	-327.74
	2443	6.11	-5.79656E-002	1.02453E-004	0.00000E+000	-5.70000E-002	-8.15939E-004	10	..........a	-327.74
	2450	6.1275	-5.09656E-002	1.01918E-004	0.00000E+000	-5.00000E-002	-8.15939E-004	10	..........a	-327.74
	2457	6.145	-4.39823E-002	1.01684E-004	0.00000E+000	-4.30000E-002	-8.09272E-004	10	..........a	-327.74
	2464	6.1625	-3.70489E-002	1.00949E-004	0.00000E+000	-3.60000E-002	-8.02606E-004	10	..........a	-327.74
	2471	6.18	-2.99989E-002	1.00648E-004	0.00000E+000	-2.90000E-002	-8.15939E-004	10	..........a	-327.74
	2478	6.1975	-2.29856E-002	1.00080E-004	0.00000E+000	-2.20000E-002	-8.02606E-004	10	..........a	-327.74
	2485	6.215	-1.59723E-002	9.98460E-005	0.00000E+000	-1.50000E-002	-8.49272E-004	10	..........a	-327.74
	2492	6.2325	-9.11561E-003	9.99128E-005	0.00000E+000	-8.00000E-003	-8.15939E-004	10	..........a	-327.74
	2499	6.25	-1.97894E-003	9.95786E-005	0.00000E+000	-1.00000E-003	-8.22606E-004	10	..........a	-327.74
	2506	6.2675	5.02773E-003	9.95786E-005	0.00000E+000	5.99998E-003	-8.22606E-004	10	..........a	-327.74
	2513	6.285	1.20177E-002	9.91776E-005	0.00000E+000	1.30000E-002	-8.35939E-004	10	..........a	-327.74
	2520	6.3025	1.90111E-002	9.87431E-005	0.00000E+000	2.00000E-002	-8.35939E-004	10	..........a	-327.74
	2527	6.32	2.59477E-002	9.91442E-005	0.00000E+000	2.70000E-002	-7.95939E-004	10	..........a	-327.74
	2534	6.3375	3.30511E-002	9.85092E-005	0.00000E+000	3.40000E-002	-8.29272E-004	10	..........a	-327.74
	2541	6.355	4.01944E-002	9.82084E-005	0.00000E+000	4.10000E-002	-8.62605E-004	10	..........a	-327.74
	2548	6.3725	4.70311E-002	9.75066E-005	0.00000E+000	4.80000E-002	-8.15939E-004	10	..........a	-327.74
	2555	6.39	5.39777E-002	9.65708E-005	0.00000E+000	5.50000E-002	-8.22606E-004	10	..........a	-327.74
	2562	6.4075	6.10377E-002	9.60027E-005	0.00000E+000	6.20000E-002	-8.09272E-004	10	..........a	-327.74
	2569	6.425	6.80277E-002	9.54680E-005	0.00000E+000	6.90000E-002	-8.62605E-004	10	..........a	-327.74
	2576	6.4425	7.49844E-002	9.45322E-005	0.00000E+000	7.60000E-002	-8.62605E-004	10	..........a	-327.74
	2583	6.46	8.19511E-002	9.38638E-005	0.00000E+000	8.30000E-002	-8.15939E-004	10	..........a	-327.74
	2590	6.4775	8.90011E-002	9.27610E-005	0.00000E+000	9.00000E-002	-7.75939E-004	10	..........a	-327.74
	2597	6.495	9.59544E-002	9.11902E-005	0.00000E+000	9.70000E-002	-8.15939E-004	10	..........a	-327.74
	2604	6.5125	1.02984E-001	8.99871E-005	0.00000E+000	1.04000E-001	-8.22606E-004	10	..........a	-327.74
	2611	6.53	1.09974E-001	8.89845E-005	0.00000E+000	1.11000E-001	-7.95939E-004	10	..........a	-327.74
	2618	6.5475	1.17044E-001	8.80154E-005	0.00000E+000	1.18000E-001	-7.89272E-004	10	..........a	-327.74
	2625	6.565	1.23931E-001	8.64780E-005	0.00000E+000	1.25000E-001	-8.02606E-004	10	..........a	-327.74
	2632	6.5825	1.30971E-001	8.57762E-005	0.00000E+000	1.32000E-001	-7.75939E-004	10	..........a	-327.74
	2639	6.6	1.37944E-001	8.40050E-005	0.00000E+000	1.39000E-001	-8.09272E-004	10	..........a	-327.74
	2646	6.6175	1.45054E-001	8.27016E-005	0.00000E+000	1.46000E-001	-8.22606E-004	10	..........a	-327.74
	2653	6.635	1.52011E-001	8.17324E-005	0.00000E+000	1.53000E-001	-8.22606E-004	10	..........a	-327.74
	2660	6.6525	1.58964E-001	8.08969E-005	0.00000E+000	1.60000E-001	-7.95939E-004	10	..........a	-327.74
	2667	6.67	1.65991E-001	7.90923E-005	0.00000E+000	1.67000E-001	-8.35939E-004	10	..........a	-327.74
	2674	6.6875	1.73034E-001	7.81565E-005	0.00000E+000	1.74000E-001	-8.02606E-004	10	..........a	-327.74
	2681	6.705	1.79858E-001	7.70537E-005	0.00000E+000	1.81000E-001	-7.69272E-004	10	..........a	-327.74
	2688	6.7225	1.86901E-001	7.63853E-005	0.00000E+000	1.88000E-001	-8.09272E-004	10	..........a	-327.74
	2695	6.74	1.93941E-001	7.47477E-005	0.00000E+000	1.95000E-001	-8.55939E-004	10	..........a	-327.74
	2702	6.7575	2.00998E-001	7.42464E-005	0.00000E+000	2.02000E-001	-7.89272E-004	10	..........a	-327.74
	2709	6.775	2.07908E-001	7.31770E-005	0.00000E+000	2.09000E-001	-8.09272E-004	10	..........a	-327.74
	2716	6.7925	2.14901E-001	7.26423E-005	0.00000E+000	2.16000E-001	-7.89272E-004	10	..........a	-327.74
	2723	6.81	2.21908E-001	7.16062E-005	0.00000E+000	2.23000E-001	-8.15939E-004	10	..........a	-327.74
	2730	6.8275	2.29018E-001	7.11049E-005	0.00000E+000	2.30000E-001	-8.22606E-004	10	..........a	-327.74
	2737	6.845	2.35858E-001	7.05702E-005	0.00000E+000	2.37000E-001	-8.22606E-004	10	..........a	-327.74
	2744	6.8625	2.42881E-001	7.01692E-005	0.00000E+000	2.44000E-001	-8.62605E-004	10	..........a	-327.74
	2751	6.88	2.49878E-001	6.88992E-005	0.00000E+000	2.51000E-001	-8.22606E-004	10	..........a	-327.74
	2758	6.8975	2.56874E-001	6.84982E-005	0.00000E+000	2.58000E-001	-8.15939E-004	10	..........a	-327.74
	2765	6.915	2.63874E-001	6.80303E-005	0.00000E+000	2.65000E-001	-8.29272E-004	10	..........a	-327.74
	2772	6.9325	2.70848E-001	6.76293E-005	0.00000E+000	2.72000E-001	-8.29272E-004	10	..........a	-327.74
	2779	6.95	2.77948E-001	6.71948E-005	0.00000E+000	2.79000E-001	-8.09272E-004	10	..........a	-327.74
	2786	6.9675	2.84971E-001	6.60920E-005	0.00000E+000	2.86000E-001	-8.35939E-004	10	..........a	-327.74
	2793	6.985	2.91871E-001	6.62256E-005	0.00000E+000	2.93000E-001	-8.15939E-004	10	..........a	-327.74
	2800	7.0025	2.98911E-001	6.57912E-005	0.00000E+000	3.00000E-001	-8.02606E-004	10	..........a	-327.74
	2807	7.02	3.05868E-001	6.53233E-005	0.00000E+000	3.07000E-001	-8.15939E-004	10	..........a	-327.74
	2814	7.0375	3.12894E-001	6.50894E-005	0.00000E+000	3.14000E-001	-8.15939E-004	10	..........a	-327.74
	2821	7.055	3.19874E-001	6.47218E-005	0.00000E+000	3.21000E-001	-8.49272E-004	10	..........a	-327.74
	2828	7.0725	3.26908E-001	6.48220E-005	0.00000E+000	3.28000E-001	-8.49272E-004	10	..........a	-327.74
	2835	7.09	3.33924E-001	6.45547E-005	0.00000E+000	3.35000E-001	-7.95939E-004	10	..........a	-327.74
	2842	7.1075	3.40918E-001	6.40534E-005	0.00000E+000	3.42000E-001	-8.15939E-004	10	..........a	-327.74
	2849	7.125	3.47841E-001	6.35521E-005	0.00000E+000	3.49000E-001	-8.62605E-004	10	..........a	-327.74
	2856	7.1425	3.54861E-001	6.33181E-005	0.00000E+000	3.56000E-001	-8.35939E-004	10	..........a	-327.74
	2863	7.16	3.61851E-001	6.34852E-005	0.00000E+000	3.63000E-001	-8.69272E-004	10	..........a	-327.74
	2870	7.1775	3.68844E-001	6.30508E-005	0.00000E+000	3.70000E-001	-8.49272E-004	10	..........a	-327.74
	2877	7.195	3.75801E-001	6.24158E-005	0.00000E+000	3.77000E-001	-7.95939E-004	10	..........a	-327.74
	2884	7.2125	3.82844E-001	6.21819E-005	0.00000E+000	3.84000E-001	-8.29272E-004	10	..........a	-327.74
	2891	7.23	3.89871E-001	6.20148E-005	0.00000E+000	3.91000E-001	-8.29272E-004	10	..........a	-327.74
	2898	7.2475	3.96914E-001	6.17808E-005	0.00000E+000	3.98000E-001	-8.29272E-004	10	..........a	-327.74
	2905	7.265	4.03741E-001	6.15135E-005	0.00000E+000	4.05000E-001	-8.15939E-004	10	..........a	-327.74
	2912	7.2825	4.10841E-001	6.09787E-005	0.00000E+000	4.12000E-001	-8.49272E-004	10	..........a	-327.74
	2919	7.3	4.17861E-001	6.04106E-005	0.00000E+000	4.19000E-001	-8.09272E-004	10	..........a	-327.74
	2926	7.3175	4.24758E-001	6.05109E-005	0.00000E+000	4.26000E-001	-8.02606E-004	10	..........a	-327.74
	2933	7.335	4.31728E-001	5.98425E-005	0.00000E+000	4.33000E-001	-8.22606E-004	10	..........a	-327.74
	2940	7.3525	4.38798E-001	5.97756E-005	0.00000E+000	4.40000E-001	-8.75939E-004	10	..........a	-327.74
	2947	7.37	4.45828E-001	5.91407E-005	0.00000E+000	4.47000E-001	-8.42605E-004	10	..........a	-327.74
	2954	7.3875	4.52871E-001	5.84388E-005	0.00000E+000	4.54000E-001	-8.35939E-004	10	..........a	-327.74
	2961	7.405	4.59818E-001	5.82717E-005	0.00000E+000	4.61000E-001	-8.35939E-004	10	..........a	-327.74
	2968	7.4225	4.66848E-001	5.75031E-005	0.00000E+000	4.68000E-001	-7.95939E-004	10	..........a	-327.74
	2975	7.44	4.73831E-001	5.72357E-005	0.00000E+000	4.75000E-001	-7.82606E-004	10	..........a	-327.74
	2982	7.4575	4.80841E-001	5.71689E-005	0.00000E+000	4.82000E-001	-8.29272E-004	10	..........a	-327.74
	2989	7.475	4.87841E-001	5.72357E-005	0.00000E+000	4.89000E-001	-8.42605E-004	10	..........a	-327.74
	2996	7.4925	4.94808E-001	5.68013E-005	0.00000E+000	4.96000E-001	-7.95939E-004	10	..........a	-327.74
	3000	7.5025	4.98811E-001	5.65339E-005	0.00000E+000	5.00000E-001	-7.89272E-004	10	..........a	-327.74
CURVE2	TABLE
	Pt	T	Vf	Im	Vu	Sig	Ach	IERange	Over	Temp
	#	s	V vs. Ref.	A	V	V	V	#	bits	deg C
	3001	7.505	4.98824E-001	5.54645E-005	0.00000E+000	5.00000E-001	-8.22606E-004	10	..........a	-327.74