File: data/02-SI/Figures_S9_S11_RDE/14btmapaq-rde/1mkcl-5mmolar14btmapaq-nitrogen-100mvpers.DTA
EXPLAIN
TAG	CV
TITLE	LABEL	Cyclic Voltammetry	Test &Identifier
DATE	LABEL	1/31/2023	Date
TIME	LABEL	14:01:09	Time
NOTES	NOTES	1	&Notes...

PSTAT	PSTAT	REF3000-21108	Potentiostat
VINIT	POTEN	5.00000E-001	F	Initial &E (V)
VLIMIT1	POTEN	-1.00000E+000	F	Scan Limit &1 (V)
VLIMIT2	POTEN	5.00000E-001	F	Scan Limit &2 (V)
VFINAL	POTEN	5.00000E-001	F	Final &E (V)
SCANRATE	QUANT	9.99998E+001	&Scan Rate (mV/s)
STEPSIZE	QUANT	1.00000E+000	St&ep Size (mV)
CYCLES	IQUANT	1	C&ycles (#)
IMODE	SELECTOR	1	I/E Range &Mode
IRANGE	QUANT	1.00000E+001	&Max Current (mA)
AREA	QUANT	1.00000E+000	Electrode &Area (cm^2)
ELECTRODETYPE	SELECTOR	0	Electrode Type
STRIPPING	TOGGLE	F	Used for Stripping
POLARITY	TOGGLE	F	Signal Polarity
CONDIT	TWOPARAM	F	1.50000E+001	0.00000E+000	Conditionin&g	Time(s)	E(V)
DELAY	TWOPARAM	F	5.00000E+000	0.00000E+000	Init. De&lay	Time(s)	Stab.(mV/s)
EQDELAY	QUANT	0.00000E+000	Equil. &Time (s)
IRCOMP	SELECTOR	0	IRCom&p
PFCOR	QUANT	5.00000E+001	PF Corr. (ohm)
SAMPLINGMODE	SELECTOR	1	Sampling &Mode
EOC	QUANT	0	Open Circuit (V)
PSTATMODEL	IQUANT	5	Pstat Model
PSTATSECTION	LABEL	REF3000-21108	Pstat Section
PSTATSERIALNO	LABEL	21108	Pstat Serial Number
CTRLMODE	IQUANT	1	Control Mode
ELECTROMETER	IQUANT	0	RE=0 or CS=1
IESTAB	IQUANT	2	I/E Stability
CASPEED	IQUANT	4	Control Amp Speed
CONVENTION	IQUANT	1	Current Convention
ICHRANGE	IQUANT	2	Ich Range
ICHRANGEMODE	TOGGLE	F	Ich Auto Range
ICHOFFSETENABLE	TOGGLE	F	Ich Offset Enable
ICHOFFSET	QUANT	0	Ich Offset (V)
ICHFILTER	IQUANT	2	Ich Filter
VCHRANGE	IQUANT	2	Vch Range
VCHRANGEMODE	TOGGLE	F	Vch Auto Range
VCHOFFSETENABLE	TOGGLE	F	Vch Offset Enable
VCHOFFSET	QUANT	0	Vch Offset (V)
VCHFILTER	IQUANT	2	Vch Filter
ACHRANGE	IQUANT	2	Ach Range
ACHOFFSETENABLE	TOGGLE	F	Ach Offset Enable
ACHOFFSET	QUANT	0	Ach Offset (V)
ACHFILTER	IQUANT	0	Ach Filter
IERANGELOWERLIMIT	IQUANT	2	I/E Range Lower Limit
IERANGEMODE	TOGGLE	F	I/E AutoRange
IERANGE	IQUANT	10	I/E Range
POSFEEDENABLE	TOGGLE	F	Positive Feedback IR Comp
POSFEEDRESISTANCE	QUANT	0	Positive Feedback Resistance (ohm)
ACHSELECT	IQUANT	0	Ach Select
SENSECABLEID	IQUANT	14	Sense Cable ID
PWRCABLEID	IQUANT	7	Power Cable ID
DCCALDATE	LABEL	11/9/2022	DC Calibration Date
ACCALDATE	LABEL	11/9/2022	AC Calibration Date
THERMOSELECT	IQUANT	1	Thermo Select
FRAMEWORKVERSION	LABEL	7.8.2	Framework Version
INSTRUMENTVERSION	LABEL	4.40	Instrument Version
COMPLIANCEVOLTAGE	IQUANT	0	Compliance Voltage
CURVE1	TABLE
	Pt	T	Vf	Im	Vu	Sig	Ach	IERange	Over	Temp
	#	s	V vs. Ref.	A	V	V	V	#	bits	deg C
	0	0.01	4.98820E-001	2.13930E-005	0.00000E+000	5.00000E-001	-1.09927E-003	10	..........a	-327.74
	7	0.08	4.91834E-001	1.00637E-005	0.00000E+000	4.93000E-001	-1.05927E-003	10	..........a	-327.74
	14	0.15	4.84839E-001	5.40162E-006	0.00000E+000	4.86000E-001	-1.09761E-003	10	..........a	-327.74
	21	0.22	4.77922E-001	2.21003E-006	0.00000E+000	4.79000E-001	-1.08761E-003	10	..........a	-327.74
	28	0.29	4.70873E-001	2.14319E-006	0.00000E+000	4.72000E-001	-1.10427E-003	10	..........a	-327.74
	35	0.36	4.63839E-001	1.96773E-006	0.00000E+000	4.65000E-001	-1.06927E-003	10	..........a	-327.74
	42	0.43	4.56872E-001	1.75886E-006	0.00000E+000	4.58000E-001	-1.09094E-003	10	..........a	-327.74
	49	0.5	4.49836E-001	1.49986E-006	0.00000E+000	4.51000E-001	-1.07927E-003	10	..........a	-327.74
	56	0.57	4.42852E-001	1.03198E-006	0.00000E+000	4.44000E-001	-1.09761E-003	10	..........a	-327.74
	63	0.64	4.35801E-001	7.31200E-007	0.00000E+000	4.37000E-001	-1.11094E-003	10	..........a	-327.74
	70	0.71	4.28796E-001	5.72456E-007	0.00000E+000	4.30000E-001	-1.11594E-003	10	..........a	-327.74
	77	0.78	4.21878E-001	4.72197E-007	0.00000E+000	4.23000E-001	-1.09427E-003	10	..........a	-327.74
	84	0.85	4.14854E-001	-1.12650E-007	0.00000E+000	4.16000E-001	-1.10927E-003	10	..........a	-327.74
	91	0.92	4.07831E-001	-1.54425E-007	0.00000E+000	4.09000E-001	-1.11261E-003	10	..........a	-327.74
	98	0.99	4.00681E-001	-4.71913E-007	0.00000E+000	4.02000E-001	-1.12594E-003	10	..........a	-327.74
	105	1.06	3.93859E-001	-4.46848E-007	0.00000E+000	3.95000E-001	-1.09927E-003	10	..........a	-327.74
	112	1.13	3.86859E-001	-7.55981E-007	0.00000E+000	3.88000E-001	-1.09927E-003	10	..........a	-327.74
	119	1.2	3.79840E-001	-1.95074E-006	0.00000E+000	3.81000E-001	-1.10594E-003	10	..........a	-327.74
	126	1.27	3.72814E-001	-1.99251E-006	0.00000E+000	3.74000E-001	-1.10927E-003	10	..........a	-327.74
	133	1.34	3.65879E-001	-1.31576E-006	0.00000E+000	3.67000E-001	-1.12761E-003	10	..........a	-327.74
	140	1.41	3.58870E-001	-2.01758E-006	0.00000E+000	3.60000E-001	-1.10761E-003	10	..........a	-327.74
	147	1.48	3.51808E-001	-2.09277E-006	0.00000E+000	3.53000E-001	-1.08927E-003	10	..........a	-327.74
	154	1.55	3.44878E-001	-2.53559E-006	0.00000E+000	3.46000E-001	-1.10261E-003	10	..........a	-327.74
	161	1.62	3.37876E-001	-1.84212E-006	0.00000E+000	3.39000E-001	-1.06761E-003	10	..........a	-327.74
	168	1.69	3.30895E-001	-2.61078E-006	0.00000E+000	3.32000E-001	-1.11094E-003	10	..........a	-327.74
	175	1.76	3.23779E-001	-2.29329E-006	0.00000E+000	3.25000E-001	-1.10761E-003	10	..........a	-327.74
	182	1.83	3.16877E-001	-2.31000E-006	0.00000E+000	3.18000E-001	-1.08427E-003	10	..........a	-327.74
	189	1.9	3.09917E-001	-3.22905E-006	0.00000E+000	3.11000E-001	-1.06761E-003	10	..........a	-327.74
	196	1.97	3.02916E-001	-2.87814E-006	0.00000E+000	3.04000E-001	-1.10427E-003	10	..........a	-327.74
	203	2.04	2.95873E-001	-3.33766E-006	0.00000E+000	2.97000E-001	-1.09594E-003	10	..........a	-327.74
	210	2.11	2.88893E-001	-2.73610E-006	0.00000E+000	2.90000E-001	-1.10427E-003	10	..........a	-327.74
	217	2.18	2.81900E-001	-2.84472E-006	0.00000E+000	2.83000E-001	-1.10094E-003	10	..........a	-327.74
	224	2.25	2.74907E-001	-2.79459E-006	0.00000E+000	2.76000E-001	-1.10261E-003	10	..........a	-327.74
	231	2.32	2.67854E-001	-3.06195E-006	0.00000E+000	2.69000E-001	-1.09927E-003	10	..........a	-327.74
	238	2.39	2.60896E-001	-3.45463E-006	0.00000E+000	2.62000E-001	-1.09927E-003	10	..........a	-327.74
	245	2.46	2.53965E-001	-3.17892E-006	0.00000E+000	2.55000E-001	-1.10594E-003	10	..........a	-327.74
	252	2.53	2.46927E-001	-3.32095E-006	0.00000E+000	2.48000E-001	-1.10094E-003	10	..........a	-327.74
	259	2.6	2.39882E-001	-3.68021E-006	0.00000E+000	2.41000E-001	-1.09761E-003	10	..........a	-327.74
	266	2.67	2.32949E-001	-3.50476E-006	0.00000E+000	2.34000E-001	-1.09761E-003	10	..........a	-327.74
	273	2.74	2.25976E-001	-3.57995E-006	0.00000E+000	2.27000E-001	-1.10594E-003	10	..........a	-327.74
	280	2.81	2.18966E-001	-4.11467E-006	0.00000E+000	2.20000E-001	-1.09594E-003	10	..........a	-327.74
	287	2.88	2.11887E-001	-3.83060E-006	0.00000E+000	2.13000E-001	-1.10094E-003	10	..........a	-327.74
	294	2.95	2.04933E-001	-3.13714E-006	0.00000E+000	2.06000E-001	-1.07761E-003	10	..........a	-327.74
	301	3.02	1.97978E-001	-3.52147E-006	0.00000E+000	1.99000E-001	-1.11594E-003	10	..........a	-327.74
	308	3.09	1.90922E-001	-3.30424E-006	0.00000E+000	1.92000E-001	-1.12094E-003	10	..........a	-327.74
	315	3.16	1.83914E-001	-3.83896E-006	0.00000E+000	1.85000E-001	-1.11427E-003	10	..........a	-327.74
	322	3.23	1.77014E-001	-3.40450E-006	0.00000E+000	1.78000E-001	-1.10261E-003	10	..........a	-327.74
	329	3.3	1.69989E-001	-3.63008E-006	0.00000E+000	1.71000E-001	-1.07927E-003	10	..........a	-327.74
	336	3.37	1.62936E-001	-4.28177E-006	0.00000E+000	1.64000E-001	-1.10927E-003	10	..........a	-327.74
	343	3.44	1.55926E-001	-4.78307E-006	0.00000E+000	1.57000E-001	-1.09594E-003	10	..........a	-327.74
	350	3.51	1.48938E-001	-4.54913E-006	0.00000E+000	1.50000E-001	-1.10427E-003	10	..........a	-327.74
	357	3.58	1.42034E-001	-4.23164E-006	0.00000E+000	1.43000E-001	-1.10427E-003	10	..........a	-327.74
	364	3.65	1.34938E-001	-4.50735E-006	0.00000E+000	1.36000E-001	-1.10261E-003	10	..........a	-327.74
	371	3.72	1.28014E-001	-5.05043E-006	0.00000E+000	1.29000E-001	-1.09261E-003	10	..........a	-327.74
	378	3.79	1.21011E-001	-4.74129E-006	0.00000E+000	1.22000E-001	-1.11094E-003	10	..........a	-327.74
	385	3.86	1.14010E-001	-4.72458E-006	0.00000E+000	1.15000E-001	-1.10261E-003	10	..........a	-327.74
	392	3.93	1.06966E-001	-5.14233E-006	0.00000E+000	1.08000E-001	-1.08094E-003	10	..........a	-327.74
	399	4	9.99627E-002	-5.00865E-006	0.00000E+000	1.01000E-001	-1.10761E-003	10	..........a	-327.74
	406	4.07	9.28969E-002	-4.69116E-006	0.00000E+000	9.40000E-002	-1.09094E-003	10	..........a	-327.74
	413	4.14	8.60161E-002	-4.79978E-006	0.00000E+000	8.70000E-002	-1.10594E-003	10	..........a	-327.74
	420	4.21	7.89727E-002	-4.82484E-006	0.00000E+000	8.00000E-002	-1.11094E-003	10	..........a	-327.74
	427	4.28	7.19844E-002	-4.71623E-006	0.00000E+000	7.30000E-002	-1.11261E-003	10	..........a	-327.74
	434	4.35	6.50411E-002	-4.75800E-006	0.00000E+000	6.60000E-002	-1.11594E-003	10	..........a	-327.74
	441	4.42	5.80352E-002	-4.54077E-006	0.00000E+000	5.90000E-002	-1.11594E-003	10	..........a	-327.74
	448	4.49	5.10419E-002	-5.07549E-006	0.00000E+000	5.20000E-002	-1.09927E-003	10	..........a	-327.74
	455	4.56	4.38611E-002	-4.92510E-006	0.00000E+000	4.50000E-002	-1.11427E-003	10	..........a	-327.74
	462	4.63	3.70194E-002	-4.94181E-006	0.00000E+000	3.80000E-002	-1.10094E-003	10	..........a	-327.74
	469	4.7	3.00436E-002	-5.25930E-006	0.00000E+000	3.10000E-002	-1.09927E-003	10	..........a	-327.74
	476	4.77	2.30819E-002	-5.28436E-006	0.00000E+000	2.40000E-002	-1.08594E-003	10	..........a	-327.74
	483	4.84	1.59011E-002	-5.16739E-006	0.00000E+000	1.70000E-002	-1.09761E-003	10	..........a	-327.74
	490	4.91	9.03939E-003	-5.24259E-006	0.00000E+000	9.99999E-003	-1.11094E-003	10	..........a	-327.74
	497	4.98	2.06439E-003	-5.33449E-006	0.00000E+000	2.99999E-003	-1.07927E-003	10	..........a	-327.74
	504	5.05	-5.04227E-003	-5.61856E-006	0.00000E+000	-4.00001E-003	-1.10594E-003	10	..........a	-327.74
	511	5.12	-1.21739E-002	-5.50995E-006	0.00000E+000	-1.10000E-002	-1.10427E-003	10	..........a	-327.74
	518	5.19	-1.89964E-002	-5.12562E-006	0.00000E+000	-1.80000E-002	-1.09927E-003	10	..........a	-327.74
	525	5.26	-2.59614E-002	-5.42640E-006	0.00000E+000	-2.50000E-002	-1.10427E-003	10	..........a	-327.74
	532	5.33	-3.30656E-002	-5.32614E-006	0.00000E+000	-3.20000E-002	-1.10261E-003	10	..........a	-327.74
	539	5.4	-4.00131E-002	-5.45982E-006	0.00000E+000	-3.90000E-002	-1.10761E-003	10	..........a	-327.74
	546	5.47	-4.69531E-002	-5.39298E-006	0.00000E+000	-4.60000E-002	-1.12261E-003	10	..........a	-327.74
	553	5.54	-5.39414E-002	-5.58514E-006	0.00000E+000	-5.30000E-002	-1.10594E-003	10	..........a	-327.74
	560	5.61	-6.10389E-002	-5.76895E-006	0.00000E+000	-6.00000E-002	-1.10261E-003	10	..........a	-327.74
	567	5.68	-6.80039E-002	-5.65198E-006	0.00000E+000	-6.70000E-002	-1.10427E-003	10	..........a	-327.74
	574	5.75	-7.49756E-002	-5.43475E-006	0.00000E+000	-7.40000E-002	-1.10261E-003	10	..........a	-327.74
	581	5.82	-8.19481E-002	-5.54337E-006	0.00000E+000	-8.10000E-002	-1.10594E-003	10	..........a	-327.74
	588	5.89	-8.90339E-002	-5.76060E-006	0.00000E+000	-8.80000E-002	-1.11761E-003	10	..........a	-327.74
	595	5.96	-9.59581E-002	-5.78566E-006	0.00000E+000	-9.50000E-002	-1.11761E-003	10	..........a	-327.74
	602	6.03	-1.02906E-001	-5.80237E-006	0.00000E+000	-1.02000E-001	-1.09927E-003	10	..........a	-327.74
	609	6.1	-1.09945E-001	-5.80237E-006	0.00000E+000	-1.09000E-001	-1.09427E-003	10	..........a	-327.74
	616	6.17	-1.17043E-001	-5.92769E-006	0.00000E+000	-1.16000E-001	-1.11261E-003	10	..........a	-327.74
	623	6.24	-1.24059E-001	-5.84415E-006	0.00000E+000	-1.23000E-001	-1.11261E-003	10	..........a	-327.74
	630	6.31	-1.30924E-001	-5.88592E-006	0.00000E+000	-1.30000E-001	-1.08594E-003	10	..........a	-327.74
	637	6.38	-1.37926E-001	-5.86086E-006	0.00000E+000	-1.37000E-001	-1.09927E-003	10	..........a	-327.74
	644	6.45	-1.45021E-001	-5.93605E-006	0.00000E+000	-1.44000E-001	-1.08761E-003	10	..........a	-327.74
	651	6.52	-1.51986E-001	-5.97782E-006	0.00000E+000	-1.51000E-001	-1.06761E-003	10	..........a	-327.74
	658	6.59	-1.58909E-001	-6.09479E-006	0.00000E+000	-1.58000E-001	-1.10427E-003	10	..........a	-327.74
	665	6.66	-1.65899E-001	-6.16163E-006	0.00000E+000	-1.65000E-001	-1.11594E-003	10	..........a	-327.74
	672	6.73	-1.72991E-001	-6.21176E-006	0.00000E+000	-1.72000E-001	-1.10594E-003	10	..........a	-327.74
	679	6.8	-1.79979E-001	-6.42064E-006	0.00000E+000	-1.79000E-001	-1.11261E-003	10	..........a	-327.74
	686	6.87	-1.87081E-001	-6.72977E-006	0.00000E+000	-1.86000E-001	-1.11094E-003	10	..........a	-327.74
	693	6.94	-1.93931E-001	-7.10574E-006	0.00000E+000	-1.93000E-001	-1.11761E-003	10	..........a	-327.74
	700	7.01	-2.01011E-001	-7.43159E-006	0.00000E+000	-2.00000E-001	-1.08094E-003	10	..........a	-327.74
	707	7.08	-2.07966E-001	-7.56526E-006	0.00000E+000	-2.07000E-001	-1.09094E-003	10	..........a	-327.74
	714	7.15	-2.14918E-001	-7.94124E-006	0.00000E+000	-2.14000E-001	-1.10594E-003	10	..........a	-327.74
	721	7.22	-2.21911E-001	-8.12505E-006	0.00000E+000	-2.21000E-001	-1.09427E-003	10	..........a	-327.74
	728	7.29	-2.28985E-001	-8.52608E-006	0.00000E+000	-2.28000E-001	-1.12261E-003	10	..........a	-327.74
	735	7.36	-2.35996E-001	-8.87699E-006	0.00000E+000	-2.35000E-001	-1.10761E-003	10	..........a	-327.74
	742	7.43	-2.42890E-001	-9.06080E-006	0.00000E+000	-2.42000E-001	-1.11594E-003	10	..........a	-327.74
	749	7.5	-2.49932E-001	-9.66236E-006	0.00000E+000	-2.49000E-001	-1.09261E-003	10	..........a	-327.74
	756	7.57	-2.56946E-001	-9.06916E-006	0.00000E+000	-2.56000E-001	-1.08761E-003	10	..........a	-327.74
	763	7.64	-2.64191E-001	-9.69578E-006	0.00000E+000	-2.63000E-001	-1.09927E-003	10	..........a	-327.74
	770	7.71	-2.70880E-001	-9.22790E-006	0.00000E+000	-2.70000E-001	-1.08761E-003	10	..........a	-327.74
	777	7.78	-2.77906E-001	-8.95219E-006	0.00000E+000	-2.77000E-001	-1.08761E-003	10	..........a	-327.74
	784	7.85	-2.84912E-001	-8.56786E-006	0.00000E+000	-2.84000E-001	-1.12261E-003	10	..........a	-327.74
	791	7.92	-2.91941E-001	-8.79344E-006	0.00000E+000	-2.91000E-001	-1.09427E-003	10	..........a	-327.74
	798	7.99	-2.98882E-001	-8.52608E-006	0.00000E+000	-2.98000E-001	-1.11927E-003	10	..........a	-327.74
	805	8.06	-3.05913E-001	-8.81015E-006	0.00000E+000	-3.05000E-001	-1.12427E-003	10	..........a	-327.74
	812	8.13	-3.13008E-001	-8.51773E-006	0.00000E+000	-3.12000E-001	-1.09927E-003	10	..........a	-327.74
	819	8.2	-3.19883E-001	-8.54279E-006	0.00000E+000	-3.19000E-001	-1.08427E-003	10	..........a	-327.74
	826	8.27	-3.26860E-001	-8.70989E-006	0.00000E+000	-3.26000E-001	-1.09927E-003	10	..........a	-327.74
	833	8.34	-3.33853E-001	-8.73496E-006	0.00000E+000	-3.33000E-001	-1.12261E-003	10	..........a	-327.74
	840	8.41	-3.41020E-001	-8.99396E-006	0.00000E+000	-3.40000E-001	-1.08761E-003	10	..........a	-327.74
	847	8.48	-3.47842E-001	-9.72920E-006	0.00000E+000	-3.47000E-001	-1.08261E-003	10	..........a	-327.74
	854	8.55	-3.54866E-001	-9.92972E-006	0.00000E+000	-3.54000E-001	-1.12261E-003	10	..........a	-327.74
	861	8.62	-3.61846E-001	-1.02305E-005	0.00000E+000	-3.61000E-001	-1.08594E-003	10	..........a	-327.74
	868	8.69	-3.68933E-001	-1.13668E-005	0.00000E+000	-3.68000E-001	-1.10927E-003	10	..........a	-327.74
	875	8.76	-3.75879E-001	-1.21939E-005	0.00000E+000	-3.75000E-001	-1.11427E-003	10	..........a	-327.74
	882	8.83	-3.82831E-001	-1.26367E-005	0.00000E+000	-3.82000E-001	-1.08594E-003	10	..........a	-327.74
	889	8.9	-3.89809E-001	-1.36310E-005	0.00000E+000	-3.89000E-001	-1.09094E-003	10	..........a	-327.74
	896	8.97	-3.96855E-001	-1.39484E-005	0.00000E+000	-3.96000E-001	-1.12927E-003	10	..........a	-327.74
	903	9.04	-4.03801E-001	-1.41155E-005	0.00000E+000	-4.03000E-001	-1.10094E-003	10	..........a	-327.74
	910	9.11	-4.10787E-001	-1.53354E-005	0.00000E+000	-4.10000E-001	-1.10427E-003	10	..........a	-327.74
	917	9.18	-4.17910E-001	-2.00977E-005	0.00000E+000	-4.17000E-001	-1.04761E-003	10	..........a	-327.74
	924	9.25	-4.24905E-001	-2.23118E-005	0.00000E+000	-4.24000E-001	-1.06761E-003	10	..........a	-327.74
	931	9.32	-4.31859E-001	-2.87701E-005	0.00000E+000	-4.31000E-001	-1.09761E-003	10	..........a	-327.74
	938	9.39	-4.38814E-001	-3.18197E-005	0.00000E+000	-4.38000E-001	-1.12927E-003	10	..........a	-327.74
	945	9.46	-4.45833E-001	-3.86707E-005	0.00000E+000	-4.45000E-001	-1.07927E-003	10	..........a	-327.74
	952	9.53	-4.52843E-001	-4.66163E-005	0.00000E+000	-4.52000E-001	-1.10094E-003	10	..........a	-327.74
	959	9.6	-4.59982E-001	-5.52971E-005	0.00000E+000	-4.59000E-001	-1.07427E-003	10	..........a	-327.74
	966	9.67	-4.66814E-001	-6.54901E-005	0.00000E+000	-4.66000E-001	-1.12427E-003	10	..........a	-327.74
	973	9.74	-4.73863E-001	-7.79891E-005	0.00000E+000	-4.73000E-001	-1.10594E-003	10	..........a	-327.74
	980	9.81	-4.80914E-001	-8.84913E-005	0.00000E+000	-4.80000E-001	-1.08761E-003	10	..........a	-327.74
	987	9.88	-4.87831E-001	-1.02503E-004	0.00000E+000	-4.87000E-001	-1.06094E-003	10	..........a	-327.74
	994	9.95	-4.94816E-001	-1.18252E-004	0.00000E+000	-4.94000E-001	-1.06927E-003	10	..........a	-327.74
	1001	10.02	-5.01854E-001	-1.34393E-004	0.00000E+000	-5.01000E-001	-1.08761E-003	10	..........a	-327.74
	1008	10.09	-5.08845E-001	-1.52173E-004	0.00000E+000	-5.08000E-001	-1.11594E-003	10	..........a	-327.74
	1015	10.16	-5.15740E-001	-1.74397E-004	0.00000E+000	-5.15000E-001	-1.10261E-003	10	..........a	-327.74
	1022	10.23	-5.22747E-001	-1.95602E-004	0.00000E+000	-5.22000E-001	-1.07427E-003	10	..........a	-327.74
	1029	10.3	-5.29846E-001	-2.17575E-004	0.00000E+000	-5.29000E-001	-1.08927E-003	10	..........a	-327.74
	1036	10.37	-5.36942E-001	-2.40150E-004	0.00000E+000	-5.36000E-001	-1.10761E-003	10	..........a	-327.74
	1043	10.44	-5.43887E-001	-2.62901E-004	0.00000E+000	-5.43000E-001	-1.07427E-003	10	..........a	-327.74
	1050	10.51	-5.50790E-001	-2.83504E-004	0.00000E+000	-5.50000E-001	-1.08094E-003	10	..........a	-327.74
	1057	10.58	-5.57819E-001	-2.97841E-004	0.00000E+000	-5.57000E-001	-1.12261E-003	10	..........a	-327.74
	1064	10.65	-5.64805E-001	-3.08519E-004	0.00000E+000	-5.64000E-001	-1.09261E-003	10	..........a	-327.74
	1071	10.72	-5.72162E-001	-3.10808E-004	0.00000E+000	-5.71000E-001	-1.05927E-003	10	..........a	-327.74
	1078	10.79	-5.78776E-001	-3.05929E-004	0.00000E+000	-5.78000E-001	-1.10094E-003	10	..........a	-327.74
	1085	10.86	-5.85780E-001	-2.96162E-004	0.00000E+000	-5.85000E-001	-1.11594E-003	10	..........a	-327.74
	1092	10.93	-5.92777E-001	-2.85994E-004	0.00000E+000	-5.92000E-001	-1.08761E-003	10	..........a	-327.74
	1099	11	-5.99764E-001	-2.70587E-004	0.00000E+000	-5.99000E-001	-1.10927E-003	10	..........a	-327.74
	1106	11.07	-6.06756E-001	-2.55273E-004	0.00000E+000	-6.06000E-001	-1.10427E-003	10	..........a	-327.74
	1113	11.14	-6.13854E-001	-2.44060E-004	0.00000E+000	-6.13000E-001	-1.11261E-003	10	..........a	-327.74
	1120	11.21	-6.20861E-001	-2.31077E-004	0.00000E+000	-6.20000E-001	-1.10094E-003	10	..........a	-327.74
	1127	11.28	-6.27732E-001	-2.22480E-004	0.00000E+000	-6.27000E-001	-1.08094E-003	10	..........a	-327.74
	1134	11.35	-6.34731E-001	-2.13941E-004	0.00000E+000	-6.34000E-001	-1.10261E-003	10	..........a	-327.74
	1141	11.42	-6.41768E-001	-2.06446E-004	0.00000E+000	-6.41000E-001	-1.12261E-003	10	..........a	-327.74
	1148	11.49	-6.48969E-001	-1.98559E-004	0.00000E+000	-6.48000E-001	-1.07927E-003	10	..........a	-327.74
	1155	11.56	-6.55714E-001	-1.91700E-004	0.00000E+000	-6.55000E-001	-1.12594E-003	10	..........a	-327.74
	1162	11.63	-6.62736E-001	-1.89553E-004	0.00000E+000	-6.62000E-001	-1.11261E-003	10	..........a	-327.74
	1169	11.7	-6.69721E-001	-1.82476E-004	0.00000E+000	-6.69000E-001	-1.11094E-003	10	..........a	-327.74
	1176	11.77	-6.76831E-001	-1.76628E-004	0.00000E+000	-6.76000E-001	-1.09927E-003	10	..........a	-327.74
	1183	11.84	-6.83692E-001	-1.74280E-004	0.00000E+000	-6.83000E-001	-1.11761E-003	10	..........a	-327.74
	1190	11.91	-6.90733E-001	-1.67663E-004	0.00000E+000	-6.90000E-001	-1.08427E-003	10	..........a	-327.74
	1197	11.98	-6.97741E-001	-1.66176E-004	0.00000E+000	-6.97000E-001	-1.07427E-003	10	..........a	-327.74
	1204	12.05	-7.04679E-001	-1.60001E-004	0.00000E+000	-7.04000E-001	-1.11761E-003	10	..........a	-327.74
	1211	12.12	-7.11695E-001	-1.58322E-004	0.00000E+000	-7.11000E-001	-1.09761E-003	10	..........a	-327.74
	1218	12.19	-7.18712E-001	-1.55815E-004	0.00000E+000	-7.18000E-001	-1.09427E-003	10	..........a	-327.74
	1225	12.26	-7.25812E-001	-1.50761E-004	0.00000E+000	-7.25000E-001	-1.07594E-003	10	..........a	-327.74
	1232	12.33	-7.32705E-001	-1.50201E-004	0.00000E+000	-7.32000E-001	-1.05594E-003	10	..........a	-327.74
	1239	12.4	-7.39671E-001	-1.45155E-004	0.00000E+000	-7.39000E-001	-1.10594E-003	10	..........a	-327.74
	1246	12.47	-7.46649E-001	-1.42698E-004	0.00000E+000	-7.46000E-001	-1.11261E-003	10	..........a	-327.74
	1253	12.54	-7.53686E-001	-1.42047E-004	0.00000E+000	-7.53000E-001	-1.11094E-003	10	..........a	-327.74
	1260	12.61	-7.60688E-001	-1.39624E-004	0.00000E+000	-7.60000E-001	-1.10427E-003	10	..........a	-327.74
	1267	12.68	-7.67662E-001	-1.35246E-004	0.00000E+000	-7.67000E-001	-1.05594E-003	10	..........a	-327.74
	1274	12.75	-7.74647E-001	-1.34251E-004	0.00000E+000	-7.74000E-001	-1.07094E-003	10	..........a	-327.74
	1281	12.82	-7.81723E-001	-1.33767E-004	0.00000E+000	-7.81000E-001	-1.10761E-003	10	..........a	-327.74
	1288	12.89	-7.88697E-001	-1.30366E-004	0.00000E+000	-7.88000E-001	-1.11427E-003	10	..........a	-327.74
	1295	12.96	-7.95637E-001	-1.27618E-004	0.00000E+000	-7.95000E-001	-1.10927E-003	10	..........a	-327.74
	1302	13.03	-8.02636E-001	-1.26297E-004	0.00000E+000	-8.02000E-001	-1.09261E-003	10	..........a	-327.74
	1309	13.1	-8.09708E-001	-1.25403E-004	0.00000E+000	-8.09000E-001	-1.07761E-003	10	..........a	-327.74
	1316	13.17	-8.16727E-001	-1.22463E-004	0.00000E+000	-8.16000E-001	-1.10927E-003	10	..........a	-327.74
	1323	13.24	-8.23637E-001	-1.21067E-004	0.00000E+000	-8.23000E-001	-1.12761E-003	10	..........a	-327.74
	1330	13.31	-8.30620E-001	-1.19572E-004	0.00000E+000	-8.30000E-001	-1.08927E-003	10	..........a	-327.74
	1337	13.38	-8.37648E-001	-1.18310E-004	0.00000E+000	-8.37000E-001	-1.09927E-003	10	..........a	-327.74
	1344	13.45	-8.44651E-001	-1.17742E-004	0.00000E+000	-8.44000E-001	-1.08927E-003	10	..........a	-327.74
	1351	13.52	-8.51606E-001	-1.16180E-004	0.00000E+000	-8.51000E-001	-1.11594E-003	10	..........a	-327.74
	1358	13.59	-8.58671E-001	-1.14091E-004	0.00000E+000	-8.58000E-001	-1.11261E-003	10	..........a	-327.74
	1365	13.66	-8.65672E-001	-1.12687E-004	0.00000E+000	-8.65000E-001	-1.10927E-003	10	..........a	-327.74
	1372	13.73	-8.72519E-001	-1.11501E-004	0.00000E+000	-8.72000E-001	-1.09427E-003	10	..........a	-327.74
	1379	13.8	-8.79551E-001	-1.10640E-004	0.00000E+000	-8.79000E-001	-1.09094E-003	10	..........a	-327.74
	1386	13.87	-8.86658E-001	-1.10164E-004	0.00000E+000	-8.86000E-001	-1.10927E-003	10	..........a	-327.74
	1393	13.94	-8.93633E-001	-1.09546E-004	0.00000E+000	-8.93000E-001	-1.10594E-003	10	..........a	-327.74
	1400	14.01	-9.00656E-001	-1.08443E-004	0.00000E+000	-9.00000E-001	-1.09427E-003	10	..........a	-327.74
	1407	14.08	-9.07611E-001	-1.06162E-004	0.00000E+000	-9.07000E-001	-1.11594E-003	10	..........a	-327.74
	1414	14.15	-9.14666E-001	-1.05335E-004	0.00000E+000	-9.14000E-001	-1.10761E-003	10	..........a	-327.74
	1421	14.22	-9.21596E-001	-1.04407E-004	0.00000E+000	-9.21000E-001	-1.12261E-003	10	..........a	-327.74
	1428	14.29	-9.28762E-001	-1.03547E-004	0.00000E+000	-9.28000E-001	-1.10094E-003	10	..........a	-327.74
	1435	14.36	-9.35563E-001	-1.02762E-004	0.00000E+000	-9.35000E-001	-1.08427E-003	10	..........a	-327.74
	1442	14.43	-9.42634E-001	-1.02218E-004	0.00000E+000	-9.42000E-001	-1.11094E-003	10	..........a	-327.74
	1449	14.5	-9.49604E-001	-1.01876E-004	0.00000E+000	-9.49000E-001	-1.10094E-003	10	..........a	-327.74
	1456	14.57	-9.56721E-001	-1.01433E-004	0.00000E+000	-9.56000E-001	-1.05427E-003	10	..........a	-327.74
	1463	14.64	-9.63572E-001	-9.98123E-005	0.00000E+000	-9.63000E-001	-1.10927E-003	10	..........a	-327.74
	1470	14.71	-9.70652E-001	-9.93110E-005	0.00000E+000	-9.70000E-001	-1.09094E-003	10	..........a	-327.74
	1477	14.78	-9.77664E-001	-9.81914E-005	0.00000E+000	-9.77000E-001	-1.13094E-003	10	..........a	-327.74
	1484	14.85	-9.84561E-001	-9.73225E-005	0.00000E+000	-9.84000E-001	-1.11427E-003	10	..........a	-327.74
	1491	14.92	-9.91577E-001	-9.67961E-005	0.00000E+000	-9.91000E-001	-1.12927E-003	10	..........a	-327.74
	1498	14.99	-9.98596E-001	-9.60776E-005	0.00000E+000	-9.98000E-001	-1.11927E-003	10	..........a	-327.74
	1505	15.06	-9.95541E-001	-9.42980E-005	0.00000E+000	-9.95000E-001	-1.12261E-003	10	..........a	-327.74
	1512	15.13	-9.88571E-001	-9.32703E-005	0.00000E+000	-9.88000E-001	-1.08261E-003	10	..........a	-327.74
	1519	15.2	-9.81753E-001	-9.13403E-005	0.00000E+000	-9.81000E-001	-1.09927E-003	10	..........a	-327.74
	1526	15.27	-9.74622E-001	-8.90427E-005	0.00000E+000	-9.74000E-001	-1.11594E-003	10	..........a	-327.74
	1533	15.34	-9.67585E-001	-8.81822E-005	0.00000E+000	-9.67000E-001	-1.10927E-003	10	..........a	-327.74
	1540	15.41	-9.60590E-001	-8.73467E-005	0.00000E+000	-9.60000E-001	-1.12261E-003	10	..........a	-327.74
	1547	15.48	-9.53637E-001	-8.67535E-005	0.00000E+000	-9.53000E-001	-1.09927E-003	10	..........a	-327.74
	1554	15.55	-9.46641E-001	-8.62188E-005	0.00000E+000	-9.46000E-001	-1.07594E-003	10	..........a	-327.74
	1561	15.62	-9.39576E-001	-8.59263E-005	0.00000E+000	-9.39000E-001	-1.10094E-003	10	..........a	-327.74
	1568	15.69	-9.32766E-001	-8.56506E-005	0.00000E+000	-9.32000E-001	-1.11427E-003	10	..........a	-327.74
	1575	15.76	-9.25716E-001	-8.47817E-005	0.00000E+000	-9.25000E-001	-1.09761E-003	10	..........a	-327.74
	1582	15.83	-9.18651E-001	-8.38125E-005	0.00000E+000	-9.18000E-001	-1.07094E-003	10	..........a	-327.74
	1589	15.9	-9.11587E-001	-8.23254E-005	0.00000E+000	-9.11000E-001	-1.12427E-003	10	..........a	-327.74
	1596	15.97	-9.04586E-001	-8.15400E-005	0.00000E+000	-9.04000E-001	-1.14094E-003	10	..........a	-327.74
	1603	16.04	-8.97666E-001	-8.09217E-005	0.00000E+000	-8.97000E-001	-1.12427E-003	10	..........a	-327.74
	1610	16.11	-8.90654E-001	-8.04956E-005	0.00000E+000	-8.90000E-001	-1.11094E-003	10	..........a	-327.74
	1617	16.18	-8.83620E-001	-7.99024E-005	0.00000E+000	-8.83000E-001	-1.10094E-003	10	..........a	-327.74
	1624	16.25	-8.76646E-001	-7.93593E-005	0.00000E+000	-8.76000E-001	-1.11427E-003	10	..........a	-327.74
	1631	16.32	-8.69804E-001	-7.89332E-005	0.00000E+000	-8.69000E-001	-1.12594E-003	10	..........a	-327.74
	1638	16.39	-8.62676E-001	-7.85239E-005	0.00000E+000	-8.62000E-001	-1.11761E-003	10	..........a	-327.74
	1645	16.46	-8.55526E-001	-7.83818E-005	0.00000E+000	-8.55000E-001	-1.07094E-003	10	..........a	-327.74
	1652	16.53	-8.48549E-001	-7.83150E-005	0.00000E+000	-8.48000E-001	-1.08094E-003	10	..........a	-327.74
	1659	16.6	-8.41633E-001	-7.81730E-005	0.00000E+000	-8.41000E-001	-1.11261E-003	10	..........a	-327.74
	1666	16.67	-8.34671E-001	-7.79390E-005	0.00000E+000	-8.34000E-001	-1.12261E-003	10	..........a	-327.74
	1673	16.74	-8.27624E-001	-7.79641E-005	0.00000E+000	-8.27000E-001	-1.12261E-003	10	..........a	-327.74
	1680	16.81	-8.20644E-001	-7.74043E-005	0.00000E+000	-8.20000E-001	-1.11261E-003	10	..........a	-327.74
	1687	16.88	-8.13744E-001	-7.68195E-005	0.00000E+000	-8.13000E-001	-1.12094E-003	10	..........a	-327.74
	1694	16.95	-8.06702E-001	-7.63349E-005	0.00000E+000	-8.06000E-001	-1.09927E-003	10	..........a	-327.74
	1701	17.02	-7.99703E-001	-7.63766E-005	0.00000E+000	-7.99000E-001	-1.10094E-003	10	..........a	-327.74
	1708	17.09	-7.92797E-001	-7.54994E-005	0.00000E+000	-7.92000E-001	-1.09927E-003	10	..........a	-327.74
	1715	17.16	-7.85771E-001	-7.45553E-005	0.00000E+000	-7.85000E-001	-1.12594E-003	10	..........a	-327.74
	1722	17.23	-7.78683E-001	-7.33689E-005	0.00000E+000	-7.78000E-001	-1.09927E-003	10	..........a	-327.74
	1729	17.3	-7.71675E-001	-7.32101E-005	0.00000E+000	-7.71000E-001	-1.11427E-003	10	..........a	-327.74
	1736	17.37	-7.64755E-001	-7.23412E-005	0.00000E+000	-7.64000E-001	-1.12594E-003	10	..........a	-327.74
	1743	17.44	-7.57770E-001	-7.18399E-005	0.00000E+000	-7.57000E-001	-1.08427E-003	10	..........a	-327.74
	1750	17.51	-7.50756E-001	-7.12968E-005	0.00000E+000	-7.50000E-001	-1.10761E-003	10	..........a	-327.74
	1757	17.58	-7.43671E-001	-7.11548E-005	0.00000E+000	-7.43000E-001	-1.08594E-003	10	..........a	-327.74
	1764	17.65	-7.36720E-001	-7.08874E-005	0.00000E+000	-7.36000E-001	-1.05927E-003	10	..........a	-327.74
	1771	17.72	-7.29774E-001	-7.04530E-005	0.00000E+000	-7.29000E-001	-1.10594E-003	10	..........a	-327.74
	1778	17.79	-7.22679E-001	-7.02525E-005	0.00000E+000	-7.22000E-001	-1.06927E-003	10	..........a	-327.74
	1785	17.86	-7.15686E-001	-7.01271E-005	0.00000E+000	-7.15000E-001	-1.07761E-003	10	..........a	-327.74
	1792	17.93	-7.08716E-001	-6.98932E-005	0.00000E+000	-7.08000E-001	-1.09094E-003	10	..........a	-327.74
	1799	18	-7.01750E-001	-6.96592E-005	0.00000E+000	-7.01000E-001	-1.08761E-003	10	..........a	-327.74
	1806	18.07	-6.94701E-001	-6.90577E-005	0.00000E+000	-6.94000E-001	-1.08927E-003	10	..........a	-327.74
	1813	18.14	-6.87701E-001	-6.86817E-005	0.00000E+000	-6.87000E-001	-1.11427E-003	10	..........a	-327.74
	1820	18.21	-6.80723E-001	-6.77710E-005	0.00000E+000	-6.80000E-001	-1.11094E-003	10	..........a	-327.74
	1827	18.28	-6.73871E-001	-6.57575E-005	0.00000E+000	-6.73000E-001	-1.09761E-003	10	..........a	-327.74
	1834	18.35	-6.66712E-001	-6.48719E-005	0.00000E+000	-6.66000E-001	-1.08927E-003	10	..........a	-327.74
	1841	18.42	-6.59735E-001	-6.42453E-005	0.00000E+000	-6.59000E-001	-1.12761E-003	10	..........a	-327.74
	1848	18.49	-6.52745E-001	-6.33930E-005	0.00000E+000	-6.52000E-001	-1.10094E-003	10	..........a	-327.74
	1855	18.56	-6.45763E-001	-6.27581E-005	0.00000E+000	-6.45000E-001	-1.10927E-003	10	..........a	-327.74
	1862	18.63	-6.38696E-001	-6.20897E-005	0.00000E+000	-6.38000E-001	-1.07427E-003	10	..........a	-327.74
	1869	18.7	-6.31734E-001	-6.19226E-005	0.00000E+000	-6.31000E-001	-1.06094E-003	10	..........a	-327.74
	1876	18.77	-6.24846E-001	-6.04605E-005	0.00000E+000	-6.24000E-001	-1.09761E-003	10	..........a	-327.74
	1883	18.84	-6.17758E-001	-5.64250E-005	0.00000E+000	-6.17000E-001	-1.10927E-003	10	..........a	-327.74
	1890	18.91	-6.10742E-001	-5.41608E-005	0.00000E+000	-6.10000E-001	-1.08927E-003	10	..........a	-327.74
	1897	18.98	-6.03768E-001	-5.06768E-005	0.00000E+000	-6.03000E-001	-1.05594E-003	10	..........a	-327.74
	1904	19.05	-5.96842E-001	-4.58476E-005	0.00000E+000	-5.96000E-001	-1.06927E-003	10	..........a	-327.74
	1911	19.12	-5.89728E-001	-3.77433E-005	0.00000E+000	-5.89000E-001	-1.09761E-003	10	..........a	-327.74
	1918	19.19	-5.82791E-001	-2.58543E-005	0.00000E+000	-5.82000E-001	-1.11094E-003	10	..........a	-327.74
	1925	19.26	-5.75772E-001	-1.27036E-005	0.00000E+000	-5.75000E-001	-1.12094E-003	10	..........a	-327.74
	1932	19.33	-5.68834E-001	8.82715E-006	0.00000E+000	-5.68000E-001	-1.09094E-003	10	..........a	-327.74
	1939	19.4	-5.61802E-001	2.91798E-005	0.00000E+000	-5.61000E-001	-1.09594E-003	10	..........a	-327.74
	1946	19.47	-5.54806E-001	5.38687E-005	0.00000E+000	-5.54000E-001	-1.11927E-003	10	..........a	-327.74
	1953	19.54	-5.47726E-001	8.02870E-005	0.00000E+000	-5.47000E-001	-1.09927E-003	10	..........a	-327.74
	1960	19.61	-5.40809E-001	1.04366E-004	0.00000E+000	-5.40000E-001	-1.11261E-003	10	..........a	-327.74
	1967	19.68	-5.33801E-001	1.24359E-004	0.00000E+000	-5.33000E-001	-1.10594E-003	10	..........a	-327.74
	1974	19.75	-5.26797E-001	1.44754E-004	0.00000E+000	-5.26000E-001	-1.10594E-003	10	..........a	-327.74
	1981	19.82	-5.20017E-001	1.59325E-004	0.00000E+000	-5.19000E-001	-1.12427E-003	10	..........a	-327.74
	1988	19.89	-5.12825E-001	1.70094E-004	0.00000E+000	-5.12000E-001	-1.10094E-003	10	..........a	-327.74
	1995	19.96	-5.05863E-001	1.78332E-004	0.00000E+000	-5.05000E-001	-1.11094E-003	10	..........a	-327.74
	2002	20.03	-4.98797E-001	1.83554E-004	0.00000E+000	-4.98000E-001	-1.08761E-003	10	..........a	-327.74
	2009	20.1	-4.91874E-001	1.85919E-004	0.00000E+000	-4.91000E-001	-1.05594E-003	10	..........a	-327.74
	2016	20.17	-4.84843E-001	1.85843E-004	0.00000E+000	-4.84000E-001	-1.07094E-003	10	..........a	-327.74
	2023	20.24	-4.77877E-001	1.84156E-004	0.00000E+000	-4.77000E-001	-1.11261E-003	10	..........a	-327.74
	2030	20.31	-4.70793E-001	1.79469E-004	0.00000E+000	-4.70000E-001	-1.10094E-003	10	..........a	-327.74
	2037	20.38	-4.63856E-001	1.76135E-004	0.00000E+000	-4.63000E-001	-1.10427E-003	10	..........a	-327.74
	2044	20.45	-4.56851E-001	1.70078E-004	0.00000E+000	-4.56000E-001	-1.04594E-003	10	..........a	-327.74
	2051	20.52	-4.49864E-001	1.62993E-004	0.00000E+000	-4.49000E-001	-1.10927E-003	10	..........a	-327.74
	2058	20.59	-4.42838E-001	1.57011E-004	0.00000E+000	-4.42000E-001	-1.10094E-003	10	..........a	-327.74
	2065	20.66	-4.35858E-001	1.50343E-004	0.00000E+000	-4.35000E-001	-1.10927E-003	10	..........a	-327.74
	2072	20.73	-4.28900E-001	1.44060E-004	0.00000E+000	-4.28000E-001	-1.10594E-003	10	..........a	-327.74
	2079	20.8	-4.21839E-001	1.37310E-004	0.00000E+000	-4.21000E-001	-1.07261E-003	10	..........a	-327.74
	2086	20.87	-4.14792E-001	1.30759E-004	0.00000E+000	-4.14000E-001	-1.10094E-003	10	..........a	-327.74
	2093	20.94	-4.07847E-001	1.23624E-004	0.00000E+000	-4.07000E-001	-1.12594E-003	10	..........a	-327.74
	2100	21.01	-4.00905E-001	1.20792E-004	0.00000E+000	-4.00000E-001	-1.10094E-003	10	..........a	-327.74
	2107	21.08	-3.93822E-001	1.14367E-004	0.00000E+000	-3.93000E-001	-1.09761E-003	10	..........a	-327.74
	2114	21.15	-3.86779E-001	1.10198E-004	0.00000E+000	-3.86000E-001	-1.10761E-003	10	..........a	-327.74
	2121	21.22	-3.79810E-001	1.06371E-004	0.00000E+000	-3.79000E-001	-1.08927E-003	10	..........a	-327.74
	2128	21.29	-3.72892E-001	1.02745E-004	0.00000E+000	-3.72000E-001	-1.11427E-003	10	..........a	-327.74
	2135	21.36	-3.65862E-001	9.83421E-005	0.00000E+000	-3.65000E-001	-1.12427E-003	10	..........a	-327.74
	2142	21.43	-3.58808E-001	9.70554E-005	0.00000E+000	-3.58000E-001	-1.12261E-003	10	..........a	-327.74
	2149	21.5	-3.51835E-001	9.11318E-005	0.00000E+000	-3.51000E-001	-1.08427E-003	10	..........a	-327.74
	2156	21.57	-3.45001E-001	9.01960E-005	0.00000E+000	-3.44000E-001	-1.10594E-003	10	..........a	-327.74
	2163	21.64	-3.37861E-001	8.80404E-005	0.00000E+000	-3.37000E-001	-1.09261E-003	10	..........a	-327.74
	2170	21.71	-3.30896E-001	8.31444E-005	0.00000E+000	-3.30000E-001	-1.09927E-003	10	..........a	-327.74
	2177	21.78	-3.23839E-001	8.22588E-005	0.00000E+000	-3.23000E-001	-1.11261E-003	10	..........a	-327.74
	2184	21.85	-3.16961E-001	8.09972E-005	0.00000E+000	-3.16000E-001	-1.10094E-003	10	..........a	-327.74
	2191	21.92	-3.09860E-001	7.83905E-005	0.00000E+000	-3.09000E-001	-1.10261E-003	10	..........a	-327.74
	2198	21.99	-3.02821E-001	7.44469E-005	0.00000E+000	-3.02000E-001	-1.11427E-003	10	..........a	-327.74
	2205	22.06	-2.95869E-001	7.42464E-005	0.00000E+000	-2.95000E-001	-1.11427E-003	10	..........a	-327.74
	2212	22.13	-2.89039E-001	7.36114E-005	0.00000E+000	-2.88000E-001	-1.11761E-003	10	..........a	-327.74
	2219	22.2	-2.81879E-001	7.16146E-005	0.00000E+000	-2.81000E-001	-1.10427E-003	10	..........a	-327.74
	2226	22.27	-2.74891E-001	6.81724E-005	0.00000E+000	-2.74000E-001	-1.11427E-003	10	..........a	-327.74
	2233	22.34	-2.67910E-001	6.63844E-005	0.00000E+000	-2.67000E-001	-1.10094E-003	10	..........a	-327.74
	2240	22.41	-2.60925E-001	6.62424E-005	0.00000E+000	-2.60000E-001	-1.11927E-003	10	..........a	-327.74
	2247	22.48	-2.53899E-001	6.58163E-005	0.00000E+000	-2.53000E-001	-1.11261E-003	10	..........a	-327.74
	2254	22.55	-2.46882E-001	6.42288E-005	0.00000E+000	-2.46000E-001	-1.11427E-003	10	..........a	-327.74
	2261	22.62	-2.40044E-001	6.18894E-005	0.00000E+000	-2.39000E-001	-1.11261E-003	10	..........a	-327.74
	2268	22.69	-2.32917E-001	5.84890E-005	0.00000E+000	-2.32000E-001	-1.11594E-003	10	..........a	-327.74
	2275	22.76	-2.25885E-001	5.83302E-005	0.00000E+000	-2.25000E-001	-1.11261E-003	10	..........a	-327.74
	2282	22.83	-2.18857E-001	5.82049E-005	0.00000E+000	-2.18000E-001	-1.09594E-003	10	..........a	-327.74
	2289	22.9	-2.12111E-001	5.74530E-005	0.00000E+000	-2.11000E-001	-1.10761E-003	10	..........a	-327.74
	2296	22.97	-2.04901E-001	5.61663E-005	0.00000E+000	-2.04000E-001	-1.09927E-003	10	..........a	-327.74
	2303	23.04	-1.97933E-001	5.44034E-005	0.00000E+000	-1.97000E-001	-1.11427E-003	10	..........a	-327.74
	2310	23.11	-1.90876E-001	5.11533E-005	0.00000E+000	-1.90000E-001	-1.10594E-003	10	..........a	-327.74
	2317	23.18	-1.83921E-001	5.03011E-005	0.00000E+000	-1.83000E-001	-1.09427E-003	10	..........a	-327.74
	2324	23.25	-1.76919E-001	5.02176E-005	0.00000E+000	-1.76000E-001	-1.09427E-003	10	..........a	-327.74
	2331	23.32	-1.69917E-001	5.01925E-005	0.00000E+000	-1.69000E-001	-1.11094E-003	10	..........a	-327.74
	2338	23.39	-1.62902E-001	4.96996E-005	0.00000E+000	-1.62000E-001	-1.10761E-003	10	..........a	-327.74
	2345	23.46	-1.55960E-001	4.90312E-005	0.00000E+000	-1.55000E-001	-1.10427E-003	10	..........a	-327.74
	2352	23.53	-1.48997E-001	4.85132E-005	0.00000E+000	-1.48000E-001	-1.10261E-003	10	..........a	-327.74
	2359	23.6	-1.41936E-001	4.72850E-005	0.00000E+000	-1.41000E-001	-1.09427E-003	10	..........a	-327.74
	2366	23.67	-1.34949E-001	4.47033E-005	0.00000E+000	-1.34000E-001	-1.08594E-003	10	..........a	-327.74
	2373	23.74	-1.27943E-001	4.38177E-005	0.00000E+000	-1.27000E-001	-1.11927E-003	10	..........a	-327.74
	2380	23.81	-1.20996E-001	4.26981E-005	0.00000E+000	-1.20000E-001	-1.09427E-003	10	..........a	-327.74
	2387	23.88	-1.13862E-001	4.24558E-005	0.00000E+000	-1.13000E-001	-1.06594E-003	10	..........a	-327.74
	2394	23.95	-1.06931E-001	4.22135E-005	0.00000E+000	-1.06000E-001	-1.06761E-003	10	..........a	-327.74
	2401	24.02	-1.00011E-001	4.20966E-005	0.00000E+000	-9.90000E-002	-1.09761E-003	10	..........a	-327.74
	2408	24.09	-9.30181E-002	4.20214E-005	0.00000E+000	-9.20000E-002	-1.06427E-003	10	..........a	-327.74
	2415	24.16	-8.59056E-002	4.16872E-005	0.00000E+000	-8.50000E-002	-1.10594E-003	10	..........a	-327.74
	2422	24.23	-7.88681E-002	4.13112E-005	0.00000E+000	-7.80000E-002	-1.10094E-003	10	..........a	-327.74
	2429	24.3	-7.19673E-002	4.09853E-005	0.00000E+000	-7.10000E-002	-1.08427E-003	10	..........a	-327.74
	2436	24.37	-6.50481E-002	4.03838E-005	0.00000E+000	-6.40000E-002	-1.09427E-003	10	..........a	-327.74
	2443	24.44	-5.79923E-002	3.98073E-005	0.00000E+000	-5.70000E-002	-1.09094E-003	10	..........a	-327.74
	2450	24.51	-5.10073E-002	3.81948E-005	0.00000E+000	-5.00000E-002	-1.09761E-003	10	..........a	-327.74
	2457	24.58	-4.40048E-002	3.71922E-005	0.00000E+000	-4.30000E-002	-1.08094E-003	10	..........a	-327.74
	2464	24.65	-3.69906E-002	3.60977E-005	0.00000E+000	-3.60000E-002	-1.10761E-003	10	..........a	-327.74
	2471	24.72	-2.99473E-002	3.52455E-005	0.00000E+000	-2.90000E-002	-1.07927E-003	10	..........a	-327.74
	2478	24.79	-2.29673E-002	3.44518E-005	0.00000E+000	-2.20000E-002	-1.11761E-003	10	..........a	-327.74
	2485	24.86	-1.59789E-002	3.43432E-005	0.00000E+000	-1.50000E-002	-1.10094E-003	10	..........a	-327.74
	2492	24.93	-9.02560E-003	3.42178E-005	0.00000E+000	-8.00000E-003	-1.09594E-003	10	..........a	-327.74
	2499	25	-1.94894E-003	3.42011E-005	0.00000E+000	-1.00000E-003	-1.09927E-003	10	..........a	-327.74
	2506	25.07	5.01606E-003	3.41761E-005	0.00000E+000	5.99998E-003	-1.10761E-003	10	..........a	-327.74
	2513	25.14	1.20052E-002	3.41761E-005	0.00000E+000	1.30000E-002	-1.12094E-003	10	..........a	-327.74
	2520	25.21	1.90394E-002	3.41176E-005	0.00000E+000	2.00000E-002	-1.11094E-003	10	..........a	-327.74
	2527	25.28	2.60886E-002	3.40925E-005	0.00000E+000	2.70000E-002	-1.08927E-003	10	..........a	-327.74
	2534	25.35	3.30511E-002	3.39421E-005	0.00000E+000	3.40000E-002	-1.11427E-003	10	..........a	-327.74
	2541	25.42	3.99802E-002	3.36831E-005	0.00000E+000	4.10000E-002	-1.09927E-003	10	..........a	-327.74
	2548	25.49	4.70061E-002	3.34158E-005	0.00000E+000	4.80000E-002	-1.11094E-003	10	..........a	-327.74
	2555	25.56	5.40244E-002	3.31401E-005	0.00000E+000	5.50000E-002	-1.11594E-003	10	..........a	-327.74
	2562	25.63	6.10094E-002	3.31150E-005	0.00000E+000	6.20000E-002	-1.08927E-003	10	..........a	-327.74
	2569	25.7	6.78952E-002	3.28727E-005	0.00000E+000	6.90000E-002	-1.13094E-003	10	..........a	-327.74
	2576	25.77	7.49636E-002	3.23213E-005	0.00000E+000	7.60000E-002	-1.12427E-003	10	..........a	-327.74
	2583	25.84	8.20011E-002	3.19119E-005	0.00000E+000	8.30000E-002	-1.13594E-003	10	..........a	-327.74
	2590	25.91	8.90194E-002	3.12936E-005	0.00000E+000	9.00000E-002	-1.11927E-003	10	..........a	-327.74
	2597	25.98	9.59127E-002	3.02576E-005	0.00000E+000	9.70000E-002	-1.10761E-003	10	..........a	-327.74
	2604	26.05	1.02944E-001	2.92466E-005	0.00000E+000	1.04000E-001	-1.10761E-003	10	..........a	-327.74
	2611	26.12	1.10003E-001	2.80853E-005	0.00000E+000	1.11000E-001	-1.11094E-003	10	..........a	-327.74
	2618	26.19	1.16875E-001	2.73083E-005	0.00000E+000	1.18000E-001	-1.11594E-003	10	..........a	-327.74
	2625	26.26	1.23902E-001	2.69323E-005	0.00000E+000	1.25000E-001	-1.09594E-003	10	..........a	-327.74
	2632	26.33	1.30960E-001	2.65062E-005	0.00000E+000	1.32000E-001	-1.09261E-003	10	..........a	-327.74
	2639	26.4	1.38026E-001	2.64895E-005	0.00000E+000	1.39000E-001	-1.09094E-003	10	..........a	-327.74
	2646	26.47	1.44655E-001	2.62222E-005	0.00000E+000	1.46000E-001	-1.12927E-003	10	..........a	-327.74
	2653	26.54	1.51929E-001	2.62222E-005	0.00000E+000	1.53000E-001	-1.09761E-003	10	..........a	-327.74
	2660	26.61	1.58954E-001	2.61720E-005	0.00000E+000	1.60000E-001	-1.08761E-003	10	..........a	-327.74
	2667	26.68	1.65991E-001	2.61470E-005	0.00000E+000	1.67000E-001	-1.11427E-003	10	..........a	-327.74
	2674	26.75	1.72840E-001	2.61219E-005	0.00000E+000	1.74000E-001	-1.09761E-003	10	..........a	-327.74
	2681	26.82	1.79808E-001	2.58545E-005	0.00000E+000	1.81000E-001	-1.10261E-003	10	..........a	-327.74
	2688	26.89	1.86920E-001	2.57209E-005	0.00000E+000	1.88000E-001	-1.10761E-003	10	..........a	-327.74
	2695	26.96	1.93969E-001	2.55538E-005	0.00000E+000	1.95000E-001	-1.12094E-003	10	..........a	-327.74
	2702	27.03	2.00929E-001	2.52446E-005	0.00000E+000	2.02000E-001	-1.11761E-003	10	..........a	-327.74
	2709	27.1	2.07907E-001	2.50775E-005	0.00000E+000	2.09000E-001	-1.11761E-003	10	..........a	-327.74
	2716	27.17	2.14904E-001	2.48352E-005	0.00000E+000	2.16000E-001	-1.08594E-003	10	..........a	-327.74
	2723	27.24	2.21914E-001	2.43506E-005	0.00000E+000	2.23000E-001	-1.08761E-003	10	..........a	-327.74
	2730	27.31	2.28894E-001	2.39162E-005	0.00000E+000	2.30000E-001	-1.11594E-003	10	..........a	-327.74
	2737	27.38	2.35861E-001	2.32979E-005	0.00000E+000	2.37000E-001	-1.12594E-003	10	..........a	-327.74
	2744	27.45	2.42889E-001	2.35319E-005	0.00000E+000	2.44000E-001	-1.10594E-003	10	..........a	-327.74
	2751	27.52	2.49857E-001	2.29052E-005	0.00000E+000	2.51000E-001	-1.11094E-003	10	..........a	-327.74
	2758	27.59	2.56754E-001	2.25042E-005	0.00000E+000	2.58000E-001	-1.11094E-003	10	..........a	-327.74
	2765	27.66	2.63835E-001	2.17105E-005	0.00000E+000	2.65000E-001	-1.10094E-003	10	..........a	-327.74
	2772	27.73	2.70903E-001	2.18191E-005	0.00000E+000	2.72000E-001	-1.13427E-003	10	..........a	-327.74
	2779	27.8	2.77934E-001	2.15434E-005	0.00000E+000	2.79000E-001	-1.11094E-003	10	..........a	-327.74
	2786	27.87	2.84864E-001	2.08499E-005	0.00000E+000	2.86000E-001	-1.10594E-003	10	..........a	-327.74
	2793	27.94	2.91818E-001	2.06912E-005	0.00000E+000	2.93000E-001	-1.09594E-003	10	..........a	-327.74
	2800	28.01	2.98854E-001	2.04238E-005	0.00000E+000	3.00000E-001	-1.09927E-003	10	..........a	-327.74
	2807	28.08	3.05893E-001	2.03486E-005	0.00000E+000	3.07000E-001	-1.10261E-003	10	..........a	-327.74
	2814	28.15	3.12899E-001	1.99894E-005	0.00000E+000	3.14000E-001	-1.11427E-003	10	..........a	-327.74
	2821	28.22	3.19849E-001	1.95549E-005	0.00000E+000	3.21000E-001	-1.11261E-003	10	..........a	-327.74
	2828	28.29	3.26903E-001	1.95549E-005	0.00000E+000	3.28000E-001	-1.13427E-003	10	..........a	-327.74
	2835	28.36	3.33903E-001	1.94045E-005	0.00000E+000	3.35000E-001	-1.10594E-003	10	..........a	-327.74
	2842	28.43	3.40860E-001	1.94045E-005	0.00000E+000	3.42000E-001	-1.11427E-003	10	..........a	-327.74
	2849	28.5	3.47799E-001	1.91789E-005	0.00000E+000	3.49000E-001	-1.10094E-003	10	..........a	-327.74
	2856	28.57	3.54886E-001	1.92541E-005	0.00000E+000	3.56000E-001	-1.12594E-003	10	..........a	-327.74
	2863	28.64	3.61845E-001	1.94797E-005	0.00000E+000	3.63000E-001	-1.12094E-003	10	..........a	-327.74
	2870	28.71	3.68859E-001	1.84604E-005	0.00000E+000	3.70000E-001	-1.12261E-003	10	..........a	-327.74
	2877	28.78	3.75739E-001	1.90787E-005	0.00000E+000	3.77000E-001	-1.10761E-003	10	..........a	-327.74
	2884	28.85	3.82904E-001	1.86192E-005	0.00000E+000	3.84000E-001	-1.10927E-003	10	..........a	-327.74
	2891	28.92	3.89883E-001	1.84521E-005	0.00000E+000	3.91000E-001	-1.12261E-003	10	..........a	-327.74
	2898	28.99	3.96844E-001	1.83267E-005	0.00000E+000	3.98000E-001	-1.12594E-003	10	..........a	-327.74
	2905	29.06	4.03786E-001	1.84103E-005	0.00000E+000	4.05000E-001	-1.12094E-003	10	..........a	-327.74
	2912	29.13	4.10883E-001	1.82850E-005	0.00000E+000	4.12000E-001	-1.11427E-003	10	..........a	-327.74
	2919	29.2	4.17871E-001	1.81763E-005	0.00000E+000	4.19000E-001	-1.11261E-003	10	..........a	-327.74
	2926	29.27	4.24796E-001	1.82098E-005	0.00000E+000	4.26000E-001	-1.12094E-003	10	..........a	-327.74
	2933	29.34	4.31834E-001	1.81346E-005	0.00000E+000	4.33000E-001	-1.11761E-003	10	..........a	-327.74
	2940	29.41	4.38831E-001	1.81262E-005	0.00000E+000	4.40000E-001	-1.11927E-003	10	..........a	-327.74
	2947	29.48	4.45880E-001	1.81095E-005	0.00000E+000	4.47000E-001	-1.09761E-003	10	..........a	-327.74
	2954	29.55	4.52603E-001	1.80594E-005	0.00000E+000	4.54000E-001	-1.11594E-003	10	..........a	-327.74
	2961	29.62	4.59818E-001	1.80928E-005	0.00000E+000	4.61000E-001	-1.11594E-003	10	..........a	-327.74
	2968	29.69	4.66881E-001	1.80510E-005	0.00000E+000	4.68000E-001	-1.11761E-003	10	..........a	-327.74
	2975	29.76	4.73918E-001	1.80594E-005	0.00000E+000	4.75000E-001	-1.11261E-003	10	..........a	-327.74
	2982	29.83	4.80716E-001	1.79925E-005	0.00000E+000	4.82000E-001	-1.12094E-003	10	..........a	-327.74
	2989	29.9	4.87804E-001	1.79675E-005	0.00000E+000	4.89000E-001	-1.12427E-003	10	..........a	-327.74
	2996	29.97	4.94854E-001	1.79006E-005	0.00000E+000	4.96000E-001	-1.11427E-003	10	..........a	-327.74
	3000	30.01	4.98832E-001	1.78338E-005	0.00000E+000	5.00000E-001	-1.11594E-003	10	..........a	-327.74
CURVE2	TABLE
	Pt	T	Vf	Im	Vu	Sig	Ach	IERange	Over	Temp
	#	s	V vs. Ref.	A	V	V	V	#	bits	deg C
	3001	30.02	4.98839E-001	1.76583E-005	0.00000E+000	5.00000E-001	-1.12761E-003	10	..........a	-327.74