File: data/02-SI/Figures_S9_S11_RDE/14btmapaq-rde/1mkcl-5mmolar14btmapaq-nitrogen-1000mvpers.DTA
EXPLAIN
TAG	CV
TITLE	LABEL	Cyclic Voltammetry	Test &Identifier
DATE	LABEL	1/31/2023	Date
TIME	LABEL	14:04:23	Time
NOTES	NOTES	1	&Notes...

PSTAT	PSTAT	REF3000-21108	Potentiostat
VINIT	POTEN	5.00000E-001	F	Initial &E (V)
VLIMIT1	POTEN	-1.00000E+000	F	Scan Limit &1 (V)
VLIMIT2	POTEN	5.00000E-001	F	Scan Limit &2 (V)
VFINAL	POTEN	5.00000E-001	F	Final &E (V)
SCANRATE	QUANT	9.99998E+002	&Scan Rate (mV/s)
STEPSIZE	QUANT	1.00000E+000	St&ep Size (mV)
CYCLES	IQUANT	1	C&ycles (#)
IMODE	SELECTOR	1	I/E Range &Mode
IRANGE	QUANT	1.00000E+001	&Max Current (mA)
AREA	QUANT	1.00000E+000	Electrode &Area (cm^2)
ELECTRODETYPE	SELECTOR	0	Electrode Type
STRIPPING	TOGGLE	F	Used for Stripping
POLARITY	TOGGLE	F	Signal Polarity
CONDIT	TWOPARAM	F	1.50000E+001	0.00000E+000	Conditionin&g	Time(s)	E(V)
DELAY	TWOPARAM	F	5.00000E+000	0.00000E+000	Init. De&lay	Time(s)	Stab.(mV/s)
EQDELAY	QUANT	0.00000E+000	Equil. &Time (s)
IRCOMP	SELECTOR	0	IRCom&p
PFCOR	QUANT	5.00000E+001	PF Corr. (ohm)
SAMPLINGMODE	SELECTOR	1	Sampling &Mode
EOC	QUANT	0	Open Circuit (V)
PSTATMODEL	IQUANT	5	Pstat Model
PSTATSECTION	LABEL	REF3000-21108	Pstat Section
PSTATSERIALNO	LABEL	21108	Pstat Serial Number
CTRLMODE	IQUANT	1	Control Mode
ELECTROMETER	IQUANT	0	RE=0 or CS=1
IESTAB	IQUANT	2	I/E Stability
CASPEED	IQUANT	4	Control Amp Speed
CONVENTION	IQUANT	1	Current Convention
ICHRANGE	IQUANT	2	Ich Range
ICHRANGEMODE	TOGGLE	F	Ich Auto Range
ICHOFFSETENABLE	TOGGLE	F	Ich Offset Enable
ICHOFFSET	QUANT	0	Ich Offset (V)
ICHFILTER	IQUANT	1	Ich Filter
VCHRANGE	IQUANT	2	Vch Range
VCHRANGEMODE	TOGGLE	F	Vch Auto Range
VCHOFFSETENABLE	TOGGLE	F	Vch Offset Enable
VCHOFFSET	QUANT	0	Vch Offset (V)
VCHFILTER	IQUANT	1	Vch Filter
ACHRANGE	IQUANT	2	Ach Range
ACHOFFSETENABLE	TOGGLE	F	Ach Offset Enable
ACHOFFSET	QUANT	0	Ach Offset (V)
ACHFILTER	IQUANT	0	Ach Filter
IERANGELOWERLIMIT	IQUANT	2	I/E Range Lower Limit
IERANGEMODE	TOGGLE	F	I/E AutoRange
IERANGE	IQUANT	10	I/E Range
POSFEEDENABLE	TOGGLE	F	Positive Feedback IR Comp
POSFEEDRESISTANCE	QUANT	0	Positive Feedback Resistance (ohm)
ACHSELECT	IQUANT	0	Ach Select
SENSECABLEID	IQUANT	14	Sense Cable ID
PWRCABLEID	IQUANT	7	Power Cable ID
DCCALDATE	LABEL	11/9/2022	DC Calibration Date
ACCALDATE	LABEL	11/9/2022	AC Calibration Date
THERMOSELECT	IQUANT	1	Thermo Select
FRAMEWORKVERSION	LABEL	7.8.2	Framework Version
INSTRUMENTVERSION	LABEL	4.40	Instrument Version
COMPLIANCEVOLTAGE	IQUANT	0	Compliance Voltage
CURVE1	TABLE
	Pt	T	Vf	Im	Vu	Sig	Ach	IERange	Over	Temp
	#	s	V vs. Ref.	A	V	V	V	#	bits	deg C
	0	0.001	4.98616E-001	9.12010E-005	0.00000E+000	5.00000E-001	-8.62605E-004	10	..........a	-327.74
	7	0.008	4.91599E-001	7.49088E-005	0.00000E+000	4.93000E-001	-1.04594E-003	10	..........a	-327.74
	14	0.015	4.84641E-001	6.62197E-005	0.00000E+000	4.86000E-001	-9.62605E-004	10	..........a	-327.74
	21	0.022	4.77699E-001	5.94522E-005	0.00000E+000	4.79000E-001	-8.45939E-004	10	..........a	-327.74
	28	0.029	4.70674E-001	5.25176E-005	0.00000E+000	4.72000E-001	-7.95939E-004	10	..........a	-327.74
	35	0.036	4.63566E-001	5.05959E-005	0.00000E+000	4.65000E-001	-9.79272E-004	10	..........a	-327.74
	42	0.043	4.56666E-001	4.68362E-005	0.00000E+000	4.58000E-001	-1.07927E-003	10	..........a	-327.74
	49	0.05	4.49566E-001	4.21574E-005	0.00000E+000	4.51000E-001	-9.12605E-004	10	..........a	-327.74
	56	0.057	4.42666E-001	3.89826E-005	0.00000E+000	4.44000E-001	-9.12605E-004	10	..........a	-327.74
	63	0.064	4.35641E-001	3.77293E-005	0.00000E+000	4.37000E-001	-7.95939E-004	10	..........a	-327.74
	70	0.071	4.28549E-001	3.68938E-005	0.00000E+000	4.30000E-001	-9.79272E-004	10	..........a	-327.74
	77	0.078	4.21749E-001	3.27163E-005	0.00000E+000	4.23000E-001	-8.45939E-004	10	..........a	-327.74
	84	0.085	4.14624E-001	3.21315E-005	0.00000E+000	4.16000E-001	-7.95939E-004	10	..........a	-327.74
	91	0.092	4.07733E-001	2.77034E-005	0.00000E+000	4.09000E-001	-7.79272E-004	10	..........a	-327.74
	98	0.099	4.00691E-001	2.74527E-005	0.00000E+000	4.02000E-001	-9.62605E-004	10	..........a	-327.74
	105	0.106	3.93641E-001	2.63666E-005	0.00000E+000	3.95000E-001	-8.62605E-004	10	..........a	-327.74
	112	0.113	3.86733E-001	2.53640E-005	0.00000E+000	3.88000E-001	-9.62605E-004	10	..........a	-327.74
	119	0.12	3.79708E-001	2.38601E-005	0.00000E+000	3.81000E-001	-8.62605E-004	10	..........a	-327.74
	126	0.127	3.72683E-001	2.26069E-005	0.00000E+000	3.74000E-001	-8.29272E-004	10	..........a	-327.74
	133	0.134	3.65691E-001	1.99333E-005	0.00000E+000	3.67000E-001	-9.29272E-004	10	..........a	-327.74
	140	0.141	3.58658E-001	2.11030E-005	0.00000E+000	3.60000E-001	-9.95939E-004	10	..........a	-327.74
	147	0.148	3.51641E-001	1.90978E-005	0.00000E+000	3.53000E-001	-9.29272E-004	10	..........a	-327.74
	154	0.155	3.44741E-001	1.77610E-005	0.00000E+000	3.46000E-001	-9.45939E-004	10	..........a	-327.74
	161	0.162	3.37624E-001	1.71761E-005	0.00000E+000	3.39000E-001	-9.62605E-004	10	..........a	-327.74
	168	0.169	3.30749E-001	1.49203E-005	0.00000E+000	3.32000E-001	-1.09594E-003	10	..........a	-327.74
	175	0.176	3.23724E-001	1.37506E-005	0.00000E+000	3.25000E-001	-8.12605E-004	10	..........a	-327.74
	182	0.183	3.16608E-001	1.17454E-005	0.00000E+000	3.18000E-001	-7.79272E-004	10	..........a	-327.74
	189	0.19	3.09658E-001	1.14948E-005	0.00000E+000	3.11000E-001	-8.62605E-004	10	..........a	-327.74
	196	0.197	3.02774E-001	1.08264E-005	0.00000E+000	3.04000E-001	-8.29272E-004	10	..........a	-327.74
	203	0.204	2.95733E-001	9.99088E-006	0.00000E+000	2.97000E-001	-8.12605E-004	10	..........a	-327.74
	210	0.211	2.88624E-001	1.09099E-005	0.00000E+000	2.90000E-001	-9.45939E-004	10	..........a	-327.74
	217	0.218	2.81749E-001	8.65409E-006	0.00000E+000	2.83000E-001	-8.62605E-004	10	..........a	-327.74
	224	0.225	2.74774E-001	7.40085E-006	0.00000E+000	2.76000E-001	-9.95939E-004	10	..........a	-327.74
	231	0.232	2.67791E-001	7.81860E-006	0.00000E+000	2.69000E-001	-7.95939E-004	10	..........a	-327.74
	238	0.239	2.60708E-001	7.23375E-006	0.00000E+000	2.62000E-001	-8.29272E-004	10	..........a	-327.74
	245	0.246	2.53733E-001	5.22856E-006	0.00000E+000	2.55000E-001	-7.79272E-004	10	..........a	-327.74
	252	0.253	2.46833E-001	5.14501E-006	0.00000E+000	2.48000E-001	-7.45939E-004	10	..........a	-327.74
	259	0.26	2.39691E-001	5.22856E-006	0.00000E+000	2.41000E-001	-8.45939E-004	10	..........a	-327.74
	266	0.267	2.32666E-001	1.46883E-006	0.00000E+000	2.34000E-001	-8.95939E-004	10	..........a	-327.74
	273	0.274	2.25708E-001	3.22337E-006	0.00000E+000	2.27000E-001	-9.45939E-004	10	..........a	-327.74
	280	0.281	2.18758E-001	1.21819E-006	0.00000E+000	2.20000E-001	-7.95939E-004	10	..........a	-327.74
	287	0.288	2.11699E-001	2.30433E-006	0.00000E+000	2.13000E-001	-8.62605E-004	10	..........a	-327.74
	294	0.295	2.04733E-001	1.63593E-006	0.00000E+000	2.06000E-001	-9.45939E-004	10	..........a	-327.74
	301	0.302	1.97841E-001	5.49789E-007	0.00000E+000	1.99000E-001	-8.45939E-004	10	..........a	-327.74
	308	0.309	1.90808E-001	-2.85706E-007	0.00000E+000	1.92000E-001	-7.79272E-004	10	..........a	-327.74
	315	0.316	1.83708E-001	2.99141E-007	0.00000E+000	1.85000E-001	-8.45939E-004	10	..........a	-327.74
	322	0.323	1.76791E-001	-8.70553E-007	0.00000E+000	1.78000E-001	-9.45939E-004	10	..........a	-327.74
	329	0.33	1.69658E-001	-1.20475E-006	0.00000E+000	1.71000E-001	-8.79272E-004	10	..........a	-327.74
	336	0.337	1.62791E-001	-2.87574E-006	0.00000E+000	1.64000E-001	-8.12605E-004	10	..........a	-327.74
	343	0.344	1.55716E-001	-3.20994E-006	0.00000E+000	1.57000E-001	-9.12605E-004	10	..........a	-327.74
	350	0.351	1.48708E-001	-4.29608E-006	0.00000E+000	1.50000E-001	-9.29272E-004	10	..........a	-327.74
	357	0.358	1.41849E-001	-3.46059E-006	0.00000E+000	1.43000E-001	-1.06261E-003	10	..........a	-327.74
	364	0.365	1.34799E-001	-4.88093E-006	0.00000E+000	1.36000E-001	-6.62606E-004	10	..........a	-327.74
	371	0.372	1.27766E-001	-5.79997E-006	0.00000E+000	1.29000E-001	-9.95939E-004	10	..........a	-327.74
	378	0.379	1.20766E-001	-4.46318E-006	0.00000E+000	1.22000E-001	-7.45939E-004	10	..........a	-327.74
	385	0.386	1.13799E-001	-5.88352E-006	0.00000E+000	1.15000E-001	-8.62605E-004	10	..........a	-327.74
	392	0.393	1.06774E-001	-6.80257E-006	0.00000E+000	1.08000E-001	-8.95939E-004	10	..........a	-327.74
	399	0.4	9.98327E-002	-8.97485E-006	0.00000E+000	1.01000E-001	-5.45939E-004	10	..........a	-327.74
	406	0.407	9.28160E-002	-7.80516E-006	0.00000E+000	9.40000E-002	-8.29272E-004	10	..........a	-327.74
	413	0.414	8.57077E-002	-8.05581E-006	0.00000E+000	8.70000E-002	-8.62605E-004	10	..........a	-327.74
	420	0.421	7.87660E-002	-1.09800E-005	0.00000E+000	8.00000E-002	-7.12606E-004	10	..........a	-327.74
	427	0.428	7.17660E-002	-9.05840E-006	0.00000E+000	7.30000E-002	-7.79272E-004	10	..........a	-327.74
	434	0.435	6.48160E-002	-9.81035E-006	0.00000E+000	6.60000E-002	-8.79272E-004	10	..........a	-327.74
	441	0.442	5.77993E-002	-1.06458E-005	0.00000E+000	5.90000E-002	-8.29272E-004	10	..........a	-327.74
	448	0.449	5.08327E-002	-1.10636E-005	0.00000E+000	5.20000E-002	-7.45939E-004	10	..........a	-327.74
	455	0.456	4.37660E-002	-1.08965E-005	0.00000E+000	4.50000E-002	-8.79272E-004	10	..........a	-327.74
	462	0.463	3.68243E-002	-1.13978E-005	0.00000E+000	3.80000E-002	-8.12605E-004	10	..........a	-327.74
	469	0.47	2.97993E-002	-1.20662E-005	0.00000E+000	3.10000E-002	-9.45939E-004	10	..........a	-327.74
	476	0.477	2.27577E-002	-1.19826E-005	0.00000E+000	2.40000E-002	-1.02927E-003	10	..........a	-327.74
	483	0.484	1.58327E-002	-1.22333E-005	0.00000E+000	1.70000E-002	-8.12605E-004	10	..........a	-327.74
	490	0.491	8.81600E-003	-1.23168E-005	0.00000E+000	9.99999E-003	-9.62605E-004	10	..........a	-327.74
	497	0.498	1.84100E-003	-1.45727E-005	0.00000E+000	2.99999E-003	-8.29272E-004	10	..........a	-327.74
	504	0.505	-5.19233E-003	-1.51575E-005	0.00000E+000	-4.00001E-003	-7.62605E-004	10	..........a	-327.74
	511	0.512	-1.22257E-002	-1.44056E-005	0.00000E+000	-1.10000E-002	-7.95939E-004	10	..........a	-327.74
	518	0.519	-1.91840E-002	-1.68285E-005	0.00000E+000	-1.80000E-002	-8.79272E-004	10	..........a	-327.74
	525	0.526	-2.61340E-002	-1.55753E-005	0.00000E+000	-2.50000E-002	-9.62605E-004	10	..........a	-327.74
	532	0.533	-3.31257E-002	-1.59930E-005	0.00000E+000	-3.20000E-002	-7.79272E-004	10	..........a	-327.74
	539	0.54	-4.02340E-002	-1.63272E-005	0.00000E+000	-3.90000E-002	-8.95939E-004	10	..........a	-327.74
	546	0.547	-4.71923E-002	-1.82488E-005	0.00000E+000	-4.60000E-002	-7.95939E-004	10	..........a	-327.74
	553	0.554	-5.41507E-002	-1.65779E-005	0.00000E+000	-5.30000E-002	-8.62605E-004	10	..........a	-327.74
	560	0.561	-6.12090E-002	-1.70792E-005	0.00000E+000	-6.00000E-002	-8.29272E-004	10	..........a	-327.74
	567	0.568	-6.80923E-002	-1.80817E-005	0.00000E+000	-6.70000E-002	-8.62605E-004	10	..........a	-327.74
	574	0.575	-7.51673E-002	-1.75805E-005	0.00000E+000	-7.40000E-002	-8.62605E-004	10	..........a	-327.74
	581	0.582	-8.21423E-002	-1.81653E-005	0.00000E+000	-8.10000E-002	-8.12605E-004	10	..........a	-327.74
	588	0.589	-8.91257E-002	-1.84995E-005	0.00000E+000	-8.80000E-002	-7.95939E-004	10	..........a	-327.74
	595	0.596	-9.61507E-002	-1.80817E-005	0.00000E+000	-9.50000E-002	-9.12605E-004	10	..........a	-327.74
	602	0.603	-1.03126E-001	-1.87501E-005	0.00000E+000	-1.02000E-001	-8.95939E-004	10	..........a	-327.74
	609	0.61	-1.10126E-001	-1.75805E-005	0.00000E+000	-1.09000E-001	-7.45939E-004	10	..........a	-327.74
	616	0.617	-1.17159E-001	-1.77476E-005	0.00000E+000	-1.16000E-001	-8.45939E-004	10	..........a	-327.74
	623	0.624	-1.24126E-001	-1.90843E-005	0.00000E+000	-1.23000E-001	-8.95939E-004	10	..........a	-327.74
	630	0.631	-1.31109E-001	-1.93350E-005	0.00000E+000	-1.30000E-001	-8.62605E-004	10	..........a	-327.74
	637	0.638	-1.38042E-001	-2.03376E-005	0.00000E+000	-1.37000E-001	-7.45939E-004	10	..........a	-327.74
	644	0.645	-1.45167E-001	-1.74969E-005	0.00000E+000	-1.44000E-001	-8.79272E-004	10	..........a	-327.74
	651	0.652	-1.52142E-001	-1.95856E-005	0.00000E+000	-1.51000E-001	-7.29272E-004	10	..........a	-327.74
	658	0.659	-1.59034E-001	-1.94185E-005	0.00000E+000	-1.58000E-001	-7.62605E-004	10	..........a	-327.74
	665	0.666	-1.66067E-001	-1.89172E-005	0.00000E+000	-1.65000E-001	-8.79272E-004	10	..........a	-327.74
	672	0.673	-1.73076E-001	-1.95021E-005	0.00000E+000	-1.72000E-001	-8.45939E-004	10	..........a	-327.74
	679	0.68	-1.80084E-001	-2.03376E-005	0.00000E+000	-1.79000E-001	-8.45939E-004	10	..........a	-327.74
	686	0.687	-1.87176E-001	-2.07553E-005	0.00000E+000	-1.86000E-001	-8.79272E-004	10	..........a	-327.74
	693	0.694	-1.94059E-001	-2.05882E-005	0.00000E+000	-1.93000E-001	-6.62606E-004	10	..........a	-327.74
	700	0.701	-2.01159E-001	-2.15908E-005	0.00000E+000	-2.00000E-001	-8.29272E-004	10	..........a	-327.74
	707	0.708	-2.08076E-001	-2.20086E-005	0.00000E+000	-2.07000E-001	-9.12605E-004	10	..........a	-327.74
	714	0.715	-2.14976E-001	-2.12566E-005	0.00000E+000	-2.14000E-001	-7.79272E-004	10	..........a	-327.74
	721	0.722	-2.21984E-001	-2.39302E-005	0.00000E+000	-2.21000E-001	-6.79272E-004	10	..........a	-327.74
	728	0.729	-2.29159E-001	-2.25934E-005	0.00000E+000	-2.28000E-001	-8.95939E-004	10	..........a	-327.74
	735	0.736	-2.36109E-001	-2.31783E-005	0.00000E+000	-2.35000E-001	-9.62605E-004	10	..........a	-327.74
	742	0.743	-2.43126E-001	-2.47657E-005	0.00000E+000	-2.42000E-001	-8.79272E-004	10	..........a	-327.74
	749	0.75	-2.50009E-001	-2.54341E-005	0.00000E+000	-2.49000E-001	-6.79272E-004	10	..........a	-327.74
	756	0.757	-2.57159E-001	-2.52670E-005	0.00000E+000	-2.56000E-001	-8.79272E-004	10	..........a	-327.74
	763	0.764	-2.64042E-001	-2.79406E-005	0.00000E+000	-2.63000E-001	-8.12605E-004	10	..........a	-327.74
	770	0.771	-2.71134E-001	-2.50164E-005	0.00000E+000	-2.70000E-001	-9.29272E-004	10	..........a	-327.74
	777	0.778	-2.78092E-001	-2.69380E-005	0.00000E+000	-2.77000E-001	-9.12605E-004	10	..........a	-327.74
	784	0.785	-2.85076E-001	-2.97787E-005	0.00000E+000	-2.84000E-001	-8.95939E-004	10	..........a	-327.74
	791	0.792	-2.92067E-001	-2.92774E-005	0.00000E+000	-2.91000E-001	-1.01261E-003	10	..........a	-327.74
	798	0.799	-2.99017E-001	-3.17003E-005	0.00000E+000	-2.98000E-001	-7.79272E-004	10	..........a	-327.74
	805	0.806	-3.06126E-001	-3.24523E-005	0.00000E+000	-3.05000E-001	-9.95939E-004	10	..........a	-327.74
	812	0.813	-3.12992E-001	-3.50423E-005	0.00000E+000	-3.12000E-001	-7.79272E-004	10	..........a	-327.74
	819	0.82	-3.20109E-001	-3.42068E-005	0.00000E+000	-3.19000E-001	-8.45939E-004	10	..........a	-327.74
	826	0.827	-3.27017E-001	-3.64626E-005	0.00000E+000	-3.26000E-001	-7.62605E-004	10	..........a	-327.74
	833	0.834	-3.34042E-001	-3.70475E-005	0.00000E+000	-3.33000E-001	-6.62606E-004	10	..........a	-327.74
	840	0.841	-3.41217E-001	-3.96375E-005	0.00000E+000	-3.40000E-001	-8.79272E-004	10	..........a	-327.74
	847	0.848	-3.48042E-001	-3.99717E-005	0.00000E+000	-3.47000E-001	-7.29272E-004	10	..........a	-327.74
	854	0.855	-3.55067E-001	-4.15592E-005	0.00000E+000	-3.54000E-001	-1.01261E-003	10	..........a	-327.74
	861	0.862	-3.62067E-001	-4.40656E-005	0.00000E+000	-3.61000E-001	-8.79272E-004	10	..........a	-327.74
	868	0.869	-3.69084E-001	-4.52353E-005	0.00000E+000	-3.68000E-001	-7.45939E-004	10	..........a	-327.74
	875	0.876	-3.75992E-001	-4.99977E-005	0.00000E+000	-3.75000E-001	-8.45939E-004	10	..........a	-327.74
	882	0.883	-3.83026E-001	-5.25041E-005	0.00000E+000	-3.82000E-001	-8.95939E-004	10	..........a	-327.74
	889	0.89	-3.90067E-001	-5.53448E-005	0.00000E+000	-3.89000E-001	-8.62605E-004	10	..........a	-327.74
	896	0.897	-3.97017E-001	-6.12768E-005	0.00000E+000	-3.96000E-001	-7.45939E-004	10	..........a	-327.74
	903	0.904	-4.04009E-001	-6.72924E-005	0.00000E+000	-4.03000E-001	-7.62605E-004	10	..........a	-327.74
	910	0.911	-4.11159E-001	-7.30573E-005	0.00000E+000	-4.10000E-001	-8.62605E-004	10	..........a	-327.74
	917	0.918	-4.18001E-001	-8.20807E-005	0.00000E+000	-4.17000E-001	-7.95939E-004	10	..........a	-327.74
	924	0.925	-4.25001E-001	-9.32763E-005	0.00000E+000	-4.24000E-001	-6.95939E-004	10	..........a	-327.74
	931	0.932	-4.32034E-001	-1.05892E-004	0.00000E+000	-4.31000E-001	-7.45939E-004	10	..........a	-327.74
	938	0.939	-4.38976E-001	-1.21600E-004	0.00000E+000	-4.38000E-001	-9.12605E-004	10	..........a	-327.74
	945	0.946	-4.46001E-001	-1.41150E-004	0.00000E+000	-4.45000E-001	-1.02927E-003	10	..........a	-327.74
	952	0.953	-4.52967E-001	-1.65129E-004	0.00000E+000	-4.52000E-001	-8.12605E-004	10	..........a	-327.74
	959	0.96	-4.59926E-001	-1.88021E-004	0.00000E+000	-4.59000E-001	-7.79272E-004	10	..........a	-327.74
	966	0.967	-4.67092E-001	-2.15426E-004	0.00000E+000	-4.66000E-001	-9.29272E-004	10	..........a	-327.74
	973	0.974	-4.73934E-001	-2.45002E-004	0.00000E+000	-4.73000E-001	-7.45939E-004	10	..........a	-327.74
	980	0.981	-4.81001E-001	-2.75916E-004	0.00000E+000	-4.80000E-001	-8.29272E-004	10	..........a	-327.74
	987	0.988	-4.88026E-001	-3.08500E-004	0.00000E+000	-4.87000E-001	-9.45939E-004	10	..........a	-327.74
	994	0.995	-4.95092E-001	-3.43256E-004	0.00000E+000	-4.94000E-001	-9.95939E-004	10	..........a	-327.74
	1001	1.002	-5.01926E-001	-3.82358E-004	0.00000E+000	-5.01000E-001	-8.12605E-004	10	..........a	-327.74
	1008	1.009	-5.08967E-001	-4.25135E-004	0.00000E+000	-5.08000E-001	-7.29272E-004	10	..........a	-327.74
	1015	1.016	-5.15934E-001	-4.73510E-004	0.00000E+000	-5.15000E-001	-7.29272E-004	10	..........a	-327.74
	1022	1.023	-5.22976E-001	-5.26313E-004	0.00000E+000	-5.22000E-001	-7.29272E-004	10	..........a	-327.74
	1029	1.03	-5.29976E-001	-5.85299E-004	0.00000E+000	-5.29000E-001	-8.29272E-004	10	..........a	-327.74
	1036	1.037	-5.36876E-001	-6.47293E-004	0.00000E+000	-5.36000E-001	-7.29272E-004	10	..........a	-327.74
	1043	1.044	-5.44042E-001	-7.11710E-004	0.00000E+000	-5.43000E-001	-1.01261E-003	10	..........a	-327.74
	1050	1.051	-5.50909E-001	-7.78466E-004	0.00000E+000	-5.50000E-001	-9.12605E-004	10	..........a	-327.74
	1057	1.058	-5.57976E-001	-8.38956E-004	0.00000E+000	-5.57000E-001	-7.79272E-004	10	..........a	-327.74
	1064	1.065	-5.64942E-001	-8.95602E-004	0.00000E+000	-5.64000E-001	-9.29272E-004	10	..........a	-327.74
	1071	1.072	-5.71926E-001	-9.43727E-004	0.00000E+000	-5.71000E-001	-7.45939E-004	10	..........a	-327.74
	1078	1.079	-5.78926E-001	-9.77648E-004	0.00000E+000	-5.78000E-001	-7.79272E-004	10	..........a	-327.74
	1085	1.086	-5.85992E-001	-9.91935E-004	0.00000E+000	-5.85000E-001	-8.12605E-004	10	..........a	-327.74
	1092	1.093	-5.92951E-001	-9.92102E-004	0.00000E+000	-5.92000E-001	-8.79272E-004	10	..........a	-327.74
	1099	1.1	-5.99884E-001	-9.77063E-004	0.00000E+000	-5.99000E-001	-8.29272E-004	10	..........a	-327.74
	1106	1.107	-6.06851E-001	-9.45481E-004	0.00000E+000	-6.06000E-001	-8.62605E-004	10	..........a	-327.74
	1113	1.114	-6.14001E-001	-9.07132E-004	0.00000E+000	-6.13000E-001	-9.29272E-004	10	..........a	-327.74
	1120	1.121	-6.20842E-001	-8.67195E-004	0.00000E+000	-6.20000E-001	-9.79272E-004	10	..........a	-327.74
	1127	1.128	-6.27892E-001	-8.26841E-004	0.00000E+000	-6.27000E-001	-9.79272E-004	10	..........a	-327.74
	1134	1.135	-6.34959E-001	-7.90079E-004	0.00000E+000	-6.34000E-001	-8.62605E-004	10	..........a	-327.74
	1141	1.142	-6.41917E-001	-7.56576E-004	0.00000E+000	-6.41000E-001	-8.95939E-004	10	..........a	-327.74
	1148	1.149	-6.48892E-001	-7.28169E-004	0.00000E+000	-6.48000E-001	-9.95939E-004	10	..........a	-327.74
	1155	1.156	-6.55967E-001	-7.01517E-004	0.00000E+000	-6.55000E-001	-8.62605E-004	10	..........a	-327.74
	1162	1.163	-6.62842E-001	-6.80796E-004	0.00000E+000	-6.62000E-001	-7.95939E-004	10	..........a	-327.74
	1169	1.17	-6.69951E-001	-6.58656E-004	0.00000E+000	-6.69000E-001	-9.45939E-004	10	..........a	-327.74
	1176	1.177	-6.76884E-001	-6.39774E-004	0.00000E+000	-6.76000E-001	-6.95939E-004	10	..........a	-327.74
	1183	1.184	-6.83951E-001	-6.22562E-004	0.00000E+000	-6.83000E-001	-9.45939E-004	10	..........a	-327.74
	1190	1.191	-6.90951E-001	-6.05936E-004	0.00000E+000	-6.90000E-001	-8.12605E-004	10	..........a	-327.74
	1197	1.198	-6.97876E-001	-5.89059E-004	0.00000E+000	-6.97000E-001	-8.29272E-004	10	..........a	-327.74
	1204	1.205	-7.04984E-001	-5.73853E-004	0.00000E+000	-7.04000E-001	-9.45939E-004	10	..........a	-327.74
	1211	1.212	-7.11917E-001	-5.60736E-004	0.00000E+000	-7.11000E-001	-9.12605E-004	10	..........a	-327.74
	1218	1.219	-7.18842E-001	-5.46699E-004	0.00000E+000	-7.18000E-001	-6.45939E-004	10	..........a	-327.74
	1225	1.226	-7.25892E-001	-5.34334E-004	0.00000E+000	-7.25000E-001	-9.79272E-004	10	..........a	-327.74
	1232	1.233	-7.32867E-001	-5.22303E-004	0.00000E+000	-7.32000E-001	-8.29272E-004	10	..........a	-327.74
	1239	1.24	-7.39917E-001	-5.09436E-004	0.00000E+000	-7.39000E-001	-9.95939E-004	10	..........a	-327.74
	1246	1.247	-7.46934E-001	-4.99828E-004	0.00000E+000	-7.46000E-001	-8.45939E-004	10	..........a	-327.74
	1253	1.254	-7.53951E-001	-4.88716E-004	0.00000E+000	-7.53000E-001	-7.95939E-004	10	..........a	-327.74
	1260	1.261	-7.60884E-001	-4.79191E-004	0.00000E+000	-7.60000E-001	-8.12605E-004	10	..........a	-327.74
	1267	1.268	-7.67876E-001	-4.70335E-004	0.00000E+000	-7.67000E-001	-8.95939E-004	10	..........a	-327.74
	1274	1.275	-7.74859E-001	-4.61730E-004	0.00000E+000	-7.74000E-001	-8.29272E-004	10	..........a	-327.74
	1281	1.282	-7.81909E-001	-4.51954E-004	0.00000E+000	-7.81000E-001	-1.01261E-003	10	..........a	-327.74
	1288	1.289	-7.88959E-001	-4.44769E-004	0.00000E+000	-7.88000E-001	-9.45939E-004	10	..........a	-327.74
	1295	1.296	-7.95826E-001	-4.37082E-004	0.00000E+000	-7.95000E-001	-9.29272E-004	10	..........a	-327.74
	1302	1.303	-8.02851E-001	-4.29647E-004	0.00000E+000	-8.02000E-001	-7.62605E-004	10	..........a	-327.74
	1309	1.31	-8.09859E-001	-4.23130E-004	0.00000E+000	-8.09000E-001	-7.12606E-004	10	..........a	-327.74
	1316	1.317	-8.16909E-001	-4.16529E-004	0.00000E+000	-8.16000E-001	-1.04594E-003	10	..........a	-327.74
	1323	1.324	-8.23767E-001	-4.09762E-004	0.00000E+000	-8.23000E-001	-1.02927E-003	10	..........a	-327.74
	1330	1.331	-8.30792E-001	-4.05250E-004	0.00000E+000	-8.30000E-001	-8.45939E-004	10	..........a	-327.74
	1337	1.338	-8.37776E-001	-3.99151E-004	0.00000E+000	-8.37000E-001	-7.62605E-004	10	..........a	-327.74
	1344	1.345	-8.44859E-001	-3.92968E-004	0.00000E+000	-8.44000E-001	-8.95939E-004	10	..........a	-327.74
	1351	1.352	-8.51717E-001	-3.87872E-004	0.00000E+000	-8.51000E-001	-8.29272E-004	10	..........a	-327.74
	1358	1.359	-8.58801E-001	-3.81773E-004	0.00000E+000	-8.58000E-001	-7.79272E-004	10	..........a	-327.74
	1365	1.366	-8.65726E-001	-3.76760E-004	0.00000E+000	-8.65000E-001	-6.62606E-004	10	..........a	-327.74
	1372	1.373	-8.72776E-001	-3.72499E-004	0.00000E+000	-8.72000E-001	-9.62605E-004	10	..........a	-327.74
	1379	1.38	-8.79809E-001	-3.69909E-004	0.00000E+000	-8.79000E-001	-8.79272E-004	10	..........a	-327.74
	1386	1.387	-8.86776E-001	-3.63893E-004	0.00000E+000	-8.86000E-001	-8.79272E-004	10	..........a	-327.74
	1393	1.394	-8.93809E-001	-3.60468E-004	0.00000E+000	-8.93000E-001	-7.79272E-004	10	..........a	-327.74
	1400	1.401	-9.00742E-001	-3.54870E-004	0.00000E+000	-9.00000E-001	-9.95939E-004	10	..........a	-327.74
	1407	1.408	-9.07676E-001	-3.50776E-004	0.00000E+000	-9.07000E-001	-8.29272E-004	10	..........a	-327.74
	1414	1.415	-9.14834E-001	-3.48520E-004	0.00000E+000	-9.14000E-001	-9.29272E-004	10	..........a	-327.74
	1421	1.422	-9.21776E-001	-3.44259E-004	0.00000E+000	-9.21000E-001	-9.12605E-004	10	..........a	-327.74
	1428	1.429	-9.28767E-001	-3.41084E-004	0.00000E+000	-9.28000E-001	-7.79272E-004	10	..........a	-327.74
	1435	1.436	-9.35751E-001	-3.39246E-004	0.00000E+000	-9.35000E-001	-9.29272E-004	10	..........a	-327.74
	1442	1.443	-9.42759E-001	-3.35069E-004	0.00000E+000	-9.42000E-001	-8.29272E-004	10	..........a	-327.74
	1449	1.45	-9.49742E-001	-3.32896E-004	0.00000E+000	-9.49000E-001	-8.45939E-004	10	..........a	-327.74
	1456	1.457	-9.56826E-001	-3.30557E-004	0.00000E+000	-9.56000E-001	-8.95939E-004	10	..........a	-327.74
	1463	1.464	-9.63776E-001	-3.27382E-004	0.00000E+000	-9.63000E-001	-7.45939E-004	10	..........a	-327.74
	1470	1.471	-9.70726E-001	-3.24374E-004	0.00000E+000	-9.70000E-001	-7.45939E-004	10	..........a	-327.74
	1477	1.478	-9.77751E-001	-3.22954E-004	0.00000E+000	-9.77000E-001	-7.29272E-004	10	..........a	-327.74
	1484	1.485	-9.84801E-001	-3.19111E-004	0.00000E+000	-9.84000E-001	-8.45939E-004	10	..........a	-327.74
	1491	1.492	-9.91734E-001	-3.16938E-004	0.00000E+000	-9.91000E-001	-7.62605E-004	10	..........a	-327.74
	1498	1.499	-9.98701E-001	-3.14850E-004	0.00000E+000	-9.98000E-001	-7.95939E-004	10	..........a	-327.74
	1505	1.506	-9.95651E-001	-2.92709E-004	0.00000E+000	-9.95000E-001	-7.95939E-004	10	..........a	-327.74
	1512	1.513	-9.88767E-001	-2.80427E-004	0.00000E+000	-9.88000E-001	-7.79272E-004	10	..........a	-327.74
	1519	1.52	-9.81776E-001	-2.71989E-004	0.00000E+000	-9.81000E-001	-7.62605E-004	10	..........a	-327.74
	1526	1.527	-9.74767E-001	-2.67644E-004	0.00000E+000	-9.74000E-001	-8.95939E-004	10	..........a	-327.74
	1533	1.534	-9.67784E-001	-2.62130E-004	0.00000E+000	-9.67000E-001	-8.95939E-004	10	..........a	-327.74
	1540	1.541	-9.60717E-001	-2.56699E-004	0.00000E+000	-9.60000E-001	-8.29272E-004	10	..........a	-327.74
	1547	1.548	-9.53784E-001	-2.53106E-004	0.00000E+000	-9.53000E-001	-8.12605E-004	10	..........a	-327.74
	1554	1.555	-9.46801E-001	-2.48929E-004	0.00000E+000	-9.46000E-001	-9.12605E-004	10	..........a	-327.74
	1561	1.562	-9.39784E-001	-2.46924E-004	0.00000E+000	-9.39000E-001	-9.79272E-004	10	..........a	-327.74
	1568	1.569	-9.32834E-001	-2.42579E-004	0.00000E+000	-9.32000E-001	-9.45939E-004	10	..........a	-327.74
	1575	1.576	-9.25817E-001	-2.40323E-004	0.00000E+000	-9.25000E-001	-8.29272E-004	10	..........a	-327.74
	1582	1.583	-9.18759E-001	-2.39571E-004	0.00000E+000	-9.18000E-001	-8.79272E-004	10	..........a	-327.74
	1589	1.59	-9.11851E-001	-2.36313E-004	0.00000E+000	-9.11000E-001	-1.02927E-003	10	..........a	-327.74
	1596	1.597	-9.04776E-001	-2.33055E-004	0.00000E+000	-9.04000E-001	-7.62605E-004	10	..........a	-327.74
	1603	1.604	-8.97759E-001	-2.31049E-004	0.00000E+000	-8.97000E-001	-8.62605E-004	10	..........a	-327.74
	1610	1.611	-8.90834E-001	-2.30799E-004	0.00000E+000	-8.90000E-001	-8.62605E-004	10	..........a	-327.74
	1617	1.618	-8.83734E-001	-2.26956E-004	0.00000E+000	-8.83000E-001	-8.12605E-004	10	..........a	-327.74
	1624	1.625	-8.76809E-001	-2.26705E-004	0.00000E+000	-8.76000E-001	-8.45939E-004	10	..........a	-327.74
	1631	1.632	-8.69851E-001	-2.23697E-004	0.00000E+000	-8.69000E-001	-9.12605E-004	10	..........a	-327.74
	1638	1.639	-8.62809E-001	-2.22611E-004	0.00000E+000	-8.62000E-001	-9.12605E-004	10	..........a	-327.74
	1645	1.646	-8.55934E-001	-2.21107E-004	0.00000E+000	-8.55000E-001	-9.12605E-004	10	..........a	-327.74
	1652	1.653	-8.48751E-001	-2.19770E-004	0.00000E+000	-8.48000E-001	-8.62605E-004	10	..........a	-327.74
	1659	1.66	-8.41867E-001	-2.16595E-004	0.00000E+000	-8.41000E-001	-9.45939E-004	10	..........a	-327.74
	1666	1.667	-8.34826E-001	-2.14005E-004	0.00000E+000	-8.34000E-001	-9.29272E-004	10	..........a	-327.74
	1673	1.674	-8.27767E-001	-2.14089E-004	0.00000E+000	-8.27000E-001	-9.45939E-004	10	..........a	-327.74
	1680	1.681	-8.20834E-001	-2.10998E-004	0.00000E+000	-8.20000E-001	-7.45939E-004	10	..........a	-327.74
	1687	1.688	-8.13901E-001	-2.11332E-004	0.00000E+000	-8.13000E-001	-7.62605E-004	10	..........a	-327.74
	1694	1.695	-8.06817E-001	-2.07990E-004	0.00000E+000	-8.06000E-001	-7.95939E-004	10	..........a	-327.74
	1701	1.702	-7.99976E-001	-2.07405E-004	0.00000E+000	-7.99000E-001	-9.62605E-004	10	..........a	-327.74
	1708	1.709	-7.92876E-001	-2.03979E-004	0.00000E+000	-7.92000E-001	-7.95939E-004	10	..........a	-327.74
	1715	1.716	-7.85926E-001	-2.03144E-004	0.00000E+000	-7.85000E-001	-8.29272E-004	10	..........a	-327.74
	1722	1.723	-7.78851E-001	-2.02643E-004	0.00000E+000	-7.78000E-001	-7.12606E-004	10	..........a	-327.74
	1729	1.73	-7.71817E-001	-2.00721E-004	0.00000E+000	-7.71000E-001	-8.12605E-004	10	..........a	-327.74
	1736	1.737	-7.64892E-001	-1.99050E-004	0.00000E+000	-7.64000E-001	-9.95939E-004	10	..........a	-327.74
	1743	1.744	-7.57809E-001	-1.96293E-004	0.00000E+000	-7.57000E-001	-9.79272E-004	10	..........a	-327.74
	1750	1.751	-7.50876E-001	-1.96627E-004	0.00000E+000	-7.50000E-001	-8.45939E-004	10	..........a	-327.74
	1757	1.758	-7.43792E-001	-1.93703E-004	0.00000E+000	-7.43000E-001	-7.29272E-004	10	..........a	-327.74
	1764	1.765	-7.36817E-001	-1.92115E-004	0.00000E+000	-7.36000E-001	-8.29272E-004	10	..........a	-327.74
	1771	1.772	-7.29976E-001	-1.90194E-004	0.00000E+000	-7.29000E-001	-9.79272E-004	10	..........a	-327.74
	1778	1.779	-7.22876E-001	-1.87771E-004	0.00000E+000	-7.22000E-001	-8.45939E-004	10	..........a	-327.74
	1785	1.786	-7.15842E-001	-1.86518E-004	0.00000E+000	-7.15000E-001	-9.79272E-004	10	..........a	-327.74
	1792	1.793	-7.08959E-001	-1.85599E-004	0.00000E+000	-7.08000E-001	-7.95939E-004	10	..........a	-327.74
	1799	1.8	-7.01826E-001	-1.82674E-004	0.00000E+000	-7.01000E-001	-8.45939E-004	10	..........a	-327.74
	1806	1.807	-6.94776E-001	-1.79917E-004	0.00000E+000	-6.94000E-001	-6.79272E-004	10	..........a	-327.74
	1813	1.814	-6.88001E-001	-1.77076E-004	0.00000E+000	-6.87000E-001	-7.29272E-004	10	..........a	-327.74
	1820	1.821	-6.80959E-001	-1.74319E-004	0.00000E+000	-6.80000E-001	-8.95939E-004	10	..........a	-327.74
	1827	1.828	-6.73959E-001	-1.71312E-004	0.00000E+000	-6.73000E-001	-8.29272E-004	10	..........a	-327.74
	1834	1.835	-6.66976E-001	-1.69139E-004	0.00000E+000	-6.66000E-001	-7.79272E-004	10	..........a	-327.74
	1841	1.842	-6.59834E-001	-1.66549E-004	0.00000E+000	-6.59000E-001	-6.62606E-004	10	..........a	-327.74
	1848	1.849	-6.52859E-001	-1.61620E-004	0.00000E+000	-6.52000E-001	-6.29272E-004	10	..........a	-327.74
	1855	1.856	-6.45909E-001	-1.56440E-004	0.00000E+000	-6.45000E-001	-8.29272E-004	10	..........a	-327.74
	1862	1.863	-6.38951E-001	-1.50842E-004	0.00000E+000	-6.38000E-001	-8.79272E-004	10	..........a	-327.74
	1869	1.87	-6.31984E-001	-1.47166E-004	0.00000E+000	-6.31000E-001	-9.45939E-004	10	..........a	-327.74
	1876	1.877	-6.24801E-001	-1.40482E-004	0.00000E+000	-6.24000E-001	-8.45939E-004	10	..........a	-327.74
	1883	1.884	-6.17884E-001	-1.30038E-004	0.00000E+000	-6.17000E-001	-8.79272E-004	10	..........a	-327.74
	1890	1.891	-6.10959E-001	-1.18174E-004	0.00000E+000	-6.10000E-001	-9.29272E-004	10	..........a	-327.74
	1897	1.898	-6.03942E-001	-1.03553E-004	0.00000E+000	-6.03000E-001	-9.45939E-004	10	..........a	-327.74
	1904	1.905	-5.96934E-001	-8.52556E-005	0.00000E+000	-5.96000E-001	-7.95939E-004	10	..........a	-327.74
	1911	1.912	-5.89867E-001	-6.11097E-005	0.00000E+000	-5.89000E-001	-7.62605E-004	10	..........a	-327.74
	1918	1.919	-5.82976E-001	-3.17003E-005	0.00000E+000	-5.82000E-001	-8.29272E-004	10	..........a	-327.74
	1925	1.926	-5.75909E-001	6.31470E-006	0.00000E+000	-5.75000E-001	-7.29272E-004	10	..........a	-327.74
	1932	1.933	-5.68842E-001	4.85072E-005	0.00000E+000	-5.68000E-001	-7.29272E-004	10	..........a	-327.74
	1939	1.94	-5.61967E-001	9.70495E-005	0.00000E+000	-5.61000E-001	-8.79272E-004	10	..........a	-327.74
	1946	1.947	-5.55001E-001	1.47179E-004	0.00000E+000	-5.54000E-001	-8.45939E-004	10	..........a	-327.74
	1953	1.954	-5.47901E-001	1.99648E-004	0.00000E+000	-5.47000E-001	-8.95939E-004	10	..........a	-327.74
	1960	1.961	-5.41009E-001	2.53371E-004	0.00000E+000	-5.40000E-001	-9.95939E-004	10	..........a	-327.74
	1967	1.968	-5.33951E-001	3.04336E-004	0.00000E+000	-5.33000E-001	-6.95939E-004	10	..........a	-327.74
	1974	1.975	-5.26942E-001	3.53045E-004	0.00000E+000	-5.26000E-001	-8.79272E-004	10	..........a	-327.74
	1981	1.982	-5.20034E-001	3.96324E-004	0.00000E+000	-5.19000E-001	-9.62605E-004	10	..........a	-327.74
	1988	1.989	-5.12909E-001	4.31832E-004	0.00000E+000	-5.12000E-001	-8.79272E-004	10	..........a	-327.74
	1995	1.996	-5.06042E-001	4.66505E-004	0.00000E+000	-5.05000E-001	-9.62605E-004	10	..........a	-327.74
	2002	2.003	-4.99017E-001	4.92239E-004	0.00000E+000	-4.98000E-001	-1.01261E-003	10	..........a	-327.74
	2009	2.01	-4.91959E-001	5.13627E-004	0.00000E+000	-4.91000E-001	-9.12605E-004	10	..........a	-327.74
	2016	2.017	-4.85067E-001	5.26995E-004	0.00000E+000	-4.84000E-001	-9.12605E-004	10	..........a	-327.74
	2023	2.024	-4.78001E-001	5.37439E-004	0.00000E+000	-4.77000E-001	-8.79272E-004	10	..........a	-327.74
	2030	2.031	-4.71042E-001	5.42452E-004	0.00000E+000	-4.70000E-001	-8.95939E-004	10	..........a	-327.74
	2037	2.038	-4.64026E-001	5.39528E-004	0.00000E+000	-4.63000E-001	-9.45939E-004	10	..........a	-327.74
	2044	2.045	-4.57009E-001	5.34013E-004	0.00000E+000	-4.56000E-001	-8.45939E-004	10	..........a	-327.74
	2051	2.052	-4.49984E-001	5.23403E-004	0.00000E+000	-4.49000E-001	-6.12606E-004	10	..........a	-327.74
	2058	2.059	-4.43026E-001	5.12625E-004	0.00000E+000	-4.42000E-001	-7.79272E-004	10	..........a	-327.74
	2065	2.066	-4.35951E-001	5.00176E-004	0.00000E+000	-4.35000E-001	-9.29272E-004	10	..........a	-327.74
	2072	2.073	-4.29034E-001	4.85388E-004	0.00000E+000	-4.28000E-001	-8.12605E-004	10	..........a	-327.74
	2079	2.08	-4.22042E-001	4.72688E-004	0.00000E+000	-4.21000E-001	-9.62605E-004	10	..........a	-327.74
	2086	2.087	-4.14926E-001	4.56563E-004	0.00000E+000	-4.14000E-001	-9.29272E-004	10	..........a	-327.74
	2093	2.094	-4.08026E-001	4.42527E-004	0.00000E+000	-4.07000E-001	-7.79272E-004	10	..........a	-327.74
	2100	2.101	-4.00917E-001	4.29242E-004	0.00000E+000	-4.00000E-001	-7.45939E-004	10	..........a	-327.74
	2107	2.108	-3.94026E-001	4.17796E-004	0.00000E+000	-3.93000E-001	-9.12605E-004	10	..........a	-327.74
	2114	2.115	-3.87067E-001	4.07603E-004	0.00000E+000	-3.86000E-001	-7.95939E-004	10	..........a	-327.74
	2121	2.122	-3.80042E-001	3.94235E-004	0.00000E+000	-3.79000E-001	-9.12605E-004	10	..........a	-327.74
	2128	2.129	-3.73051E-001	3.84627E-004	0.00000E+000	-3.72000E-001	-1.02927E-003	10	..........a	-327.74
	2135	2.136	-3.66067E-001	3.73598E-004	0.00000E+000	-3.65000E-001	-9.62605E-004	10	..........a	-327.74
	2142	2.143	-3.59026E-001	3.65160E-004	0.00000E+000	-3.58000E-001	-9.62605E-004	10	..........a	-327.74
	2149	2.15	-3.52034E-001	3.55969E-004	0.00000E+000	-3.51000E-001	-8.29272E-004	10	..........a	-327.74
	2156	2.157	-3.45059E-001	3.48533E-004	0.00000E+000	-3.44000E-001	-8.95939E-004	10	..........a	-327.74
	2163	2.164	-3.37951E-001	3.41265E-004	0.00000E+000	-3.37000E-001	-7.79272E-004	10	..........a	-327.74
	2170	2.171	-3.31101E-001	3.35500E-004	0.00000E+000	-3.30000E-001	-7.95939E-004	10	..........a	-327.74
	2177	2.178	-3.24026E-001	3.29317E-004	0.00000E+000	-3.23000E-001	-8.62605E-004	10	..........a	-327.74
	2184	2.185	-3.17109E-001	3.21380E-004	0.00000E+000	-3.16000E-001	-6.95939E-004	10	..........a	-327.74
	2191	2.192	-3.10051E-001	3.15699E-004	0.00000E+000	-3.09000E-001	-9.12605E-004	10	..........a	-327.74
	2198	2.199	-3.03009E-001	3.08597E-004	0.00000E+000	-3.02000E-001	-8.62605E-004	10	..........a	-327.74
	2205	2.206	-2.96134E-001	3.04085E-004	0.00000E+000	-2.95000E-001	-9.95939E-004	10	..........a	-327.74
	2212	2.213	-2.89042E-001	2.97986E-004	0.00000E+000	-2.88000E-001	-8.79272E-004	10	..........a	-327.74
	2219	2.22	-2.82034E-001	2.92388E-004	0.00000E+000	-2.81000E-001	-8.12605E-004	10	..........a	-327.74
	2226	2.227	-2.75092E-001	2.87459E-004	0.00000E+000	-2.74000E-001	-9.12605E-004	10	..........a	-327.74
	2233	2.234	-2.68084E-001	2.81193E-004	0.00000E+000	-2.67000E-001	-7.95939E-004	10	..........a	-327.74
	2240	2.241	-2.61059E-001	2.76096E-004	0.00000E+000	-2.60000E-001	-8.12605E-004	10	..........a	-327.74
	2247	2.248	-2.54092E-001	2.71668E-004	0.00000E+000	-2.53000E-001	-7.62605E-004	10	..........a	-327.74
	2254	2.255	-2.47034E-001	2.66655E-004	0.00000E+000	-2.46000E-001	-1.02927E-003	10	..........a	-327.74
	2261	2.262	-2.40142E-001	2.62310E-004	0.00000E+000	-2.39000E-001	-9.79272E-004	10	..........a	-327.74
	2268	2.269	-2.33126E-001	2.55794E-004	0.00000E+000	-2.32000E-001	-9.29272E-004	10	..........a	-327.74
	2275	2.276	-2.26076E-001	2.50697E-004	0.00000E+000	-2.25000E-001	-9.62605E-004	10	..........a	-327.74
	2282	2.283	-2.19101E-001	2.47689E-004	0.00000E+000	-2.18000E-001	-9.79272E-004	10	..........a	-327.74
	2289	2.29	-2.12084E-001	2.41339E-004	0.00000E+000	-2.11000E-001	-8.29272E-004	10	..........a	-327.74
	2296	2.297	-2.05017E-001	2.34990E-004	0.00000E+000	-2.04000E-001	-7.45939E-004	10	..........a	-327.74
	2303	2.304	-1.98109E-001	2.31815E-004	0.00000E+000	-1.97000E-001	-8.45939E-004	10	..........a	-327.74
	2310	2.311	-1.91092E-001	2.26635E-004	0.00000E+000	-1.90000E-001	-8.29272E-004	10	..........a	-327.74
	2317	2.318	-1.84251E-001	2.22875E-004	0.00000E+000	-1.83000E-001	-8.45939E-004	10	..........a	-327.74
	2324	2.325	-1.77151E-001	2.21037E-004	0.00000E+000	-1.76000E-001	-8.95939E-004	10	..........a	-327.74
	2331	2.332	-1.70059E-001	2.14019E-004	0.00000E+000	-1.69000E-001	-8.29272E-004	10	..........a	-327.74
	2338	2.339	-1.63142E-001	2.10844E-004	0.00000E+000	-1.62000E-001	-6.95939E-004	10	..........a	-327.74
	2345	2.346	-1.56209E-001	2.07836E-004	0.00000E+000	-1.55000E-001	-9.79272E-004	10	..........a	-327.74
	2352	2.353	-1.49142E-001	2.04327E-004	0.00000E+000	-1.48000E-001	-8.95939E-004	10	..........a	-327.74
	2359	2.36	-1.42117E-001	2.01152E-004	0.00000E+000	-1.41000E-001	-8.12605E-004	10	..........a	-327.74
	2366	2.367	-1.35092E-001	1.96724E-004	0.00000E+000	-1.34000E-001	-9.29272E-004	10	..........a	-327.74
	2373	2.374	-1.28126E-001	1.92881E-004	0.00000E+000	-1.27000E-001	-7.79272E-004	10	..........a	-327.74
	2380	2.381	-1.21067E-001	1.90876E-004	0.00000E+000	-1.20000E-001	-6.45939E-004	10	..........a	-327.74
	2387	2.388	-1.14217E-001	1.90625E-004	0.00000E+000	-1.13000E-001	-9.62605E-004	10	..........a	-327.74
	2394	2.395	-1.07151E-001	1.87366E-004	0.00000E+000	-1.06000E-001	-8.45939E-004	10	..........a	-327.74
	2401	2.402	-1.00192E-001	1.84944E-004	0.00000E+000	-9.90000E-002	-9.62605E-004	10	..........a	-327.74
	2408	2.409	-9.31757E-002	1.83189E-004	0.00000E+000	-9.20000E-002	-9.95939E-004	10	..........a	-327.74
	2415	2.416	-8.62423E-002	1.81685E-004	0.00000E+000	-8.50000E-002	-8.62605E-004	10	..........a	-327.74
	2422	2.423	-7.91090E-002	1.78761E-004	0.00000E+000	-7.80000E-002	-8.62605E-004	10	..........a	-327.74
	2429	2.43	-7.22090E-002	1.77424E-004	0.00000E+000	-7.10000E-002	-9.79272E-004	10	..........a	-327.74
	2436	2.437	-6.51007E-002	1.76672E-004	0.00000E+000	-6.40000E-002	-5.12606E-004	10	..........a	-327.74
	2443	2.444	-5.81507E-002	1.76254E-004	0.00000E+000	-5.70000E-002	-8.29272E-004	10	..........a	-327.74
	2450	2.451	-5.11423E-002	1.74750E-004	0.00000E+000	-5.00000E-002	-8.62605E-004	10	..........a	-327.74
	2457	2.458	-4.42423E-002	1.74249E-004	0.00000E+000	-4.30000E-002	-8.12605E-004	10	..........a	-327.74
	2464	2.465	-3.70423E-002	1.72996E-004	0.00000E+000	-3.60000E-002	-7.79272E-004	10	..........a	-327.74
	2471	2.472	-3.01423E-002	1.74166E-004	0.00000E+000	-2.90000E-002	-8.45939E-004	10	..........a	-327.74
	2478	2.479	-2.32173E-002	1.74834E-004	0.00000E+000	-2.20000E-002	-8.29272E-004	10	..........a	-327.74
	2485	2.486	-1.60757E-002	1.74333E-004	0.00000E+000	-1.50000E-002	-9.45939E-004	10	..........a	-327.74
	2492	2.493	-9.25066E-003	1.75001E-004	0.00000E+000	-8.00000E-003	-1.01261E-003	10	..........a	-327.74
	2499	2.5	-2.14233E-003	1.77173E-004	0.00000E+000	-1.00000E-003	-7.79272E-004	10	..........a	-327.74
	2506	2.507	4.79100E-003	1.77090E-004	0.00000E+000	5.99998E-003	-9.12605E-004	10	..........a	-327.74
	2513	2.514	1.18243E-002	1.77257E-004	0.00000E+000	1.30000E-002	-8.79272E-004	10	..........a	-327.74
	2520	2.521	1.88160E-002	1.78427E-004	0.00000E+000	2.00000E-002	-9.29272E-004	10	..........a	-327.74
	2527	2.528	2.58077E-002	1.79680E-004	0.00000E+000	2.70000E-002	-8.95939E-004	10	..........a	-327.74
	2534	2.535	3.27910E-002	1.78343E-004	0.00000E+000	3.40000E-002	-9.29272E-004	10	..........a	-327.74
	2541	2.542	3.97910E-002	1.79262E-004	0.00000E+000	4.10000E-002	-9.45939E-004	10	..........a	-327.74
	2548	2.549	4.67910E-002	1.81351E-004	0.00000E+000	4.80000E-002	-9.62605E-004	10	..........a	-327.74
	2555	2.556	5.38577E-002	1.79680E-004	0.00000E+000	5.50000E-002	-9.45939E-004	10	..........a	-327.74
	2562	2.563	6.08660E-002	1.79179E-004	0.00000E+000	6.20000E-002	-8.29272E-004	10	..........a	-327.74
	2569	2.57	6.77910E-002	1.78092E-004	0.00000E+000	6.90000E-002	-8.12605E-004	10	..........a	-327.74
	2576	2.577	7.48077E-002	1.78260E-004	0.00000E+000	7.60000E-002	-8.29272E-004	10	..........a	-327.74
	2583	2.584	8.17493E-002	1.77675E-004	0.00000E+000	8.30000E-002	-9.29272E-004	10	..........a	-327.74
	2590	2.591	8.88493E-002	1.76421E-004	0.00000E+000	9.00000E-002	-8.45939E-004	10	..........a	-327.74
	2597	2.598	9.57493E-002	1.73414E-004	0.00000E+000	9.70000E-002	-9.79272E-004	10	..........a	-327.74
	2604	2.605	1.02808E-001	1.71074E-004	0.00000E+000	1.04000E-001	-8.62605E-004	10	..........a	-327.74
	2611	2.612	1.09799E-001	1.69153E-004	0.00000E+000	1.11000E-001	-9.45939E-004	10	..........a	-327.74
	2618	2.619	1.16891E-001	1.65978E-004	0.00000E+000	1.18000E-001	-8.12605E-004	10	..........a	-327.74
	2625	2.626	1.23808E-001	1.64557E-004	0.00000E+000	1.25000E-001	-9.12605E-004	10	..........a	-327.74
	2632	2.633	1.30833E-001	1.61633E-004	0.00000E+000	1.32000E-001	-8.12605E-004	10	..........a	-327.74
	2639	2.64	1.37799E-001	1.58960E-004	0.00000E+000	1.39000E-001	-8.12605E-004	10	..........a	-327.74
	2646	2.647	1.44841E-001	1.55367E-004	0.00000E+000	1.46000E-001	-7.95939E-004	10	..........a	-327.74
	2653	2.654	1.51766E-001	1.52610E-004	0.00000E+000	1.53000E-001	-9.62605E-004	10	..........a	-327.74
	2660	2.661	1.58716E-001	1.50939E-004	0.00000E+000	1.60000E-001	-1.02927E-003	10	..........a	-327.74
	2667	2.668	1.65758E-001	1.48767E-004	0.00000E+000	1.67000E-001	-9.62605E-004	10	..........a	-327.74
	2674	2.675	1.72674E-001	1.45425E-004	0.00000E+000	1.74000E-001	-1.02927E-003	10	..........a	-327.74
	2681	2.682	1.79766E-001	1.41665E-004	0.00000E+000	1.81000E-001	-8.79272E-004	10	..........a	-327.74
	2688	2.689	1.86733E-001	1.39994E-004	0.00000E+000	1.88000E-001	-9.95939E-004	10	..........a	-327.74
	2695	2.696	1.93708E-001	1.37404E-004	0.00000E+000	1.95000E-001	-8.12605E-004	10	..........a	-327.74
	2702	2.703	2.00774E-001	1.34897E-004	0.00000E+000	2.02000E-001	-8.45939E-004	10	..........a	-327.74
	2709	2.71	2.07816E-001	1.33477E-004	0.00000E+000	2.09000E-001	-1.07927E-003	10	..........a	-327.74
	2716	2.717	2.14766E-001	1.30636E-004	0.00000E+000	2.16000E-001	-9.79272E-004	10	..........a	-327.74
	2723	2.724	2.21774E-001	1.27461E-004	0.00000E+000	2.23000E-001	-1.06261E-003	10	..........a	-327.74
	2730	2.731	2.28758E-001	1.27211E-004	0.00000E+000	2.30000E-001	-8.29272E-004	10	..........a	-327.74
	2737	2.738	2.35683E-001	1.25373E-004	0.00000E+000	2.37000E-001	-9.62605E-004	10	..........a	-327.74
	2744	2.745	2.42716E-001	1.23451E-004	0.00000E+000	2.44000E-001	-8.79272E-004	10	..........a	-327.74
	2751	2.752	2.49774E-001	1.23117E-004	0.00000E+000	2.51000E-001	-7.95939E-004	10	..........a	-327.74
	2758	2.759	2.56799E-001	1.19107E-004	0.00000E+000	2.58000E-001	-7.62605E-004	10	..........a	-327.74
	2765	2.766	2.63658E-001	1.17770E-004	0.00000E+000	2.65000E-001	-9.79272E-004	10	..........a	-327.74
	2772	2.773	2.70624E-001	1.18355E-004	0.00000E+000	2.72000E-001	-9.12605E-004	10	..........a	-327.74
	2779	2.78	2.77791E-001	1.15932E-004	0.00000E+000	2.79000E-001	-9.45939E-004	10	..........a	-327.74
	2786	2.787	2.84633E-001	1.15765E-004	0.00000E+000	2.86000E-001	-8.29272E-004	10	..........a	-327.74
	2793	2.794	2.91791E-001	1.13926E-004	0.00000E+000	2.93000E-001	-9.45939E-004	10	..........a	-327.74
	2800	2.801	2.98724E-001	1.14846E-004	0.00000E+000	3.00000E-001	-8.62605E-004	10	..........a	-327.74
	2807	2.808	3.05699E-001	1.12840E-004	0.00000E+000	3.07000E-001	-7.95939E-004	10	..........a	-327.74
	2814	2.815	3.12708E-001	1.12590E-004	0.00000E+000	3.14000E-001	-7.62605E-004	10	..........a	-327.74
	2821	2.822	3.19791E-001	1.12673E-004	0.00000E+000	3.21000E-001	-7.95939E-004	10	..........a	-327.74
	2828	2.829	3.26641E-001	1.11169E-004	0.00000E+000	3.28000E-001	-9.95939E-004	10	..........a	-327.74
	2835	2.836	3.33658E-001	1.09833E-004	0.00000E+000	3.35000E-001	-8.45939E-004	10	..........a	-327.74
	2842	2.843	3.40633E-001	1.10501E-004	0.00000E+000	3.42000E-001	-9.29272E-004	10	..........a	-327.74
	2849	2.85	3.47641E-001	1.09164E-004	0.00000E+000	3.49000E-001	-7.95939E-004	10	..........a	-327.74
	2856	2.857	3.54758E-001	1.08663E-004	0.00000E+000	3.56000E-001	-6.29272E-004	10	..........a	-327.74
	2863	2.864	3.61641E-001	1.07911E-004	0.00000E+000	3.63000E-001	-6.95939E-004	10	..........a	-327.74
	2870	2.871	3.68766E-001	1.07994E-004	0.00000E+000	3.70000E-001	-7.45939E-004	10	..........a	-327.74
	2877	2.878	3.75649E-001	1.08162E-004	0.00000E+000	3.77000E-001	-8.62605E-004	10	..........a	-327.74
	2884	2.885	3.82749E-001	1.06825E-004	0.00000E+000	3.84000E-001	-8.79272E-004	10	..........a	-327.74
	2891	2.892	3.89766E-001	1.07911E-004	0.00000E+000	3.91000E-001	-8.12605E-004	10	..........a	-327.74
	2898	2.899	3.96716E-001	1.07242E-004	0.00000E+000	3.98000E-001	-6.45939E-004	10	..........a	-327.74
	2905	2.906	4.03608E-001	1.07827E-004	0.00000E+000	4.05000E-001	-9.29272E-004	10	..........a	-327.74
	2912	2.913	4.10708E-001	1.06240E-004	0.00000E+000	4.12000E-001	-8.95939E-004	10	..........a	-327.74
	2919	2.92	4.17674E-001	1.07242E-004	0.00000E+000	4.19000E-001	-9.95939E-004	10	..........a	-327.74
	2926	2.927	4.24633E-001	1.04652E-004	0.00000E+000	4.26000E-001	-8.45939E-004	10	..........a	-327.74
	2933	2.934	4.31691E-001	1.03399E-004	0.00000E+000	4.33000E-001	-7.95939E-004	10	..........a	-327.74
	2940	2.941	4.38716E-001	1.03566E-004	0.00000E+000	4.40000E-001	-8.45939E-004	10	..........a	-327.74
	2947	2.948	4.45741E-001	1.02146E-004	0.00000E+000	4.47000E-001	-8.29272E-004	10	..........a	-327.74
	2954	2.955	4.52599E-001	1.02564E-004	0.00000E+000	4.54000E-001	-8.95939E-004	10	..........a	-327.74
	2961	2.962	4.59633E-001	1.01728E-004	0.00000E+000	4.61000E-001	-9.95939E-004	10	..........a	-327.74
	2968	2.969	4.66674E-001	1.01561E-004	0.00000E+000	4.68000E-001	-9.45939E-004	10	..........a	-327.74
	2975	2.976	4.73624E-001	1.00391E-004	0.00000E+000	4.75000E-001	-1.01261E-003	10	..........a	-327.74
	2982	2.983	4.80674E-001	1.00893E-004	0.00000E+000	4.82000E-001	-7.45939E-004	10	..........a	-327.74
	2989	2.99	4.87683E-001	9.91382E-005	0.00000E+000	4.89000E-001	-8.62605E-004	10	..........a	-327.74
	2996	2.997	4.94608E-001	9.96395E-005	0.00000E+000	4.96000E-001	-8.62605E-004	10	..........a	-327.74
	3000	3.001	4.98708E-001	9.86369E-005	0.00000E+000	5.00000E-001	-8.29272E-004	10	..........a	-327.74
CURVE2	TABLE
	Pt	T	Vf	Im	Vu	Sig	Ach	IERange	Over	Temp
	#	s	V vs. Ref.	A	V	V	V	#	bits	deg C
	3001	3.002	4.98741E-001	9.44594E-005	0.00000E+000	5.00000E-001	-7.79272E-004	10	..........a	-327.74