File: data/02-SI/Figures_S9_S11_RDE/14btmapaq-rde/1mkcl-5mmolar14btmapaq-nitrogen-700mvpers.DTA
EXPLAIN
TAG	CV
TITLE	LABEL	Cyclic Voltammetry	Test &Identifier
DATE	LABEL	1/31/2023	Date
TIME	LABEL	14:03:40	Time
NOTES	NOTES	1	&Notes...

PSTAT	PSTAT	REF3000-21108	Potentiostat
VINIT	POTEN	5.00000E-001	F	Initial &E (V)
VLIMIT1	POTEN	-1.00000E+000	F	Scan Limit &1 (V)
VLIMIT2	POTEN	5.00000E-001	F	Scan Limit &2 (V)
VFINAL	POTEN	5.00000E-001	F	Final &E (V)
SCANRATE	QUANT	6.97673E+002	&Scan Rate (mV/s)
STEPSIZE	QUANT	1.00000E+000	St&ep Size (mV)
CYCLES	IQUANT	1	C&ycles (#)
IMODE	SELECTOR	1	I/E Range &Mode
IRANGE	QUANT	1.00000E+001	&Max Current (mA)
AREA	QUANT	1.00000E+000	Electrode &Area (cm^2)
ELECTRODETYPE	SELECTOR	0	Electrode Type
STRIPPING	TOGGLE	F	Used for Stripping
POLARITY	TOGGLE	F	Signal Polarity
CONDIT	TWOPARAM	F	1.50000E+001	0.00000E+000	Conditionin&g	Time(s)	E(V)
DELAY	TWOPARAM	F	5.00000E+000	0.00000E+000	Init. De&lay	Time(s)	Stab.(mV/s)
EQDELAY	QUANT	0.00000E+000	Equil. &Time (s)
IRCOMP	SELECTOR	0	IRCom&p
PFCOR	QUANT	5.00000E+001	PF Corr. (ohm)
SAMPLINGMODE	SELECTOR	1	Sampling &Mode
EOC	QUANT	0	Open Circuit (V)
PSTATMODEL	IQUANT	5	Pstat Model
PSTATSECTION	LABEL	REF3000-21108	Pstat Section
PSTATSERIALNO	LABEL	21108	Pstat Serial Number
CTRLMODE	IQUANT	1	Control Mode
ELECTROMETER	IQUANT	0	RE=0 or CS=1
IESTAB	IQUANT	2	I/E Stability
CASPEED	IQUANT	4	Control Amp Speed
CONVENTION	IQUANT	1	Current Convention
ICHRANGE	IQUANT	2	Ich Range
ICHRANGEMODE	TOGGLE	F	Ich Auto Range
ICHOFFSETENABLE	TOGGLE	F	Ich Offset Enable
ICHOFFSET	QUANT	0	Ich Offset (V)
ICHFILTER	IQUANT	1	Ich Filter
VCHRANGE	IQUANT	2	Vch Range
VCHRANGEMODE	TOGGLE	F	Vch Auto Range
VCHOFFSETENABLE	TOGGLE	F	Vch Offset Enable
VCHOFFSET	QUANT	0	Vch Offset (V)
VCHFILTER	IQUANT	1	Vch Filter
ACHRANGE	IQUANT	2	Ach Range
ACHOFFSETENABLE	TOGGLE	F	Ach Offset Enable
ACHOFFSET	QUANT	0	Ach Offset (V)
ACHFILTER	IQUANT	0	Ach Filter
IERANGELOWERLIMIT	IQUANT	2	I/E Range Lower Limit
IERANGEMODE	TOGGLE	F	I/E AutoRange
IERANGE	IQUANT	10	I/E Range
POSFEEDENABLE	TOGGLE	F	Positive Feedback IR Comp
POSFEEDRESISTANCE	QUANT	0	Positive Feedback Resistance (ohm)
ACHSELECT	IQUANT	0	Ach Select
SENSECABLEID	IQUANT	14	Sense Cable ID
PWRCABLEID	IQUANT	7	Power Cable ID
DCCALDATE	LABEL	11/9/2022	DC Calibration Date
ACCALDATE	LABEL	11/9/2022	AC Calibration Date
THERMOSELECT	IQUANT	1	Thermo Select
FRAMEWORKVERSION	LABEL	7.8.2	Framework Version
INSTRUMENTVERSION	LABEL	4.40	Instrument Version
COMPLIANCEVOLTAGE	IQUANT	0	Compliance Voltage
CURVE1	TABLE
	Pt	T	Vf	Im	Vu	Sig	Ach	IERange	Over	Temp
	#	s	V vs. Ref.	A	V	V	V	#	bits	deg C
	0	0.001433	4.98679E-001	6.51581E-005	0.00000E+000	5.00000E-001	-8.51494E-004	10	..........a	-327.74
	7	0.011467	4.91620E-001	5.38347E-005	0.00000E+000	4.93000E-001	-8.29272E-004	10	..........a	-327.74
	14	0.0215	4.84556E-001	4.82320E-005	0.00000E+000	4.85950E-001	-8.51494E-004	10	..........a	-327.74
	21	0.031533	4.77597E-001	4.26292E-005	0.00000E+000	4.78950E-001	-8.51494E-004	10	..........a	-327.74
	28	0.041567	4.70550E-001	3.86779E-005	0.00000E+000	4.71900E-001	-8.51494E-004	10	..........a	-327.74
	35	0.0516	4.63532E-001	3.60829E-005	0.00000E+000	4.64900E-001	-8.51494E-004	10	..........a	-327.74
	42	0.061633	4.56556E-001	3.40187E-005	0.00000E+000	4.57850E-001	-8.40383E-004	10	..........a	-327.74
	49	0.071667	4.49426E-001	2.97135E-005	0.00000E+000	4.50850E-001	-8.29272E-004	10	..........a	-327.74
	56	0.0817	4.42467E-001	2.84160E-005	0.00000E+000	4.43800E-001	-8.29272E-004	10	..........a	-327.74
	63	0.091733	4.35438E-001	2.64108E-005	0.00000E+000	4.36800E-001	-7.29272E-004	10	..........a	-327.74
	70	0.101767	4.28473E-001	2.41697E-005	0.00000E+000	4.29750E-001	-8.29272E-004	10	..........a	-327.74
	77	0.1118	4.21415E-001	2.19286E-005	0.00000E+000	4.22750E-001	-8.18161E-004	10	..........a	-327.74
	84	0.121833	4.14344E-001	2.19286E-005	0.00000E+000	4.15700E-001	-8.07050E-004	10	..........a	-327.74
	91	0.131867	4.07467E-001	2.01004E-005	0.00000E+000	4.08700E-001	-8.07050E-004	10	..........a	-327.74
	98	0.1419	4.00373E-001	1.89798E-005	0.00000E+000	4.01650E-001	-7.95939E-004	10	..........a	-327.74
	105	0.151933	3.93326E-001	1.78003E-005	0.00000E+000	3.94650E-001	-8.73717E-004	10	..........a	-327.74
	112	0.161967	3.86332E-001	1.68567E-005	0.00000E+000	3.87650E-001	-8.07050E-004	10	..........a	-327.74
	119	0.172	3.79285E-001	1.62669E-005	0.00000E+000	3.80600E-001	-8.40383E-004	10	..........a	-327.74
	126	0.182033	3.72297E-001	1.59131E-005	0.00000E+000	3.73600E-001	-8.40383E-004	10	..........a	-327.74
	133	0.192067	3.65250E-001	1.35540E-005	0.00000E+000	3.66550E-001	-8.62605E-004	10	..........a	-327.74
	140	0.2021	3.58162E-001	1.20206E-005	0.00000E+000	3.59550E-001	-8.29272E-004	10	..........a	-327.74
	147	0.212133	3.51232E-001	1.18437E-005	0.00000E+000	3.52500E-001	-8.07050E-004	10	..........a	-327.74
	154	0.222167	3.44138E-001	1.04283E-005	0.00000E+000	3.45500E-001	-8.73717E-004	10	..........a	-327.74
	161	0.2322	3.37185E-001	9.42570E-006	0.00000E+000	3.38450E-001	-8.84828E-004	10	..........a	-327.74
	168	0.242233	3.30138E-001	9.24877E-006	0.00000E+000	3.31450E-001	-8.07050E-004	10	..........a	-327.74
	175	0.252267	3.23138E-001	9.36672E-006	0.00000E+000	3.24400E-001	-8.62605E-004	10	..........a	-327.74
	182	0.2623	3.16167E-001	7.59743E-006	0.00000E+000	3.17400E-001	-7.95939E-004	10	..........a	-327.74
	189	0.272333	3.08997E-001	6.24098E-006	0.00000E+000	3.10350E-001	-8.51494E-004	10	..........a	-327.74
	196	0.282367	3.02091E-001	4.82556E-006	0.00000E+000	3.03350E-001	-8.40383E-004	10	..........a	-327.74
	203	0.2924	2.94979E-001	5.53327E-006	0.00000E+000	2.96300E-001	-7.95939E-004	10	..........a	-327.74
	210	0.302433	2.88020E-001	4.41272E-006	0.00000E+000	2.89300E-001	-8.40383E-004	10	..........a	-327.74
	217	0.312467	2.81097E-001	3.88194E-006	0.00000E+000	2.82300E-001	-8.07050E-004	10	..........a	-327.74
	224	0.3225	2.74009E-001	3.82296E-006	0.00000E+000	2.75250E-001	-8.40383E-004	10	..........a	-327.74
	231	0.332533	2.66979E-001	2.46651E-006	0.00000E+000	2.68250E-001	-8.29272E-004	10	..........a	-327.74
	238	0.342567	2.59944E-001	1.75880E-006	0.00000E+000	2.61200E-001	-8.18161E-004	10	..........a	-327.74
	245	0.3526	2.52897E-001	1.87675E-006	0.00000E+000	2.54200E-001	-7.95939E-004	10	..........a	-327.74
	252	0.362633	2.45915E-001	1.58187E-006	0.00000E+000	2.47150E-001	-8.51494E-004	10	..........a	-327.74
	259	0.372667	2.38909E-001	1.46392E-006	0.00000E+000	2.40150E-001	-8.62605E-004	10	..........a	-327.74
	266	0.3827	2.31832E-001	4.84920E-008	0.00000E+000	2.33100E-001	-7.84828E-004	10	..........a	-327.74
	273	0.392733	2.24909E-001	1.66444E-007	0.00000E+000	2.26100E-001	-8.18161E-004	10	..........a	-327.74
	280	0.402767	2.17832E-001	-1.24898E-006	0.00000E+000	2.19050E-001	-8.07050E-004	10	..........a	-327.74
	287	0.4128	2.10779E-001	-1.54386E-006	0.00000E+000	2.12050E-001	-7.95939E-004	10	..........a	-327.74
	294	0.422833	2.03785E-001	-4.82293E-007	0.00000E+000	2.05000E-001	-8.62605E-004	10	..........a	-327.74
	301	0.432867	1.96809E-001	-2.48748E-006	0.00000E+000	1.98000E-001	-8.18161E-004	10	..........a	-327.74
	308	0.4429	1.89738E-001	-3.01827E-006	0.00000E+000	1.90950E-001	-7.40383E-004	10	..........a	-327.74
	315	0.452933	1.82720E-001	-2.36953E-006	0.00000E+000	1.83950E-001	-8.95939E-004	10	..........a	-327.74
	322	0.462967	1.75656E-001	-4.84653E-006	0.00000E+000	1.76950E-001	-8.07050E-004	10	..........a	-327.74
	329	0.473	1.68644E-001	-5.20038E-006	0.00000E+000	1.69900E-001	-7.62605E-004	10	..........a	-327.74
	336	0.483033	1.61632E-001	-4.90550E-006	0.00000E+000	1.62900E-001	-7.73717E-004	10	..........a	-327.74
	343	0.493067	1.54667E-001	-5.55424E-006	0.00000E+000	1.55850E-001	-7.51494E-004	10	..........a	-327.74
	350	0.5031	1.47644E-001	-6.37990E-006	0.00000E+000	1.48850E-001	-7.95939E-004	10	..........a	-327.74
	357	0.513133	1.40585E-001	-7.50045E-006	0.00000E+000	1.41800E-001	-7.51494E-004	10	..........a	-327.74
	364	0.523167	1.33562E-001	-7.50045E-006	0.00000E+000	1.34800E-001	-7.73717E-004	10	..........a	-327.74
	371	0.5332	1.26473E-001	-7.44147E-006	0.00000E+000	1.27750E-001	-7.95939E-004	10	..........a	-327.74
	378	0.543233	1.19520E-001	-7.08762E-006	0.00000E+000	1.20750E-001	-7.95939E-004	10	..........a	-327.74
	385	0.553267	1.12497E-001	-8.97485E-006	0.00000E+000	1.13700E-001	-8.07050E-004	10	..........a	-327.74
	392	0.5633	1.05485E-001	-8.32612E-006	0.00000E+000	1.06700E-001	-7.95939E-004	10	..........a	-327.74
	399	0.573333	9.84792E-002	-8.79793E-006	0.00000E+000	9.96500E-002	-7.29272E-004	10	..........a	-327.74
	406	0.583367	9.13675E-002	-8.26714E-006	0.00000E+000	9.26500E-002	-7.84828E-004	10	..........a	-327.74
	413	0.5934	8.43792E-002	-1.06262E-005	0.00000E+000	8.56000E-002	-7.95939E-004	10	..........a	-327.74
	420	0.603433	7.73734E-002	-1.13929E-005	0.00000E+000	7.86000E-002	-7.84828E-004	10	..........a	-327.74
	427	0.613467	7.04086E-002	-1.03903E-005	0.00000E+000	7.16000E-002	-7.84828E-004	10	..........a	-327.74
	434	0.6235	6.34145E-002	-1.06262E-005	0.00000E+000	6.45500E-002	-7.84828E-004	10	..........a	-327.74
	441	0.633533	5.63557E-002	-1.09800E-005	0.00000E+000	5.75500E-002	-7.18161E-004	10	..........a	-327.74
	448	0.643567	4.93498E-002	-1.21596E-005	0.00000E+000	5.05000E-002	-7.84828E-004	10	..........a	-327.74
	455	0.6536	4.23204E-002	-1.38699E-005	0.00000E+000	4.35000E-002	-7.95939E-004	10	..........a	-327.74
	462	0.663633	3.52734E-002	-1.30442E-005	0.00000E+000	3.64500E-002	-7.73717E-004	10	..........a	-327.74
	469	0.673667	2.83087E-002	-1.42827E-005	0.00000E+000	2.94500E-002	-7.84828E-004	10	..........a	-327.74
	476	0.6837	2.12381E-002	-1.33981E-005	0.00000E+000	2.24000E-002	-8.07050E-004	10	..........a	-327.74
	483	0.693733	1.42263E-002	-1.36340E-005	0.00000E+000	1.54000E-002	-7.95939E-004	10	..........a	-327.74
	490	0.703767	7.23218E-003	-1.40468E-005	0.00000E+000	8.34998E-003	-7.07050E-004	10	..........a	-327.74
	497	0.7138	2.02767E-004	-1.45776E-005	0.00000E+000	1.34999E-003	-7.40383E-004	10	..........a	-327.74
	504	0.723833	-6.85017E-003	-1.44007E-005	0.00000E+000	-5.70001E-003	-7.95939E-004	10	..........a	-327.74
	511	0.733867	-1.38855E-002	-1.52853E-005	0.00000E+000	-1.27000E-002	-8.40383E-004	10	..........a	-327.74
	518	0.7439	-2.08855E-002	-1.51084E-005	0.00000E+000	-1.97500E-002	-8.07050E-004	10	..........a	-327.74
	525	0.753933	-2.77855E-002	-1.62879E-005	0.00000E+000	-2.67500E-002	-7.84828E-004	10	..........a	-327.74
	532	0.763967	-3.49090E-002	-1.62289E-005	0.00000E+000	-3.37500E-002	-8.18161E-004	10	..........a	-327.74
	539	0.774	-4.19678E-002	-1.69956E-005	0.00000E+000	-4.08000E-002	-7.73717E-004	10	..........a	-327.74
	546	0.784033	-4.90208E-002	-1.71725E-005	0.00000E+000	-4.78000E-002	-7.51494E-004	10	..........a	-327.74
	553	0.794067	-5.60149E-002	-1.69956E-005	0.00000E+000	-5.48500E-002	-8.18161E-004	10	..........a	-327.74
	560	0.8041	-6.29914E-002	-1.72315E-005	0.00000E+000	-6.18500E-002	-7.73717E-004	10	..........a	-327.74
	567	0.814133	-7.00031E-002	-1.67597E-005	0.00000E+000	-6.89000E-002	-8.07050E-004	10	..........a	-327.74
	574	0.824167	-7.70031E-002	-1.77033E-005	0.00000E+000	-7.59000E-002	-8.07050E-004	10	..........a	-327.74
	581	0.8342	-8.40561E-002	-1.77033E-005	0.00000E+000	-8.29500E-002	-7.73717E-004	10	..........a	-327.74
	588	0.844233	-9.10796E-002	-1.74084E-005	0.00000E+000	-8.99500E-002	-7.84828E-004	10	..........a	-327.74
	595	0.854267	-9.81031E-002	-1.79982E-005	0.00000E+000	-9.70000E-002	-7.95939E-004	10	..........a	-327.74
	602	0.8643	-1.05103E-001	-1.87649E-005	0.00000E+000	-1.04000E-001	-8.18161E-004	10	..........a	-327.74
	609	0.874333	-1.12180E-001	-1.76443E-005	0.00000E+000	-1.11050E-001	-7.73717E-004	10	..........a	-327.74
	616	0.884367	-1.19191E-001	-1.87059E-005	0.00000E+000	-1.18050E-001	-8.18161E-004	10	..........a	-327.74
	623	0.8944	-1.26238E-001	-1.87059E-005	0.00000E+000	-1.25100E-001	-7.62605E-004	10	..........a	-327.74
	630	0.904433	-1.33268E-001	-1.97085E-005	0.00000E+000	-1.32100E-001	-8.40383E-004	10	..........a	-327.74
	637	0.914467	-1.40285E-001	-1.85880E-005	0.00000E+000	-1.39100E-001	-7.95939E-004	10	..........a	-327.74
	644	0.9245	-1.47227E-001	-1.97085E-005	0.00000E+000	-1.46150E-001	-7.40383E-004	10	..........a	-327.74
	651	0.934533	-1.54203E-001	-1.91187E-005	0.00000E+000	-1.53150E-001	-7.51494E-004	10	..........a	-327.74
	658	0.944567	-1.61344E-001	-2.02393E-005	0.00000E+000	-1.60200E-001	-8.29272E-004	10	..........a	-327.74
	665	0.9546	-1.68356E-001	-2.02983E-005	0.00000E+000	-1.67200E-001	-7.40383E-004	10	..........a	-327.74
	672	0.96463	-1.75356E-001	-2.06521E-005	0.00000E+000	-1.74250E-001	-7.73717E-004	10	..........a	-327.74
	679	0.97467	-1.82397E-001	-2.04752E-005	0.00000E+000	-1.81250E-001	-8.18161E-004	10	..........a	-327.74
	686	0.9847	-1.89385E-001	-2.01803E-005	0.00000E+000	-1.88300E-001	-8.29272E-004	10	..........a	-327.74
	693	0.99473	-1.96368E-001	-2.10650E-005	0.00000E+000	-1.95300E-001	-7.73717E-004	10	..........a	-327.74
	700	1.00477	-2.03485E-001	-2.10650E-005	0.00000E+000	-2.02350E-001	-7.51494E-004	10	..........a	-327.74
	707	1.0148	-2.10409E-001	-2.14778E-005	0.00000E+000	-2.09350E-001	-7.73717E-004	10	..........a	-327.74
	714	1.02483	-2.17456E-001	-2.18316E-005	0.00000E+000	-2.16400E-001	-7.84828E-004	10	..........a	-327.74
	721	1.03487	-2.24462E-001	-2.22445E-005	0.00000E+000	-2.23400E-001	-7.51494E-004	10	..........a	-327.74
	728	1.0449	-2.31503E-001	-2.22445E-005	0.00000E+000	-2.30450E-001	-8.07050E-004	10	..........a	-327.74
	735	1.05493	-2.38521E-001	-2.28932E-005	0.00000E+000	-2.37450E-001	-8.84828E-004	10	..........a	-327.74
	742	1.06497	-2.45515E-001	-2.27163E-005	0.00000E+000	-2.44450E-001	-7.62605E-004	10	..........a	-327.74
	749	1.075	-2.52674E-001	-2.50164E-005	0.00000E+000	-2.51500E-001	-7.95939E-004	10	..........a	-327.74
	756	1.08503	-2.59568E-001	-2.48394E-005	0.00000E+000	-2.58500E-001	-8.29272E-004	10	..........a	-327.74
	763	1.09507	-2.66627E-001	-2.56651E-005	0.00000E+000	-2.65550E-001	-7.62605E-004	10	..........a	-327.74
	770	1.1051	-2.73591E-001	-2.50164E-005	0.00000E+000	-2.72550E-001	-7.84828E-004	10	..........a	-327.74
	777	1.11513	-2.80603E-001	-2.67856E-005	0.00000E+000	-2.79600E-001	-7.84828E-004	10	..........a	-327.74
	784	1.12517	-2.87609E-001	-2.77882E-005	0.00000E+000	-2.86600E-001	-7.84828E-004	10	..........a	-327.74
	791	1.1352	-2.94715E-001	-2.81421E-005	0.00000E+000	-2.93650E-001	-8.18161E-004	10	..........a	-327.74
	798	1.14523	-3.01703E-001	-2.96165E-005	0.00000E+000	-3.00650E-001	-8.07050E-004	10	..........a	-327.74
	805	1.15527	-3.08774E-001	-2.95575E-005	0.00000E+000	-3.07700E-001	-7.73717E-004	10	..........a	-327.74
	812	1.1653	-3.15780E-001	-3.20345E-005	0.00000E+000	-3.14700E-001	-8.18161E-004	10	..........a	-327.74
	819	1.17533	-3.22809E-001	-3.16217E-005	0.00000E+000	-3.21750E-001	-7.95939E-004	10	..........a	-327.74
	826	1.18537	-3.29832E-001	-3.46884E-005	0.00000E+000	-3.28750E-001	-7.51494E-004	10	..........a	-327.74
	833	1.1954	-3.36827E-001	-3.48654E-005	0.00000E+000	-3.35800E-001	-7.51494E-004	10	..........a	-327.74
	840	1.20543	-3.43927E-001	-3.53372E-005	0.00000E+000	-3.42800E-001	-7.29272E-004	10	..........a	-327.74
	847	1.21547	-3.50785E-001	-3.72834E-005	0.00000E+000	-3.49800E-001	-8.18161E-004	10	..........a	-327.74
	854	1.2255	-3.57938E-001	-3.93476E-005	0.00000E+000	-3.56850E-001	-7.95939E-004	10	..........a	-327.74
	861	1.23553	-3.64874E-001	-4.07630E-005	0.00000E+000	-3.63850E-001	-8.40383E-004	10	..........a	-327.74
	868	1.24557	-3.71915E-001	-4.26502E-005	0.00000E+000	-3.70900E-001	-7.51494E-004	10	..........a	-327.74
	875	1.2556	-3.78950E-001	-4.51272E-005	0.00000E+000	-3.77900E-001	-7.73717E-004	10	..........a	-327.74
	882	1.26563	-3.85968E-001	-4.82529E-005	0.00000E+000	-3.84950E-001	-7.73717E-004	10	..........a	-327.74
	889	1.27567	-3.92974E-001	-5.21454E-005	0.00000E+000	-3.91950E-001	-7.84828E-004	10	..........a	-327.74
	896	1.2857	-4.00003E-001	-5.57429E-005	0.00000E+000	-3.99000E-001	-7.95939E-004	10	..........a	-327.74
	903	1.29573	-4.06956E-001	-6.03431E-005	0.00000E+000	-4.06000E-001	-7.40383E-004	10	..........a	-327.74
	910	1.30577	-4.14050E-001	-6.79510E-005	0.00000E+000	-4.13050E-001	-7.62605E-004	10	..........a	-327.74
	917	1.3158	-4.21091E-001	-7.62666E-005	0.00000E+000	-4.20050E-001	-7.95939E-004	10	..........a	-327.74
	924	1.32583	-4.28056E-001	-8.64105E-005	0.00000E+000	-4.27100E-001	-8.40383E-004	10	..........a	-327.74
	931	1.33587	-4.35121E-001	-9.97391E-005	0.00000E+000	-4.34100E-001	-7.40383E-004	10	..........a	-327.74
	938	1.3459	-4.42156E-001	-1.14542E-004	0.00000E+000	-4.41150E-001	-8.18161E-004	10	..........a	-327.74
	945	1.35593	-4.49162E-001	-1.32825E-004	0.00000E+000	-4.48150E-001	-8.40383E-004	10	..........a	-327.74
	952	1.36597	-4.56138E-001	-1.50694E-004	0.00000E+000	-4.55150E-001	-8.29272E-004	10	..........a	-327.74
	959	1.376	-4.63109E-001	-1.73872E-004	0.00000E+000	-4.62200E-001	-7.95939E-004	10	..........a	-327.74
	966	1.38603	-4.70256E-001	-1.96165E-004	0.00000E+000	-4.69200E-001	-7.84828E-004	10	..........a	-327.74
	973	1.39607	-4.77232E-001	-2.22174E-004	0.00000E+000	-4.76250E-001	-7.95939E-004	10	..........a	-327.74
	980	1.4061	-4.84262E-001	-2.49185E-004	0.00000E+000	-4.83250E-001	-7.73717E-004	10	..........a	-327.74
	987	1.41613	-4.91250E-001	-2.77847E-004	0.00000E+000	-4.90300E-001	-8.51494E-004	10	..........a	-327.74
	994	1.42617	-4.98262E-001	-3.11051E-004	0.00000E+000	-4.97300E-001	-7.95939E-004	10	..........a	-327.74
	1001	1.4362	-5.05332E-001	-3.46377E-004	0.00000E+000	-5.04350E-001	-8.18161E-004	10	..........a	-327.74
	1008	1.44623	-5.12332E-001	-3.85419E-004	0.00000E+000	-5.11350E-001	-7.95939E-004	10	..........a	-327.74
	1015	1.45627	-5.19403E-001	-4.29416E-004	0.00000E+000	-5.18400E-001	-8.07050E-004	10	..........a	-327.74
	1022	1.4663	-5.26350E-001	-4.78130E-004	0.00000E+000	-5.25400E-001	-7.84828E-004	10	..........a	-327.74
	1029	1.47633	-5.33368E-001	-5.30914E-004	0.00000E+000	-5.32450E-001	-7.84828E-004	10	..........a	-327.74
	1036	1.48637	-5.40391E-001	-5.85112E-004	0.00000E+000	-5.39450E-001	-8.29272E-004	10	..........a	-327.74
	1043	1.4964	-5.47462E-001	-6.40373E-004	0.00000E+000	-5.46500E-001	-7.40383E-004	10	..........a	-327.74
	1050	1.50643	-5.54433E-001	-6.94808E-004	0.00000E+000	-5.53500E-001	-7.40383E-004	10	..........a	-327.74
	1057	1.51647	-5.61456E-001	-7.41635E-004	0.00000E+000	-5.60500E-001	-8.84828E-004	10	..........a	-327.74
	1064	1.5265	-5.68474E-001	-7.81857E-004	0.00000E+000	-5.67550E-001	-7.51494E-004	10	..........a	-327.74
	1071	1.53653	-5.75521E-001	-8.07865E-004	0.00000E+000	-5.74550E-001	-7.73717E-004	10	..........a	-327.74
	1078	1.54657	-5.82597E-001	-8.21489E-004	0.00000E+000	-5.81600E-001	-8.07050E-004	10	..........a	-327.74
	1085	1.5566	-5.89485E-001	-8.19012E-004	0.00000E+000	-5.88600E-001	-7.62605E-004	10	..........a	-327.74
	1092	1.56663	-5.96615E-001	-8.04975E-004	0.00000E+000	-5.95650E-001	-8.40383E-004	10	..........a	-327.74
	1099	1.57667	-6.03580E-001	-7.76077E-004	0.00000E+000	-6.02650E-001	-7.73717E-004	10	..........a	-327.74
	1106	1.5867	-6.10680E-001	-7.45174E-004	0.00000E+000	-6.09700E-001	-7.95939E-004	10	..........a	-327.74
	1113	1.59673	-6.17621E-001	-7.10083E-004	0.00000E+000	-6.16700E-001	-7.73717E-004	10	..........a	-327.74
	1120	1.60677	-6.24597E-001	-6.75936E-004	0.00000E+000	-6.23750E-001	-7.73717E-004	10	..........a	-327.74
	1127	1.6168	-6.31680E-001	-6.46802E-004	0.00000E+000	-6.30750E-001	-8.07050E-004	10	..........a	-327.74
	1134	1.62683	-6.38744E-001	-6.17785E-004	0.00000E+000	-6.37800E-001	-8.18161E-004	10	..........a	-327.74
	1141	1.63687	-6.45680E-001	-5.94431E-004	0.00000E+000	-6.44800E-001	-8.40383E-004	10	..........a	-327.74
	1148	1.6469	-6.52721E-001	-5.72728E-004	0.00000E+000	-6.51850E-001	-7.51494E-004	10	..........a	-327.74
	1155	1.65693	-6.59703E-001	-5.53796E-004	0.00000E+000	-6.58850E-001	-8.18161E-004	10	..........a	-327.74
	1162	1.66697	-6.66727E-001	-5.36988E-004	0.00000E+000	-6.65850E-001	-7.51494E-004	10	..........a	-327.74
	1169	1.677	-6.73844E-001	-5.22657E-004	0.00000E+000	-6.72900E-001	-8.51494E-004	10	..........a	-327.74
	1176	1.68703	-6.80803E-001	-5.06851E-004	0.00000E+000	-6.79900E-001	-8.73717E-004	10	..........a	-327.74
	1183	1.69707	-6.87862E-001	-4.94643E-004	0.00000E+000	-6.86950E-001	-7.95939E-004	10	..........a	-327.74
	1190	1.7071	-6.94791E-001	-4.80489E-004	0.00000E+000	-6.93950E-001	-8.07050E-004	10	..........a	-327.74
	1197	1.71713	-7.01927E-001	-4.70345E-004	0.00000E+000	-7.01000E-001	-7.51494E-004	10	..........a	-327.74
	1204	1.72717	-7.08856E-001	-4.58019E-004	0.00000E+000	-7.08000E-001	-7.84828E-004	10	..........a	-327.74
	1211	1.7372	-7.15915E-001	-4.47285E-004	0.00000E+000	-7.15050E-001	-8.07050E-004	10	..........a	-327.74
	1218	1.74723	-7.22938E-001	-4.36493E-004	0.00000E+000	-7.22050E-001	-7.62605E-004	10	..........a	-327.74
	1225	1.75727	-7.29980E-001	-4.25641E-004	0.00000E+000	-7.29100E-001	-7.51494E-004	10	..........a	-327.74
	1232	1.7673	-7.37003E-001	-4.17974E-004	0.00000E+000	-7.36100E-001	-8.29272E-004	10	..........a	-327.74
	1239	1.77733	-7.44033E-001	-4.08656E-004	0.00000E+000	-7.43150E-001	-8.51494E-004	10	..........a	-327.74
	1246	1.78737	-7.50944E-001	-4.00340E-004	0.00000E+000	-7.50150E-001	-7.95939E-004	10	..........a	-327.74
	1253	1.7974	-7.58109E-001	-3.93558E-004	0.00000E+000	-7.57200E-001	-8.07050E-004	10	..........a	-327.74
	1260	1.80743	-7.65109E-001	-3.85655E-004	0.00000E+000	-7.64200E-001	-7.62605E-004	10	..........a	-327.74
	1267	1.81747	-7.72044E-001	-3.77752E-004	0.00000E+000	-7.71200E-001	-8.07050E-004	10	..........a	-327.74
	1274	1.8275	-7.79203E-001	-3.71796E-004	0.00000E+000	-7.78250E-001	-7.73717E-004	10	..........a	-327.74
	1281	1.83753	-7.86127E-001	-3.65603E-004	0.00000E+000	-7.85250E-001	-7.84828E-004	10	..........a	-327.74
	1288	1.84757	-7.93209E-001	-3.59352E-004	0.00000E+000	-7.92300E-001	-7.84828E-004	10	..........a	-327.74
	1295	1.8576	-8.00174E-001	-3.53336E-004	0.00000E+000	-7.99300E-001	-8.18161E-004	10	..........a	-327.74
	1302	1.86763	-8.07197E-001	-3.49739E-004	0.00000E+000	-8.06350E-001	-7.51494E-004	10	..........a	-327.74
	1309	1.87767	-8.14244E-001	-3.43016E-004	0.00000E+000	-8.13350E-001	-8.07050E-004	10	..........a	-327.74
	1316	1.8877	-8.21209E-001	-3.38710E-004	0.00000E+000	-8.20400E-001	-8.29272E-004	10	..........a	-327.74
	1323	1.89773	-8.28238E-001	-3.33344E-004	0.00000E+000	-8.27400E-001	-7.51494E-004	10	..........a	-327.74
	1330	1.90777	-8.35244E-001	-3.29805E-004	0.00000E+000	-8.34450E-001	-7.51494E-004	10	..........a	-327.74
	1337	1.9178	-8.42262E-001	-3.25500E-004	0.00000E+000	-8.41450E-001	-7.84828E-004	10	..........a	-327.74
	1344	1.92783	-8.49280E-001	-3.19897E-004	0.00000E+000	-8.48500E-001	-8.51494E-004	10	..........a	-327.74
	1351	1.93787	-8.56321E-001	-3.15651E-004	0.00000E+000	-8.55500E-001	-8.40383E-004	10	..........a	-327.74
	1358	1.9479	-8.63332E-001	-3.12348E-004	0.00000E+000	-8.62550E-001	-8.29272E-004	10	..........a	-327.74
	1365	1.95793	-8.70368E-001	-3.08986E-004	0.00000E+000	-8.69550E-001	-7.73717E-004	10	..........a	-327.74
	1372	1.96797	-8.77362E-001	-3.05448E-004	0.00000E+000	-8.76550E-001	-8.18161E-004	10	..........a	-327.74
	1379	1.978	-8.84391E-001	-3.02558E-004	0.00000E+000	-8.83600E-001	-7.62605E-004	10	..........a	-327.74
	1386	1.98803	-8.91350E-001	-2.98901E-004	0.00000E+000	-8.90600E-001	-7.40383E-004	10	..........a	-327.74
	1393	1.99807	-8.98391E-001	-2.94773E-004	0.00000E+000	-8.97650E-001	-8.07050E-004	10	..........a	-327.74
	1400	2.0081	-9.05491E-001	-2.93240E-004	0.00000E+000	-9.04650E-001	-8.40383E-004	10	..........a	-327.74
	1407	2.01813	-9.12456E-001	-2.89701E-004	0.00000E+000	-9.11700E-001	-8.29272E-004	10	..........a	-327.74
	1414	2.02817	-9.19521E-001	-2.86222E-004	0.00000E+000	-9.18700E-001	-8.29272E-004	10	..........a	-327.74
	1421	2.0382	-9.26562E-001	-2.84629E-004	0.00000E+000	-9.25750E-001	-8.18161E-004	10	..........a	-327.74
	1428	2.04823	-9.33456E-001	-2.80560E-004	0.00000E+000	-9.32750E-001	-8.07050E-004	10	..........a	-327.74
	1435	2.05827	-9.40603E-001	-2.79439E-004	0.00000E+000	-9.39800E-001	-7.62605E-004	10	..........a	-327.74
	1442	2.0683	-9.47550E-001	-2.75901E-004	0.00000E+000	-9.46800E-001	-7.29272E-004	10	..........a	-327.74
	1449	2.07833	-9.54597E-001	-2.74190E-004	0.00000E+000	-9.53850E-001	-8.62605E-004	10	..........a	-327.74
	1456	2.08837	-9.61603E-001	-2.72126E-004	0.00000E+000	-9.60850E-001	-7.73717E-004	10	..........a	-327.74
	1463	2.0984	-9.68644E-001	-2.69826E-004	0.00000E+000	-9.67900E-001	-7.29272E-004	10	..........a	-327.74
	1470	2.10843	-9.75615E-001	-2.67467E-004	0.00000E+000	-9.74900E-001	-8.18161E-004	10	..........a	-327.74
	1477	2.11847	-9.82738E-001	-2.66170E-004	0.00000E+000	-9.81900E-001	-7.73717E-004	10	..........a	-327.74
	1484	2.1285	-9.89668E-001	-2.63929E-004	0.00000E+000	-9.88950E-001	-7.73717E-004	10	..........a	-327.74
	1491	2.13853	-9.96727E-001	-2.62631E-004	0.00000E+000	-9.95950E-001	-7.84828E-004	10	..........a	-327.74
	1498	2.14857	-9.97756E-001	-2.50010E-004	0.00000E+000	-9.96950E-001	-7.95939E-004	10	..........a	-327.74
	1505	2.1586	-9.90674E-001	-2.39866E-004	0.00000E+000	-9.89950E-001	-8.07050E-004	10	..........a	-327.74
	1512	2.16863	-9.83632E-001	-2.35561E-004	0.00000E+000	-9.82950E-001	-7.84828E-004	10	..........a	-327.74
	1519	2.17867	-9.76632E-001	-2.29015E-004	0.00000E+000	-9.75900E-001	-7.51494E-004	10	..........a	-327.74
	1526	2.1887	-9.69680E-001	-2.25417E-004	0.00000E+000	-9.68900E-001	-7.51494E-004	10	..........a	-327.74
	1533	2.19873	-9.62638E-001	-2.20758E-004	0.00000E+000	-9.61850E-001	-7.73717E-004	10	..........a	-327.74
	1540	2.20877	-9.55574E-001	-2.18222E-004	0.00000E+000	-9.54850E-001	-7.62605E-004	10	..........a	-327.74
	1547	2.2188	-9.48597E-001	-2.16217E-004	0.00000E+000	-9.47800E-001	-8.51494E-004	10	..........a	-327.74
	1554	2.22883	-9.41521E-001	-2.13917E-004	0.00000E+000	-9.40800E-001	-7.62605E-004	10	..........a	-327.74
	1561	2.23887	-9.34474E-001	-2.11086E-004	0.00000E+000	-9.33750E-001	-7.18161E-004	10	..........a	-327.74
	1568	2.2489	-9.27538E-001	-2.09730E-004	0.00000E+000	-9.26750E-001	-8.51494E-004	10	..........a	-327.74
	1575	2.25893	-9.20415E-001	-2.06663E-004	0.00000E+000	-9.19700E-001	-8.18161E-004	10	..........a	-327.74
	1582	2.26897	-9.13468E-001	-2.04186E-004	0.00000E+000	-9.12700E-001	-7.73717E-004	10	..........a	-327.74
	1589	2.279	-9.06427E-001	-2.02711E-004	0.00000E+000	-9.05650E-001	-8.40383E-004	10	..........a	-327.74
	1596	2.28903	-8.99474E-001	-2.01827E-004	0.00000E+000	-8.98650E-001	-7.84828E-004	10	..........a	-327.74
	1603	2.29907	-8.92380E-001	-1.99645E-004	0.00000E+000	-8.91600E-001	-8.18161E-004	10	..........a	-327.74
	1610	2.3091	-8.85362E-001	-1.97757E-004	0.00000E+000	-8.84600E-001	-7.51494E-004	10	..........a	-327.74
	1617	2.31913	-8.78385E-001	-1.96755E-004	0.00000E+000	-8.77600E-001	-8.40383E-004	10	..........a	-327.74
	1624	2.32917	-8.71332E-001	-1.94573E-004	0.00000E+000	-8.70550E-001	-7.95939E-004	10	..........a	-327.74
	1631	2.3392	-8.64368E-001	-1.92509E-004	0.00000E+000	-8.63550E-001	-8.18161E-004	10	..........a	-327.74
	1638	2.34923	-8.57244E-001	-1.90680E-004	0.00000E+000	-8.56500E-001	-7.84828E-004	10	..........a	-327.74
	1645	2.35927	-8.50227E-001	-1.90562E-004	0.00000E+000	-8.49500E-001	-7.84828E-004	10	..........a	-327.74
	1652	2.3693	-8.43256E-001	-1.88911E-004	0.00000E+000	-8.42450E-001	-7.73717E-004	10	..........a	-327.74
	1659	2.37933	-8.36232E-001	-1.87024E-004	0.00000E+000	-8.35450E-001	-7.95939E-004	10	..........a	-327.74
	1666	2.38937	-8.29221E-001	-1.85254E-004	0.00000E+000	-8.28400E-001	-8.07050E-004	10	..........a	-327.74
	1673	2.3994	-8.22227E-001	-1.84606E-004	0.00000E+000	-8.21400E-001	-8.07050E-004	10	..........a	-327.74
	1680	2.40943	-8.15209E-001	-1.83721E-004	0.00000E+000	-8.14350E-001	-8.51494E-004	10	..........a	-327.74
	1687	2.41947	-8.08197E-001	-1.83131E-004	0.00000E+000	-8.07350E-001	-7.73717E-004	10	..........a	-327.74
	1694	2.4295	-8.01168E-001	-1.80418E-004	0.00000E+000	-8.00300E-001	-7.84828E-004	10	..........a	-327.74
	1701	2.43953	-7.94103E-001	-1.79121E-004	0.00000E+000	-7.93300E-001	-7.84828E-004	10	..........a	-327.74
	1708	2.44957	-7.87174E-001	-1.77293E-004	0.00000E+000	-7.86250E-001	-7.29272E-004	10	..........a	-327.74
	1715	2.4596	-7.80191E-001	-1.76821E-004	0.00000E+000	-7.79250E-001	-7.95939E-004	10	..........a	-327.74
	1722	2.46963	-7.73144E-001	-1.76054E-004	0.00000E+000	-7.72250E-001	-7.95939E-004	10	..........a	-327.74
	1729	2.47967	-7.66109E-001	-1.74521E-004	0.00000E+000	-7.65200E-001	-8.18161E-004	10	..........a	-327.74
	1736	2.4897	-7.59003E-001	-1.72634E-004	0.00000E+000	-7.58200E-001	-8.29272E-004	10	..........a	-327.74
	1743	2.49973	-7.52038E-001	-1.71749E-004	0.00000E+000	-7.51150E-001	-7.73717E-004	10	..........a	-327.74
	1750	2.50977	-7.45027E-001	-1.70687E-004	0.00000E+000	-7.44150E-001	-7.73717E-004	10	..........a	-327.74
	1757	2.5198	-7.37991E-001	-1.69508E-004	0.00000E+000	-7.37100E-001	-7.73717E-004	10	..........a	-327.74
	1764	2.52983	-7.30974E-001	-1.68387E-004	0.00000E+000	-7.30100E-001	-7.73717E-004	10	..........a	-327.74
	1771	2.53987	-7.23927E-001	-1.65085E-004	0.00000E+000	-7.23050E-001	-7.40383E-004	10	..........a	-327.74
	1778	2.5499	-7.16950E-001	-1.65438E-004	0.00000E+000	-7.16050E-001	-7.84828E-004	10	..........a	-327.74
	1785	2.55993	-7.09927E-001	-1.62608E-004	0.00000E+000	-7.09000E-001	-7.95939E-004	10	..........a	-327.74
	1792	2.56997	-7.02868E-001	-1.61605E-004	0.00000E+000	-7.02000E-001	-8.07050E-004	10	..........a	-327.74
	1799	2.58	-6.95915E-001	-1.59069E-004	0.00000E+000	-6.94950E-001	-8.29272E-004	10	..........a	-327.74
	1806	2.59003	-6.88885E-001	-1.57359E-004	0.00000E+000	-6.87950E-001	-7.62605E-004	10	..........a	-327.74
	1813	2.60007	-6.81791E-001	-1.56474E-004	0.00000E+000	-6.80900E-001	-8.07050E-004	10	..........a	-327.74
	1820	2.6101	-6.74803E-001	-1.54587E-004	0.00000E+000	-6.73900E-001	-7.73717E-004	10	..........a	-327.74
	1827	2.62013	-6.67762E-001	-1.51048E-004	0.00000E+000	-6.66900E-001	-7.73717E-004	10	..........a	-327.74
	1834	2.63017	-6.60750E-001	-1.49810E-004	0.00000E+000	-6.59850E-001	-7.95939E-004	10	..........a	-327.74
	1841	2.6402	-6.53738E-001	-1.45858E-004	0.00000E+000	-6.52850E-001	-7.62605E-004	10	..........a	-327.74
	1848	2.65023	-6.46691E-001	-1.41730E-004	0.00000E+000	-6.45800E-001	-7.62605E-004	10	..........a	-327.74
	1855	2.66027	-6.39744E-001	-1.39076E-004	0.00000E+000	-6.38800E-001	-7.73717E-004	10	..........a	-327.74
	1862	2.6703	-6.32674E-001	-1.34181E-004	0.00000E+000	-6.31750E-001	-7.73717E-004	10	..........a	-327.74
	1869	2.68033	-6.25738E-001	-1.28402E-004	0.00000E+000	-6.24750E-001	-7.73717E-004	10	..........a	-327.74
	1876	2.69037	-6.18603E-001	-1.22504E-004	0.00000E+000	-6.17700E-001	-7.62605E-004	10	..........a	-327.74
	1883	2.7004	-6.11650E-001	-1.12183E-004	0.00000E+000	-6.10700E-001	-7.84828E-004	10	..........a	-327.74
	1890	2.71043	-6.04632E-001	-1.00034E-004	0.00000E+000	-6.03650E-001	-7.62605E-004	10	..........a	-327.74
	1897	2.72047	-5.97621E-001	-8.70592E-005	0.00000E+000	-5.96650E-001	-8.07050E-004	10	..........a	-327.74
	1904	2.7305	-5.90521E-001	-6.61817E-005	0.00000E+000	-5.89600E-001	-7.40383E-004	10	..........a	-327.74
	1911	2.74053	-5.83585E-001	-4.22374E-005	0.00000E+000	-5.82600E-001	-7.95939E-004	10	..........a	-327.74
	1918	2.75057	-5.76503E-001	-1.10390E-005	0.00000E+000	-5.75550E-001	-7.73717E-004	10	..........a	-327.74
	1925	2.7606	-5.69538E-001	2.81211E-005	0.00000E+000	-5.68550E-001	-8.18161E-004	10	..........a	-327.74
	1932	2.77063	-5.62503E-001	6.87557E-005	0.00000E+000	-5.61550E-001	-8.07050E-004	10	..........a	-327.74
	1939	2.78067	-5.55485E-001	1.14816E-004	0.00000E+000	-5.54500E-001	-8.73717E-004	10	..........a	-327.74
	1946	2.7907	-5.48421E-001	1.63353E-004	0.00000E+000	-5.47500E-001	-7.95939E-004	10	..........a	-327.74
	1953	2.80073	-5.41391E-001	2.11065E-004	0.00000E+000	-5.40450E-001	-8.07050E-004	10	..........a	-327.74
	1960	2.81077	-5.34397E-001	2.56772E-004	0.00000E+000	-5.33450E-001	-8.18161E-004	10	..........a	-327.74
	1967	2.8208	-5.27368E-001	2.98350E-004	0.00000E+000	-5.26400E-001	-8.51494E-004	10	..........a	-327.74
	1974	2.83083	-5.20350E-001	3.35800E-004	0.00000E+000	-5.19400E-001	-8.29272E-004	10	..........a	-327.74
	1981	2.84087	-5.13309E-001	3.67293E-004	0.00000E+000	-5.12350E-001	-8.62605E-004	10	..........a	-327.74
	1988	2.8509	-5.06344E-001	3.94245E-004	0.00000E+000	-5.05350E-001	-8.62605E-004	10	..........a	-327.74
	1995	2.86093	-4.99238E-001	4.16597E-004	0.00000E+000	-4.98300E-001	-8.29272E-004	10	..........a	-327.74
	2002	2.87097	-4.92297E-001	4.32343E-004	0.00000E+000	-4.91300E-001	-8.18161E-004	10	..........a	-327.74
	2009	2.881	-4.85238E-001	4.43844E-004	0.00000E+000	-4.84250E-001	-7.73717E-004	10	..........a	-327.74
	2016	2.89103	-4.78262E-001	4.48798E-004	0.00000E+000	-4.77250E-001	-8.51494E-004	10	..........a	-327.74
	2023	2.90107	-4.71103E-001	4.51452E-004	0.00000E+000	-4.70200E-001	-8.18161E-004	10	..........a	-327.74
	2030	2.9111	-4.64221E-001	4.46262E-004	0.00000E+000	-4.63200E-001	-8.40383E-004	10	..........a	-327.74
	2037	2.92113	-4.57209E-001	4.41367E-004	0.00000E+000	-4.56200E-001	-8.40383E-004	10	..........a	-327.74
	2044	2.93117	-4.50097E-001	4.31105E-004	0.00000E+000	-4.49150E-001	-7.51494E-004	10	..........a	-327.74
	2051	2.9412	-4.43191E-001	4.19840E-004	0.00000E+000	-4.42150E-001	-8.18161E-004	10	..........a	-327.74
	2058	2.95123	-4.36109E-001	4.08517E-004	0.00000E+000	-4.35100E-001	-8.07050E-004	10	..........a	-327.74
	2065	2.96127	-4.29156E-001	3.95071E-004	0.00000E+000	-4.28100E-001	-8.29272E-004	10	..........a	-327.74
	2072	2.9713	-4.22027E-001	3.82214E-004	0.00000E+000	-4.21050E-001	-7.73717E-004	10	..........a	-327.74
	2079	2.98133	-4.15021E-001	3.69121E-004	0.00000E+000	-4.14050E-001	-8.62605E-004	10	..........a	-327.74
	2086	2.99137	-4.08062E-001	3.56677E-004	0.00000E+000	-4.07000E-001	-8.18161E-004	10	..........a	-327.74
	2093	3.0014	-4.01038E-001	3.45707E-004	0.00000E+000	-4.00000E-001	-8.40383E-004	10	..........a	-327.74
	2100	3.01143	-3.93985E-001	3.33912E-004	0.00000E+000	-3.92950E-001	-8.29272E-004	10	..........a	-327.74
	2107	3.02147	-3.86997E-001	3.24181E-004	0.00000E+000	-3.85950E-001	-8.07050E-004	10	..........a	-327.74
	2114	3.0315	-3.79938E-001	3.13625E-004	0.00000E+000	-3.78900E-001	-8.95939E-004	10	..........a	-327.74
	2121	3.04153	-3.72915E-001	3.04188E-004	0.00000E+000	-3.71900E-001	-8.29272E-004	10	..........a	-327.74
	2128	3.05157	-3.65874E-001	2.96993E-004	0.00000E+000	-3.64850E-001	-7.95939E-004	10	..........a	-327.74
	2135	3.0616	-3.58803E-001	2.89444E-004	0.00000E+000	-3.57850E-001	-7.84828E-004	10	..........a	-327.74
	2142	3.07163	-3.51909E-001	2.81718E-004	0.00000E+000	-3.50850E-001	-7.84828E-004	10	..........a	-327.74
	2149	3.08167	-3.44815E-001	2.74700E-004	0.00000E+000	-3.43800E-001	-8.18161E-004	10	..........a	-327.74
	2156	3.0917	-3.37844E-001	2.69510E-004	0.00000E+000	-3.36800E-001	-7.95939E-004	10	..........a	-327.74
	2163	3.10173	-3.30815E-001	2.63200E-004	0.00000E+000	-3.29750E-001	-8.18161E-004	10	..........a	-327.74
	2170	3.11177	-3.23715E-001	2.57597E-004	0.00000E+000	-3.22750E-001	-8.18161E-004	10	..........a	-327.74
	2177	3.1218	-3.16815E-001	2.51228E-004	0.00000E+000	-3.15700E-001	-8.51494E-004	10	..........a	-327.74
	2184	3.13183	-3.09803E-001	2.45802E-004	0.00000E+000	-3.08700E-001	-8.51494E-004	10	..........a	-327.74
	2191	3.14187	-3.02727E-001	2.40612E-004	0.00000E+000	-3.01650E-001	-8.18161E-004	10	..........a	-327.74
	2198	3.1519	-2.95638E-001	2.36779E-004	0.00000E+000	-2.94650E-001	-8.18161E-004	10	..........a	-327.74
	2205	3.16193	-2.88644E-001	2.32002E-004	0.00000E+000	-2.87600E-001	-8.51494E-004	10	..........a	-327.74
	2212	3.17197	-2.81603E-001	2.27107E-004	0.00000E+000	-2.80600E-001	-8.73717E-004	10	..........a	-327.74
	2219	3.182	-2.74656E-001	2.22565E-004	0.00000E+000	-2.73550E-001	-8.07050E-004	10	..........a	-327.74
	2226	3.19203	-2.67603E-001	2.17847E-004	0.00000E+000	-2.66550E-001	-8.84828E-004	10	..........a	-327.74
	2233	3.20207	-2.60550E-001	2.13365E-004	0.00000E+000	-2.59500E-001	-8.51494E-004	10	..........a	-327.74
	2240	3.2121	-2.53538E-001	2.08824E-004	0.00000E+000	-2.52500E-001	-8.51494E-004	10	..........a	-327.74
	2247	3.22213	-2.46568E-001	2.04165E-004	0.00000E+000	-2.45500E-001	-8.29272E-004	10	..........a	-327.74
	2254	3.23217	-2.39550E-001	2.01570E-004	0.00000E+000	-2.38450E-001	-8.18161E-004	10	..........a	-327.74
	2261	3.2422	-2.32444E-001	1.97147E-004	0.00000E+000	-2.31450E-001	-7.84828E-004	10	..........a	-327.74
	2268	3.25223	-2.25509E-001	1.92075E-004	0.00000E+000	-2.24400E-001	-8.07050E-004	10	..........a	-327.74
	2275	3.26227	-2.18456E-001	1.88418E-004	0.00000E+000	-2.17400E-001	-8.07050E-004	10	..........a	-327.74
	2282	3.2723	-2.11491E-001	1.84113E-004	0.00000E+000	-2.10350E-001	-8.29272E-004	10	..........a	-327.74
	2289	3.28233	-2.04427E-001	1.81046E-004	0.00000E+000	-2.03350E-001	-8.73717E-004	10	..........a	-327.74
	2296	3.29237	-1.97380E-001	1.77213E-004	0.00000E+000	-1.96300E-001	-8.40383E-004	10	..........a	-327.74
	2303	3.3024	-1.90397E-001	1.73320E-004	0.00000E+000	-1.89300E-001	-8.29272E-004	10	..........a	-327.74
	2310	3.31243	-1.83303E-001	1.70136E-004	0.00000E+000	-1.82250E-001	-8.29272E-004	10	..........a	-327.74
	2317	3.32247	-1.76368E-001	1.68543E-004	0.00000E+000	-1.75250E-001	-7.62605E-004	10	..........a	-327.74
	2324	3.3325	-1.69309E-001	1.63648E-004	0.00000E+000	-1.68200E-001	-7.73717E-004	10	..........a	-327.74
	2331	3.34253	-1.62262E-001	1.60581E-004	0.00000E+000	-1.61200E-001	-8.40383E-004	10	..........a	-327.74
	2338	3.35257	-1.55250E-001	1.58989E-004	0.00000E+000	-1.54150E-001	-8.51494E-004	10	..........a	-327.74
	2345	3.3626	-1.48280E-001	1.54743E-004	0.00000E+000	-1.47150E-001	-8.07050E-004	10	..........a	-327.74
	2352	3.37263	-1.41256E-001	1.53327E-004	0.00000E+000	-1.40150E-001	-7.84828E-004	10	..........a	-327.74
	2359	3.38267	-1.34280E-001	1.51145E-004	0.00000E+000	-1.33100E-001	-8.84828E-004	10	..........a	-327.74
	2366	3.3927	-1.27203E-001	1.47489E-004	0.00000E+000	-1.26100E-001	-8.51494E-004	10	..........a	-327.74
	2373	3.40273	-1.20197E-001	1.44481E-004	0.00000E+000	-1.19050E-001	-7.84828E-004	10	..........a	-327.74
	2380	3.41277	-1.13121E-001	1.44245E-004	0.00000E+000	-1.12050E-001	-8.95939E-004	10	..........a	-327.74
	2387	3.4228	-1.06068E-001	1.41355E-004	0.00000E+000	-1.05000E-001	-8.18161E-004	10	..........a	-327.74
	2394	3.43283	-9.91443E-002	1.40883E-004	0.00000E+000	-9.80000E-002	-7.84828E-004	10	..........a	-327.74
	2401	3.44287	-9.20914E-002	1.37817E-004	0.00000E+000	-9.09500E-002	-8.51494E-004	10	..........a	-327.74
	2408	3.4529	-8.51149E-002	1.37522E-004	0.00000E+000	-8.39500E-002	-8.29272E-004	10	..........a	-327.74
	2415	3.46293	-7.80031E-002	1.35222E-004	0.00000E+000	-7.69000E-002	-8.29272E-004	10	..........a	-327.74
	2422	3.47297	-7.10443E-002	1.35104E-004	0.00000E+000	-6.99000E-002	-8.07050E-004	10	..........a	-327.74
	2429	3.483	-6.39266E-002	1.34396E-004	0.00000E+000	-6.28500E-002	-8.40383E-004	10	..........a	-327.74
	2436	3.49303	-5.69913E-002	1.33276E-004	0.00000E+000	-5.58500E-002	-8.51494E-004	10	..........a	-327.74
	2443	3.50307	-4.99796E-002	1.32863E-004	0.00000E+000	-4.88000E-002	-8.18161E-004	10	..........a	-327.74
	2450	3.5131	-4.29266E-002	1.32686E-004	0.00000E+000	-4.18000E-002	-8.51494E-004	10	..........a	-327.74
	2457	3.52313	-3.59325E-002	1.32568E-004	0.00000E+000	-3.48000E-002	-8.29272E-004	10	..........a	-327.74
	2464	3.53317	-2.88796E-002	1.32450E-004	0.00000E+000	-2.77500E-002	-8.07050E-004	10	..........a	-327.74
	2471	3.5432	-2.19443E-002	1.32096E-004	0.00000E+000	-2.07500E-002	-8.29272E-004	10	..........a	-327.74
	2478	3.55323	-1.48737E-002	1.32863E-004	0.00000E+000	-1.37000E-002	-8.40383E-004	10	..........a	-327.74
	2485	3.56327	-7.89135E-003	1.33452E-004	0.00000E+000	-6.70001E-003	-8.07050E-004	10	..........a	-327.74
	2492	3.5733	-7.85468E-004	1.33570E-004	0.00000E+000	3.49998E-004	-8.29272E-004	10	..........a	-327.74
	2499	3.58333	6.18512E-003	1.32922E-004	0.00000E+000	7.35000E-003	-9.18161E-004	10	..........a	-327.74
	2506	3.59337	1.32028E-002	1.33335E-004	0.00000E+000	1.44000E-002	-8.51494E-004	10	..........a	-327.74
	2513	3.6034	2.02910E-002	1.34986E-004	0.00000E+000	2.14000E-002	-8.40383E-004	10	..........a	-327.74
	2520	3.61343	2.72204E-002	1.34809E-004	0.00000E+000	2.84500E-002	-8.18161E-004	10	..........a	-327.74
	2527	3.62347	3.43263E-002	1.34514E-004	0.00000E+000	3.54500E-002	-8.07050E-004	10	..........a	-327.74
	2534	3.6335	4.12969E-002	1.34514E-004	0.00000E+000	4.25000E-002	-8.40383E-004	10	..........a	-327.74
	2541	3.64353	4.83498E-002	1.34396E-004	0.00000E+000	4.95000E-002	-7.84828E-004	10	..........a	-327.74
	2548	3.65357	5.53969E-002	1.33688E-004	0.00000E+000	5.65500E-002	-7.95939E-004	10	..........a	-327.74
	2555	3.6636	6.23557E-002	1.33511E-004	0.00000E+000	6.35500E-002	-8.18161E-004	10	..........a	-327.74
	2562	3.67363	6.94028E-002	1.31742E-004	0.00000E+000	7.05500E-002	-7.84828E-004	10	..........a	-327.74
	2569	3.68367	7.64792E-002	1.31211E-004	0.00000E+000	7.76000E-002	-8.84828E-004	10	..........a	-327.74
	2576	3.6937	8.34204E-002	1.30268E-004	0.00000E+000	8.46000E-002	-8.18161E-004	10	..........a	-327.74
	2583	3.70373	9.05616E-002	1.28911E-004	0.00000E+000	9.16500E-002	-8.51494E-004	10	..........a	-327.74
	2590	3.71377	9.74322E-002	1.26139E-004	0.00000E+000	9.86500E-002	-8.40383E-004	10	..........a	-327.74
	2597	3.7238	1.04544E-001	1.25786E-004	0.00000E+000	1.05700E-001	-8.07050E-004	10	..........a	-327.74
	2604	3.73383	1.11544E-001	1.22365E-004	0.00000E+000	1.12700E-001	-8.07050E-004	10	..........a	-327.74
	2611	3.74387	1.18467E-001	1.20655E-004	0.00000E+000	1.19750E-001	-7.84828E-004	10	..........a	-327.74
	2618	3.7539	1.25562E-001	1.19416E-004	0.00000E+000	1.26750E-001	-7.84828E-004	10	..........a	-327.74
	2625	3.76393	1.32562E-001	1.16703E-004	0.00000E+000	1.33800E-001	-8.29272E-004	10	..........a	-327.74
	2632	3.77397	1.39597E-001	1.14934E-004	0.00000E+000	1.40800E-001	-8.29272E-004	10	..........a	-327.74
	2639	3.784	1.46726E-001	1.12516E-004	0.00000E+000	1.47850E-001	-8.51494E-004	10	..........a	-327.74
	2646	3.79403	1.53662E-001	1.08977E-004	0.00000E+000	1.54850E-001	-8.51494E-004	10	..........a	-327.74
	2653	3.80407	1.60679E-001	1.07739E-004	0.00000E+000	1.61900E-001	-8.07050E-004	10	..........a	-327.74
	2660	3.8141	1.67697E-001	1.06029E-004	0.00000E+000	1.68900E-001	-8.18161E-004	10	..........a	-327.74
	2667	3.82413	1.74667E-001	1.04200E-004	0.00000E+000	1.75900E-001	-8.84828E-004	10	..........a	-327.74
	2674	3.83417	1.81726E-001	1.01546E-004	0.00000E+000	1.82950E-001	-8.07050E-004	10	..........a	-327.74
	2681	3.8442	1.88756E-001	1.01134E-004	0.00000E+000	1.89950E-001	-8.40383E-004	10	..........a	-327.74
	2688	3.85423	1.95762E-001	9.86566E-005	0.00000E+000	1.97000E-001	-7.95939E-004	10	..........a	-327.74
	2695	3.86427	2.02785E-001	9.89514E-005	0.00000E+000	2.04000E-001	-8.07050E-004	10	..........a	-327.74
	2702	3.8743	2.09767E-001	9.62975E-005	0.00000E+000	2.11050E-001	-8.62605E-004	10	..........a	-327.74
	2709	3.88433	2.16803E-001	9.53539E-005	0.00000E+000	2.18050E-001	-8.95939E-004	10	..........a	-327.74
	2716	3.89437	2.23779E-001	9.34077E-005	0.00000E+000	2.25100E-001	-7.73717E-004	10	..........a	-327.74
	2723	3.9044	2.30850E-001	9.31128E-005	0.00000E+000	2.32100E-001	-8.62605E-004	10	..........a	-327.74
	2730	3.91443	2.37873E-001	9.09307E-005	0.00000E+000	2.39150E-001	-8.29272E-004	10	..........a	-327.74
	2737	3.92447	2.44832E-001	9.02820E-005	0.00000E+000	2.46150E-001	-7.95939E-004	10	..........a	-327.74
	2744	3.9345	2.51944E-001	8.89255E-005	0.00000E+000	2.53200E-001	-8.29272E-004	10	..........a	-327.74
	2751	3.94453	2.58920E-001	8.82178E-005	0.00000E+000	2.60200E-001	-8.29272E-004	10	..........a	-327.74
	2758	3.95457	2.65973E-001	8.80998E-005	0.00000E+000	2.67250E-001	-8.51494E-004	10	..........a	-327.74
	2765	3.9646	2.73026E-001	8.60947E-005	0.00000E+000	2.74250E-001	-7.95939E-004	10	..........a	-327.74
	2772	3.97463	2.79967E-001	8.60357E-005	0.00000E+000	2.81250E-001	-7.84828E-004	10	..........a	-327.74
	2779	3.98467	2.86962E-001	8.57998E-005	0.00000E+000	2.88300E-001	-8.18161E-004	10	..........a	-327.74
	2786	3.9947	2.94009E-001	8.46792E-005	0.00000E+000	2.95300E-001	-7.73717E-004	10	..........a	-327.74
	2793	4.00473	3.01026E-001	8.39715E-005	0.00000E+000	3.02350E-001	-8.40383E-004	10	..........a	-327.74
	2800	4.01477	3.08067E-001	8.43254E-005	0.00000E+000	3.09350E-001	-7.95939E-004	10	..........a	-327.74
	2807	4.0248	3.15144E-001	8.40305E-005	0.00000E+000	3.16400E-001	-8.40383E-004	10	..........a	-327.74
	2814	4.03483	3.22091E-001	8.27920E-005	0.00000E+000	3.23400E-001	-8.40383E-004	10	..........a	-327.74
	2821	4.04487	3.29167E-001	8.23202E-005	0.00000E+000	3.30450E-001	-8.07050E-004	10	..........a	-327.74
	2828	4.0549	3.36126E-001	8.23202E-005	0.00000E+000	3.37450E-001	-7.95939E-004	10	..........a	-327.74
	2835	4.06493	3.43203E-001	8.14945E-005	0.00000E+000	3.44500E-001	-8.29272E-004	10	..........a	-327.74
	2842	4.07497	3.50156E-001	8.14945E-005	0.00000E+000	3.51500E-001	-8.07050E-004	10	..........a	-327.74
	2849	4.085	3.57256E-001	8.01970E-005	0.00000E+000	3.58550E-001	-8.29272E-004	10	..........a	-327.74
	2856	4.09503	3.64232E-001	8.06099E-005	0.00000E+000	3.65550E-001	-8.07050E-004	10	..........a	-327.74
	2863	4.10507	3.71256E-001	7.96662E-005	0.00000E+000	3.72600E-001	-8.29272E-004	10	..........a	-327.74
	2870	4.1151	3.78285E-001	8.08458E-005	0.00000E+000	3.79600E-001	-7.95939E-004	10	..........a	-327.74
	2877	4.12513	3.85256E-001	7.91944E-005	0.00000E+000	3.86600E-001	-8.29272E-004	10	..........a	-327.74
	2884	4.13517	3.92320E-001	7.88996E-005	0.00000E+000	3.93650E-001	-7.84828E-004	10	..........a	-327.74
	2891	4.1452	3.99356E-001	7.96662E-005	0.00000E+000	4.00650E-001	-8.73717E-004	10	..........a	-327.74
	2898	4.15523	4.06373E-001	7.95483E-005	0.00000E+000	4.07700E-001	-7.84828E-004	10	..........a	-327.74
	2905	4.16527	4.13385E-001	7.82508E-005	0.00000E+000	4.14700E-001	-8.07050E-004	10	..........a	-327.74
	2912	4.1753	4.20415E-001	7.71303E-005	0.00000E+000	4.21750E-001	-8.62605E-004	10	..........a	-327.74
	2919	4.18533	4.27426E-001	7.78380E-005	0.00000E+000	4.28750E-001	-8.29272E-004	10	..........a	-327.74
	2926	4.19537	4.34462E-001	7.70713E-005	0.00000E+000	4.35800E-001	-8.07050E-004	10	..........a	-327.74
	2933	4.2054	4.41444E-001	7.63046E-005	0.00000E+000	4.42800E-001	-8.62605E-004	10	..........a	-327.74
	2940	4.21543	4.48485E-001	7.57148E-005	0.00000E+000	4.49850E-001	-8.07050E-004	10	..........a	-327.74
	2947	4.22547	4.55550E-001	7.47712E-005	0.00000E+000	4.56850E-001	-8.07050E-004	10	..........a	-327.74
	2954	4.2355	4.62503E-001	7.51251E-005	0.00000E+000	4.63900E-001	-7.95939E-004	10	..........a	-327.74
	2961	4.24553	4.69556E-001	7.41815E-005	0.00000E+000	4.70900E-001	-7.95939E-004	10	..........a	-327.74
	2968	4.25557	4.76626E-001	7.33558E-005	0.00000E+000	4.77950E-001	-8.51494E-004	10	..........a	-327.74
	2975	4.2656	4.83603E-001	7.27071E-005	0.00000E+000	4.84950E-001	-8.51494E-004	10	..........a	-327.74
	2982	4.27563	4.90591E-001	7.25891E-005	0.00000E+000	4.91950E-001	-7.62605E-004	10	..........a	-327.74
	2989	4.28567	4.97632E-001	7.15865E-005	0.00000E+000	4.99000E-001	-8.51494E-004	10	..........a	-327.74
	2990	4.2871	4.98685E-001	7.20583E-005	0.00000E+000	5.00000E-001	-8.07050E-004	10	..........a	-327.74
CURVE2	TABLE
	Pt	T	Vf	Im	Vu	Sig	Ach	IERange	Over	Temp
	#	s	V vs. Ref.	A	V	V	V	#	bits	deg C
	2991	4.28853	4.98679E-001	6.94634E-005	0.00000E+000	5.00000E-001	-8.18161E-004	10	..........a	-327.74