File: data/02-SI/Figures_S9_S11_RDE/14btmapaq-rde/1mkcl-5mmolar14btmapaq-nitrogen-5000mvpers.DTA
EXPLAIN
TAG	CV
TITLE	LABEL	Cyclic Voltammetry	Test &Identifier
DATE	LABEL	1/31/2023	Date
TIME	LABEL	14:05:29	Time
NOTES	NOTES	1	&Notes...

PSTAT	PSTAT	REF3000-21108	Potentiostat
VINIT	POTEN	5.00000E-001	F	Initial &E (V)
VLIMIT1	POTEN	-1.00000E+000	F	Scan Limit &1 (V)
VLIMIT2	POTEN	5.00000E-001	F	Scan Limit &2 (V)
VFINAL	POTEN	5.00000E-001	F	Final &E (V)
SCANRATE	QUANT	4.99999E+003	&Scan Rate (mV/s)
STEPSIZE	QUANT	1.00000E+000	St&ep Size (mV)
CYCLES	IQUANT	1	C&ycles (#)
IMODE	SELECTOR	1	I/E Range &Mode
IRANGE	QUANT	1.00000E+001	&Max Current (mA)
AREA	QUANT	1.00000E+000	Electrode &Area (cm^2)
ELECTRODETYPE	SELECTOR	0	Electrode Type
STRIPPING	TOGGLE	F	Used for Stripping
POLARITY	TOGGLE	F	Signal Polarity
CONDIT	TWOPARAM	F	1.50000E+001	0.00000E+000	Conditionin&g	Time(s)	E(V)
DELAY	TWOPARAM	F	5.00000E+000	0.00000E+000	Init. De&lay	Time(s)	Stab.(mV/s)
EQDELAY	QUANT	0.00000E+000	Equil. &Time (s)
IRCOMP	SELECTOR	0	IRCom&p
PFCOR	QUANT	5.00000E+001	PF Corr. (ohm)
SAMPLINGMODE	SELECTOR	1	Sampling &Mode
EOC	QUANT	0	Open Circuit (V)
PSTATMODEL	IQUANT	5	Pstat Model
PSTATSECTION	LABEL	REF3000-21108	Pstat Section
PSTATSERIALNO	LABEL	21108	Pstat Serial Number
CTRLMODE	IQUANT	1	Control Mode
ELECTROMETER	IQUANT	0	RE=0 or CS=1
IESTAB	IQUANT	2	I/E Stability
CASPEED	IQUANT	4	Control Amp Speed
CONVENTION	IQUANT	1	Current Convention
ICHRANGE	IQUANT	2	Ich Range
ICHRANGEMODE	TOGGLE	F	Ich Auto Range
ICHOFFSETENABLE	TOGGLE	F	Ich Offset Enable
ICHOFFSET	QUANT	0	Ich Offset (V)
ICHFILTER	IQUANT	1	Ich Filter
VCHRANGE	IQUANT	2	Vch Range
VCHRANGEMODE	TOGGLE	F	Vch Auto Range
VCHOFFSETENABLE	TOGGLE	F	Vch Offset Enable
VCHOFFSET	QUANT	0	Vch Offset (V)
VCHFILTER	IQUANT	1	Vch Filter
ACHRANGE	IQUANT	2	Ach Range
ACHOFFSETENABLE	TOGGLE	F	Ach Offset Enable
ACHOFFSET	QUANT	0	Ach Offset (V)
ACHFILTER	IQUANT	0	Ach Filter
IERANGELOWERLIMIT	IQUANT	2	I/E Range Lower Limit
IERANGEMODE	TOGGLE	F	I/E AutoRange
IERANGE	IQUANT	10	I/E Range
POSFEEDENABLE	TOGGLE	F	Positive Feedback IR Comp
POSFEEDRESISTANCE	QUANT	0	Positive Feedback Resistance (ohm)
ACHSELECT	IQUANT	0	Ach Select
SENSECABLEID	IQUANT	14	Sense Cable ID
PWRCABLEID	IQUANT	7	Power Cable ID
DCCALDATE	LABEL	11/9/2022	DC Calibration Date
ACCALDATE	LABEL	11/9/2022	AC Calibration Date
THERMOSELECT	IQUANT	1	Thermo Select
FRAMEWORKVERSION	LABEL	7.8.2	Framework Version
INSTRUMENTVERSION	LABEL	4.40	Instrument Version
COMPLIANCEVOLTAGE	IQUANT	0	Compliance Voltage
CURVE1	TABLE
	Pt	T	Vf	Im	Vu	Sig	Ach	IERange	Over	Temp
	#	s	V vs. Ref.	A	V	V	V	#	bits	deg C
	0	0.0002	4.98741E-001	5.66951E-005	0.00000E+000	5.00000E-001	-6.29272E-004	10	..........a	-327.74
	7	0.0016	4.91641E-001	-1.44891E-005	0.00000E+000	4.93000E-001	-6.29272E-004	10	..........a	-327.74
	14	0.003	4.84791E-001	-2.35125E-005	0.00000E+000	4.86000E-001	-8.29272E-004	10	..........a	-327.74
	21	0.0044	4.77591E-001	-3.00293E-005	0.00000E+000	4.79000E-001	-6.29272E-004	10	..........a	-327.74
	28	0.0058	4.70491E-001	-3.30371E-005	0.00000E+000	4.72000E-001	-7.29272E-004	10	..........a	-327.74
	35	0.0072	4.63591E-001	-4.00553E-005	0.00000E+000	4.65000E-001	-7.29272E-004	10	..........a	-327.74
	42	0.0086	4.56591E-001	-4.30630E-005	0.00000E+000	4.58000E-001	-7.29272E-004	10	..........a	-327.74
	49	0.01	4.49691E-001	-4.55695E-005	0.00000E+000	4.51000E-001	-9.29272E-004	10	..........a	-327.74
	56	0.0114	4.42691E-001	-4.75747E-005	0.00000E+000	4.44000E-001	-6.29272E-004	10	..........a	-327.74
	63	0.0128	4.35641E-001	-4.70734E-005	0.00000E+000	4.37000E-001	-6.29272E-004	10	..........a	-327.74
	70	0.0142	4.28791E-001	-4.70734E-005	0.00000E+000	4.30000E-001	-9.29272E-004	10	..........a	-327.74
	77	0.0156	4.21641E-001	-5.60968E-005	0.00000E+000	4.23000E-001	-5.29272E-004	10	..........a	-327.74
	84	0.017	4.14591E-001	-5.55955E-005	0.00000E+000	4.16000E-001	-7.29272E-004	10	..........a	-327.74
	91	0.0184	4.07641E-001	-5.65981E-005	0.00000E+000	4.09000E-001	-5.29272E-004	10	..........a	-327.74
	98	0.0198	4.00541E-001	-6.21123E-005	0.00000E+000	4.02000E-001	-7.29272E-004	10	..........a	-327.74
	105	0.0212	3.93691E-001	-6.11097E-005	0.00000E+000	3.95000E-001	-7.29272E-004	10	..........a	-327.74
	112	0.0226	3.86691E-001	-6.01071E-005	0.00000E+000	3.88000E-001	-8.29272E-004	10	..........a	-327.74
	119	0.024	3.79641E-001	-6.26136E-005	0.00000E+000	3.81000E-001	-7.29272E-004	10	..........a	-327.74
	126	0.0254	3.72691E-001	-6.91305E-005	0.00000E+000	3.74000E-001	-8.29272E-004	10	..........a	-327.74
	133	0.0268	3.65791E-001	-6.71253E-005	0.00000E+000	3.67000E-001	-5.29272E-004	10	..........a	-327.74
	140	0.0282	3.58541E-001	-6.96318E-005	0.00000E+000	3.60000E-001	-7.29272E-004	10	..........a	-327.74
	147	0.0296	3.51641E-001	-7.26396E-005	0.00000E+000	3.53000E-001	-6.29272E-004	10	..........a	-327.74
	154	0.031	3.44741E-001	-7.16370E-005	0.00000E+000	3.46000E-001	-6.29272E-004	10	..........a	-327.74
	161	0.0324	3.37641E-001	-7.76525E-005	0.00000E+000	3.39000E-001	-7.29272E-004	10	..........a	-327.74
	168	0.0338	3.30741E-001	-7.66500E-005	0.00000E+000	3.32000E-001	-6.29272E-004	10	..........a	-327.74
	175	0.0352	3.23691E-001	-7.81538E-005	0.00000E+000	3.25000E-001	-6.29272E-004	10	..........a	-327.74
	182	0.0366	3.16691E-001	-8.36681E-005	0.00000E+000	3.18000E-001	-6.29272E-004	10	..........a	-327.74
	189	0.038	3.09691E-001	-8.26655E-005	0.00000E+000	3.11000E-001	-8.29272E-004	10	..........a	-327.74
	196	0.0394	3.02441E-001	-9.06863E-005	0.00000E+000	3.04000E-001	-6.29272E-004	10	..........a	-327.74
	203	0.0408	2.95791E-001	-9.01850E-005	0.00000E+000	2.97000E-001	-7.29272E-004	10	..........a	-327.74
	210	0.0422	2.88841E-001	-8.81798E-005	0.00000E+000	2.90000E-001	-6.29272E-004	10	..........a	-327.74
	217	0.0436	2.81641E-001	-9.16889E-005	0.00000E+000	2.83000E-001	-7.29272E-004	10	..........a	-327.74
	224	0.045	2.74691E-001	-9.67018E-005	0.00000E+000	2.76000E-001	-6.29272E-004	10	..........a	-327.74
	231	0.0464	2.67741E-001	-9.16889E-005	0.00000E+000	2.69000E-001	-7.29272E-004	10	..........a	-327.74
	238	0.0478	2.60641E-001	-9.87070E-005	0.00000E+000	2.62000E-001	-7.29272E-004	10	..........a	-327.74
	245	0.0492	2.53791E-001	-9.16889E-005	0.00000E+000	2.55000E-001	-6.29272E-004	10	..........a	-327.74
	252	0.0506	2.46641E-001	-1.02216E-004	0.00000E+000	2.48000E-001	-7.29272E-004	10	..........a	-327.74
	259	0.052	2.39691E-001	-1.04221E-004	0.00000E+000	2.41000E-001	-6.29272E-004	10	..........a	-327.74
	266	0.0534	2.32591E-001	-1.01214E-004	0.00000E+000	2.34000E-001	-8.29272E-004	10	..........a	-327.74
	273	0.0548	2.25841E-001	-1.05224E-004	0.00000E+000	2.27000E-001	-8.29272E-004	10	..........a	-327.74
	280	0.0562	2.18741E-001	-1.03720E-004	0.00000E+000	2.20000E-001	-6.29272E-004	10	..........a	-327.74
	287	0.0576	2.11741E-001	-1.05725E-004	0.00000E+000	2.13000E-001	-7.29272E-004	10	..........a	-327.74
	294	0.059	2.04791E-001	-1.05224E-004	0.00000E+000	2.06000E-001	-9.29272E-004	10	..........a	-327.74
	301	0.0604	1.97891E-001	-1.09736E-004	0.00000E+000	1.99000E-001	-5.29272E-004	10	..........a	-327.74
	308	0.0618	1.90891E-001	-1.10237E-004	0.00000E+000	1.92000E-001	-6.29272E-004	10	..........a	-327.74
	315	0.0632	1.83941E-001	-1.12242E-004	0.00000E+000	1.85000E-001	-7.29272E-004	10	..........a	-327.74
	322	0.0646	1.76841E-001	-1.12743E-004	0.00000E+000	1.78000E-001	-5.29272E-004	10	..........a	-327.74
	329	0.066	1.69691E-001	-1.14247E-004	0.00000E+000	1.71000E-001	-6.29272E-004	10	..........a	-327.74
	336	0.0674	1.62791E-001	-1.13746E-004	0.00000E+000	1.64000E-001	-8.29272E-004	10	..........a	-327.74
	343	0.0688	1.55691E-001	-1.12743E-004	0.00000E+000	1.57000E-001	-6.29272E-004	10	..........a	-327.74
	350	0.0702	1.48841E-001	-1.16754E-004	0.00000E+000	1.50000E-001	-6.29272E-004	10	..........a	-327.74
	357	0.0716	1.41841E-001	-1.14749E-004	0.00000E+000	1.43000E-001	-7.29272E-004	10	..........a	-327.74
	364	0.073	1.34791E-001	-1.15250E-004	0.00000E+000	1.36000E-001	-6.29272E-004	10	..........a	-327.74
	371	0.0744	1.27741E-001	-1.17756E-004	0.00000E+000	1.29000E-001	-6.29272E-004	10	..........a	-327.74
	378	0.0758	1.20791E-001	-1.17756E-004	0.00000E+000	1.22000E-001	-7.29272E-004	10	..........a	-327.74
	385	0.0772	1.13791E-001	-1.18258E-004	0.00000E+000	1.15000E-001	-7.29272E-004	10	..........a	-327.74
	392	0.0786	1.06791E-001	-1.19761E-004	0.00000E+000	1.08000E-001	-6.29272E-004	10	..........a	-327.74
	399	0.08	9.98410E-002	-1.18759E-004	0.00000E+000	1.01000E-001	-6.29272E-004	10	..........a	-327.74
	406	0.0814	9.28410E-002	-1.20263E-004	0.00000E+000	9.40000E-002	-6.29272E-004	10	..........a	-327.74
	413	0.0828	8.57410E-002	-1.20764E-004	0.00000E+000	8.70000E-002	-8.29272E-004	10	..........a	-327.74
	420	0.0842	7.86910E-002	-1.23271E-004	0.00000E+000	8.00000E-002	-5.29272E-004	10	..........a	-327.74
	427	0.0856	7.17910E-002	-1.23772E-004	0.00000E+000	7.30000E-002	-5.29272E-004	10	..........a	-327.74
	434	0.087	6.48910E-002	-1.21265E-004	0.00000E+000	6.60000E-002	-6.29272E-004	10	..........a	-327.74
	441	0.0884	5.78410E-002	-1.23271E-004	0.00000E+000	5.90000E-002	-6.29272E-004	10	..........a	-327.74
	448	0.0898	5.08410E-002	-1.23772E-004	0.00000E+000	5.20000E-002	-5.29272E-004	10	..........a	-327.74
	455	0.0912	4.38410E-002	-1.25777E-004	0.00000E+000	4.50000E-002	-6.29272E-004	10	..........a	-327.74
	462	0.0926	3.69410E-002	-1.25777E-004	0.00000E+000	3.80000E-002	-7.29272E-004	10	..........a	-327.74
	469	0.094	2.98410E-002	-1.23271E-004	0.00000E+000	3.10000E-002	-6.29272E-004	10	..........a	-327.74
	476	0.0954	2.28410E-002	-1.25777E-004	0.00000E+000	2.40000E-002	-7.29272E-004	10	..........a	-327.74
	483	0.0968	1.57910E-002	-1.22268E-004	0.00000E+000	1.70000E-002	-9.29272E-004	10	..........a	-327.74
	490	0.0982	8.84100E-003	-1.27782E-004	0.00000E+000	9.99999E-003	-6.29272E-004	10	..........a	-327.74
	497	0.0996	1.74100E-003	-1.26780E-004	0.00000E+000	2.99999E-003	-6.29272E-004	10	..........a	-327.74
	504	0.101	-5.15900E-003	-1.25276E-004	0.00000E+000	-4.00001E-003	-7.29272E-004	10	..........a	-327.74
	511	0.1024	-1.21090E-002	-1.24774E-004	0.00000E+000	-1.10000E-002	-7.29272E-004	10	..........a	-327.74
	518	0.1038	-1.91090E-002	-1.22268E-004	0.00000E+000	-1.80000E-002	-6.29272E-004	10	..........a	-327.74
	525	0.1052	-2.60090E-002	-1.24774E-004	0.00000E+000	-2.50000E-002	-7.29272E-004	10	..........a	-327.74
	532	0.1066	-3.32090E-002	-1.24273E-004	0.00000E+000	-3.20000E-002	-5.29272E-004	10	..........a	-327.74
	539	0.108	-4.02090E-002	-1.25777E-004	0.00000E+000	-3.90000E-002	-7.29272E-004	10	..........a	-327.74
	546	0.1094	-4.70590E-002	-1.22769E-004	0.00000E+000	-4.60000E-002	-6.29272E-004	10	..........a	-327.74
	553	0.1108	-5.41590E-002	-1.25777E-004	0.00000E+000	-5.30000E-002	-7.29272E-004	10	..........a	-327.74
	560	0.1122	-6.11090E-002	-1.25276E-004	0.00000E+000	-6.00000E-002	-6.29272E-004	10	..........a	-327.74
	567	0.1136	-6.81090E-002	-1.20263E-004	0.00000E+000	-6.70000E-002	-6.29272E-004	10	..........a	-327.74
	574	0.115	-7.51090E-002	-1.20764E-004	0.00000E+000	-7.40000E-002	-9.29272E-004	10	..........a	-327.74
	581	0.1164	-8.22590E-002	-1.26780E-004	0.00000E+000	-8.10000E-002	-8.29272E-004	10	..........a	-327.74
	588	0.1178	-8.90090E-002	-1.22268E-004	0.00000E+000	-8.80000E-002	-6.29272E-004	10	..........a	-327.74
	595	0.1192	-9.60590E-002	-1.21767E-004	0.00000E+000	-9.50000E-002	-6.29272E-004	10	..........a	-327.74
	602	0.1206	-1.03159E-001	-1.20764E-004	0.00000E+000	-1.02000E-001	-6.29272E-004	10	..........a	-327.74
	609	0.122	-1.10159E-001	-1.19260E-004	0.00000E+000	-1.09000E-001	-7.29272E-004	10	..........a	-327.74
	616	0.1234	-1.16959E-001	-1.20764E-004	0.00000E+000	-1.16000E-001	-7.29272E-004	10	..........a	-327.74
	623	0.1248	-1.24109E-001	-1.19260E-004	0.00000E+000	-1.23000E-001	-9.29272E-004	10	..........a	-327.74
	630	0.1262	-1.31159E-001	-1.19761E-004	0.00000E+000	-1.30000E-001	-9.29272E-004	10	..........a	-327.74
	637	0.1276	-1.38209E-001	-1.16754E-004	0.00000E+000	-1.37000E-001	-6.29272E-004	10	..........a	-327.74
	644	0.129	-1.45209E-001	-1.19761E-004	0.00000E+000	-1.44000E-001	-6.29272E-004	10	..........a	-327.74
	651	0.1304	-1.52159E-001	-1.19761E-004	0.00000E+000	-1.51000E-001	-7.29272E-004	10	..........a	-327.74
	658	0.1318	-1.59109E-001	-1.17756E-004	0.00000E+000	-1.58000E-001	-6.29272E-004	10	..........a	-327.74
	665	0.1332	-1.66109E-001	-1.16252E-004	0.00000E+000	-1.65000E-001	-6.29272E-004	10	..........a	-327.74
	672	0.1346	-1.73009E-001	-1.16252E-004	0.00000E+000	-1.72000E-001	-8.29272E-004	10	..........a	-327.74
	679	0.136	-1.80109E-001	-1.13245E-004	0.00000E+000	-1.79000E-001	-6.29272E-004	10	..........a	-327.74
	686	0.1374	-1.87209E-001	-1.17255E-004	0.00000E+000	-1.86000E-001	-9.29272E-004	10	..........a	-327.74
	693	0.1388	-1.94109E-001	-1.21265E-004	0.00000E+000	-1.93000E-001	-6.29272E-004	10	..........a	-327.74
	700	0.1402	-2.01109E-001	-1.18258E-004	0.00000E+000	-2.00000E-001	-6.29272E-004	10	..........a	-327.74
	707	0.1416	-2.08159E-001	-1.22268E-004	0.00000E+000	-2.07000E-001	-7.29272E-004	10	..........a	-327.74
	714	0.143	-2.15009E-001	-1.19260E-004	0.00000E+000	-2.14000E-001	-8.29272E-004	10	..........a	-327.74
	721	0.1444	-2.22109E-001	-1.19761E-004	0.00000E+000	-2.21000E-001	-7.29272E-004	10	..........a	-327.74
	728	0.1458	-2.29059E-001	-1.24774E-004	0.00000E+000	-2.28000E-001	-5.29272E-004	10	..........a	-327.74
	735	0.1472	-2.35909E-001	-1.18759E-004	0.00000E+000	-2.35000E-001	-7.29272E-004	10	..........a	-327.74
	742	0.1486	-2.43059E-001	-1.19761E-004	0.00000E+000	-2.42000E-001	-6.29272E-004	10	..........a	-327.74
	749	0.15	-2.50009E-001	-1.16252E-004	0.00000E+000	-2.49000E-001	-7.29272E-004	10	..........a	-327.74
	756	0.1514	-2.57059E-001	-1.20764E-004	0.00000E+000	-2.56000E-001	-7.29272E-004	10	..........a	-327.74
	763	0.1528	-2.64059E-001	-1.25777E-004	0.00000E+000	-2.63000E-001	-7.29272E-004	10	..........a	-327.74
	770	0.1542	-2.70909E-001	-1.24774E-004	0.00000E+000	-2.70000E-001	-7.29272E-004	10	..........a	-327.74
	777	0.1556	-2.77959E-001	-1.28785E-004	0.00000E+000	-2.77000E-001	-9.29272E-004	10	..........a	-327.74
	784	0.157	-2.84959E-001	-1.29286E-004	0.00000E+000	-2.84000E-001	-6.29272E-004	10	..........a	-327.74
	791	0.1584	-2.92009E-001	-1.35302E-004	0.00000E+000	-2.91000E-001	-8.29272E-004	10	..........a	-327.74
	798	0.1598	-2.99159E-001	-1.36806E-004	0.00000E+000	-2.98000E-001	-9.29272E-004	10	..........a	-327.74
	805	0.1612	-3.06109E-001	-1.38309E-004	0.00000E+000	-3.05000E-001	-8.29272E-004	10	..........a	-327.74
	812	0.1626	-3.13159E-001	-1.42821E-004	0.00000E+000	-3.12000E-001	-6.29272E-004	10	..........a	-327.74
	819	0.164	-3.19959E-001	-1.46330E-004	0.00000E+000	-3.19000E-001	-6.29272E-004	10	..........a	-327.74
	826	0.1654	-3.27059E-001	-1.45829E-004	0.00000E+000	-3.26000E-001	-8.29272E-004	10	..........a	-327.74
	833	0.1668	-3.34059E-001	-1.52847E-004	0.00000E+000	-3.33000E-001	-8.29272E-004	10	..........a	-327.74
	840	0.1682	-3.41059E-001	-1.58361E-004	0.00000E+000	-3.40000E-001	-5.29272E-004	10	..........a	-327.74
	847	0.1696	-3.48009E-001	-1.65881E-004	0.00000E+000	-3.47000E-001	-6.29272E-004	10	..........a	-327.74
	854	0.171	-3.55159E-001	-1.69891E-004	0.00000E+000	-3.54000E-001	-6.29272E-004	10	..........a	-327.74
	861	0.1724	-3.62059E-001	-1.74403E-004	0.00000E+000	-3.61000E-001	-6.29272E-004	10	..........a	-327.74
	868	0.1738	-3.69059E-001	-1.80418E-004	0.00000E+000	-3.68000E-001	-7.29272E-004	10	..........a	-327.74
	875	0.1752	-3.76059E-001	-1.90444E-004	0.00000E+000	-3.75000E-001	-7.29272E-004	10	..........a	-327.74
	882	0.1766	-3.83059E-001	-1.95457E-004	0.00000E+000	-3.82000E-001	-6.29272E-004	10	..........a	-327.74
	889	0.178	-3.89959E-001	-2.06987E-004	0.00000E+000	-3.89000E-001	-6.29272E-004	10	..........a	-327.74
	896	0.1794	-3.97059E-001	-2.20021E-004	0.00000E+000	-3.96000E-001	-9.29272E-004	10	..........a	-327.74
	903	0.1808	-4.04109E-001	-2.33556E-004	0.00000E+000	-4.03000E-001	-6.29272E-004	10	..........a	-327.74
	910	0.1822	-4.10909E-001	-2.43081E-004	0.00000E+000	-4.10000E-001	-6.29272E-004	10	..........a	-327.74
	917	0.1836	-4.18009E-001	-2.59623E-004	0.00000E+000	-4.17000E-001	-6.29272E-004	10	..........a	-327.74
	924	0.185	-4.24909E-001	-2.83686E-004	0.00000E+000	-4.24000E-001	-9.29272E-004	10	..........a	-327.74
	931	0.1864	-4.31959E-001	-3.07748E-004	0.00000E+000	-4.31000E-001	-5.29272E-004	10	..........a	-327.74
	938	0.1878	-4.38909E-001	-3.37826E-004	0.00000E+000	-4.38000E-001	-9.29272E-004	10	..........a	-327.74
	945	0.1892	-4.46009E-001	-3.70911E-004	0.00000E+000	-4.45000E-001	-7.29272E-004	10	..........a	-327.74
	952	0.1906	-4.53059E-001	-4.13522E-004	0.00000E+000	-4.52000E-001	-8.29272E-004	10	..........a	-327.74
	959	0.192	-4.59959E-001	-4.59140E-004	0.00000E+000	-4.59000E-001	-9.29272E-004	10	..........a	-327.74
	966	0.1934	-4.67159E-001	-5.16287E-004	0.00000E+000	-4.66000E-001	-6.29272E-004	10	..........a	-327.74
	973	0.1948	-4.73959E-001	-5.75942E-004	0.00000E+000	-4.73000E-001	-9.29272E-004	10	..........a	-327.74
	980	0.1962	-4.81059E-001	-6.37100E-004	0.00000E+000	-4.80000E-001	-7.29272E-004	10	..........a	-327.74
	987	0.1976	-4.88109E-001	-7.04775E-004	0.00000E+000	-4.87000E-001	-6.29272E-004	10	..........a	-327.74
	994	0.199	-4.94909E-001	-7.74957E-004	0.00000E+000	-4.94000E-001	-8.29272E-004	10	..........a	-327.74
	1001	0.2004	-5.02009E-001	-8.51655E-004	0.00000E+000	-5.01000E-001	-8.29272E-004	10	..........a	-327.74
	1008	0.2018	-5.09109E-001	-9.36374E-004	0.00000E+000	-5.08000E-001	-6.29272E-004	10	..........a	-327.74
	1015	0.2032	-5.15909E-001	-1.01758E-003	0.00000E+000	-5.15000E-001	-7.29272E-004	10	..........a	-327.74
	1022	0.2046	-5.22859E-001	-1.11233E-003	0.00000E+000	-5.22000E-001	-9.29272E-004	10	..........a	-327.74
	1029	0.206	-5.30009E-001	-1.21710E-003	0.00000E+000	-5.29000E-001	-6.29272E-004	10	..........a	-327.74
	1036	0.2074	-5.37059E-001	-1.33491E-003	0.00000E+000	-5.36000E-001	-6.29272E-004	10	..........a	-327.74
	1043	0.2088	-5.43909E-001	-1.45923E-003	0.00000E+000	-5.43000E-001	-6.29272E-004	10	..........a	-327.74
	1050	0.2102	-5.50859E-001	-1.59257E-003	0.00000E+000	-5.50000E-001	-6.29272E-004	10	..........a	-327.74
	1057	0.2116	-5.57859E-001	-1.73795E-003	0.00000E+000	-5.57000E-001	-6.29272E-004	10	..........a	-327.74
	1064	0.213	-5.64909E-001	-1.87931E-003	0.00000E+000	-5.64000E-001	-6.29272E-004	10	..........a	-327.74
	1071	0.2144	-5.71759E-001	-2.02218E-003	0.00000E+000	-5.71000E-001	-6.29272E-004	10	..........a	-327.74
	1078	0.2158	-5.78859E-001	-2.16104E-003	0.00000E+000	-5.78000E-001	-7.29272E-004	10	..........a	-327.74
	1085	0.2172	-5.85959E-001	-2.28486E-003	0.00000E+000	-5.85000E-001	-6.29272E-004	10	..........a	-327.74
	1092	0.2186	-5.93109E-001	-2.39314E-003	0.00000E+000	-5.92000E-001	-8.29272E-004	10	..........a	-327.74
	1099	0.22	-6.00059E-001	-2.47886E-003	0.00000E+000	-5.99000E-001	-8.29272E-004	10	..........a	-327.74
	1106	0.2214	-6.06809E-001	-2.54403E-003	0.00000E+000	-6.06000E-001	-6.29272E-004	10	..........a	-327.74
	1113	0.2228	-6.14009E-001	-2.57662E-003	0.00000E+000	-6.13000E-001	-9.29272E-004	10	..........a	-327.74
	1120	0.2242	-6.20859E-001	-2.57612E-003	0.00000E+000	-6.20000E-001	-6.29272E-004	10	..........a	-327.74
	1127	0.2256	-6.27909E-001	-2.55606E-003	0.00000E+000	-6.27000E-001	-7.29272E-004	10	..........a	-327.74
	1134	0.227	-6.34859E-001	-2.50794E-003	0.00000E+000	-6.34000E-001	-8.29272E-004	10	..........a	-327.74
	1141	0.2284	-6.41759E-001	-2.43475E-003	0.00000E+000	-6.41000E-001	-8.29272E-004	10	..........a	-327.74
	1148	0.2298	-6.48809E-001	-2.36256E-003	0.00000E+000	-6.48000E-001	-7.29272E-004	10	..........a	-327.74
	1155	0.2312	-6.55759E-001	-2.28336E-003	0.00000E+000	-6.55000E-001	-9.29272E-004	10	..........a	-327.74
	1162	0.2326	-6.62859E-001	-2.20365E-003	0.00000E+000	-6.62000E-001	-8.29272E-004	10	..........a	-327.74
	1169	0.234	-6.69859E-001	-2.13648E-003	0.00000E+000	-6.69000E-001	-6.29272E-004	10	..........a	-327.74
	1176	0.2354	-6.76809E-001	-2.06931E-003	0.00000E+000	-6.76000E-001	-7.29272E-004	10	..........a	-327.74
	1183	0.2368	-6.83859E-001	-2.00464E-003	0.00000E+000	-6.83000E-001	-9.29272E-004	10	..........a	-327.74
	1190	0.2382	-6.90909E-001	-1.95701E-003	0.00000E+000	-6.90000E-001	-7.29272E-004	10	..........a	-327.74
	1197	0.2396	-6.97909E-001	-1.90789E-003	0.00000E+000	-6.97000E-001	-5.29272E-004	10	..........a	-327.74
	1204	0.241	-7.04759E-001	-1.85826E-003	0.00000E+000	-7.04000E-001	-6.29272E-004	10	..........a	-327.74
	1211	0.2424	-7.11809E-001	-1.81364E-003	0.00000E+000	-7.11000E-001	-6.29272E-004	10	..........a	-327.74
	1218	0.2438	-7.18809E-001	-1.77454E-003	0.00000E+000	-7.18000E-001	-6.29272E-004	10	..........a	-327.74
	1225	0.2452	-7.25809E-001	-1.73695E-003	0.00000E+000	-7.25000E-001	-6.29272E-004	10	..........a	-327.74
	1232	0.2466	-7.32809E-001	-1.69534E-003	0.00000E+000	-7.32000E-001	-6.29272E-004	10	..........a	-327.74
	1239	0.248	-7.39809E-001	-1.65523E-003	0.00000E+000	-7.39000E-001	-5.29272E-004	10	..........a	-327.74
	1246	0.2494	-7.46859E-001	-1.62014E-003	0.00000E+000	-7.46000E-001	-6.29272E-004	10	..........a	-327.74
	1253	0.2508	-7.53909E-001	-1.57703E-003	0.00000E+000	-7.53000E-001	-8.29272E-004	10	..........a	-327.74
	1260	0.2522	-7.60809E-001	-1.54445E-003	0.00000E+000	-7.60000E-001	-7.29272E-004	10	..........a	-327.74
	1267	0.2536	-7.68009E-001	-1.51287E-003	0.00000E+000	-7.67000E-001	-7.29272E-004	10	..........a	-327.74
	1274	0.255	-7.74809E-001	-1.47878E-003	0.00000E+000	-7.74000E-001	-6.29272E-004	10	..........a	-327.74
	1281	0.2564	-7.81709E-001	-1.44018E-003	0.00000E+000	-7.81000E-001	-7.29272E-004	10	..........a	-327.74
	1288	0.2578	-7.88959E-001	-1.41561E-003	0.00000E+000	-7.88000E-001	-6.29272E-004	10	..........a	-327.74
	1295	0.2592	-7.95909E-001	-1.38955E-003	0.00000E+000	-7.95000E-001	-9.29272E-004	10	..........a	-327.74
	1302	0.2606	-8.02809E-001	-1.35947E-003	0.00000E+000	-8.02000E-001	-7.29272E-004	10	..........a	-327.74
	1309	0.262	-8.09909E-001	-1.33240E-003	0.00000E+000	-8.09000E-001	-9.29272E-004	10	..........a	-327.74
	1316	0.2634	-8.16859E-001	-1.30332E-003	0.00000E+000	-8.16000E-001	-7.29272E-004	10	..........a	-327.74
	1323	0.2648	-8.23709E-001	-1.28077E-003	0.00000E+000	-8.23000E-001	-6.29272E-004	10	..........a	-327.74
	1330	0.2662	-8.30809E-001	-1.25871E-003	0.00000E+000	-8.30000E-001	-8.29272E-004	10	..........a	-327.74
	1337	0.2676	-8.37909E-001	-1.23816E-003	0.00000E+000	-8.37000E-001	-5.29272E-004	10	..........a	-327.74
	1344	0.269	-8.44659E-001	-1.21359E-003	0.00000E+000	-8.44000E-001	-8.29272E-004	10	..........a	-327.74
	1351	0.2704	-8.51809E-001	-1.19304E-003	0.00000E+000	-8.51000E-001	-8.29272E-004	10	..........a	-327.74
	1358	0.2718	-8.58759E-001	-1.17449E-003	0.00000E+000	-8.58000E-001	-6.29272E-004	10	..........a	-327.74
	1365	0.2732	-8.65859E-001	-1.15394E-003	0.00000E+000	-8.65000E-001	-9.29272E-004	10	..........a	-327.74
	1372	0.2746	-8.72709E-001	-1.13439E-003	0.00000E+000	-8.72000E-001	-5.29272E-004	10	..........a	-327.74
	1379	0.276	-8.79609E-001	-1.11484E-003	0.00000E+000	-8.79000E-001	-7.29272E-004	10	..........a	-327.74
	1386	0.2774	-8.86759E-001	-1.10280E-003	0.00000E+000	-8.86000E-001	-8.29272E-004	10	..........a	-327.74
	1393	0.2788	-8.93709E-001	-1.08626E-003	0.00000E+000	-8.93000E-001	-9.29272E-004	10	..........a	-327.74
	1400	0.2802	-9.00809E-001	-1.07473E-003	0.00000E+000	-9.00000E-001	-6.29272E-004	10	..........a	-327.74
	1407	0.2816	-9.07609E-001	-1.05869E-003	0.00000E+000	-9.07000E-001	-6.29272E-004	10	..........a	-327.74
	1414	0.283	-9.14659E-001	-1.04014E-003	0.00000E+000	-9.14000E-001	-6.29272E-004	10	..........a	-327.74
	1421	0.2844	-9.21859E-001	-1.03613E-003	0.00000E+000	-9.21000E-001	-9.29272E-004	10	..........a	-327.74
	1428	0.2858	-9.28759E-001	-1.01708E-003	0.00000E+000	-9.28000E-001	-7.29272E-004	10	..........a	-327.74
	1435	0.2872	-9.35759E-001	-1.00605E-003	0.00000E+000	-9.35000E-001	-6.29272E-004	10	..........a	-327.74
	1442	0.2886	-9.42759E-001	-9.95527E-004	0.00000E+000	-9.42000E-001	-7.29272E-004	10	..........a	-327.74
	1449	0.29	-9.49759E-001	-9.86504E-004	0.00000E+000	-9.49000E-001	-9.29272E-004	10	..........a	-327.74
	1456	0.2914	-9.56659E-001	-9.73470E-004	0.00000E+000	-9.56000E-001	-8.29272E-004	10	..........a	-327.74
	1463	0.2928	-9.63809E-001	-9.68457E-004	0.00000E+000	-9.63000E-001	-5.29272E-004	10	..........a	-327.74
	1470	0.2942	-9.70809E-001	-9.56426E-004	0.00000E+000	-9.70000E-001	-9.29272E-004	10	..........a	-327.74
	1477	0.2956	-9.77959E-001	-9.50912E-004	0.00000E+000	-9.77000E-001	-7.29272E-004	10	..........a	-327.74
	1484	0.297	-9.84609E-001	-9.36876E-004	0.00000E+000	-9.84000E-001	-6.29272E-004	10	..........a	-327.74
	1491	0.2984	-9.91659E-001	-9.32364E-004	0.00000E+000	-9.91000E-001	-8.29272E-004	10	..........a	-327.74
	1498	0.2998	-9.98759E-001	-9.27852E-004	0.00000E+000	-9.98000E-001	-7.29272E-004	10	..........a	-327.74
	1505	0.3012	-9.95709E-001	-7.39365E-004	0.00000E+000	-9.95000E-001	-7.29272E-004	10	..........a	-327.74
	1512	0.3026	-9.88759E-001	-6.74697E-004	0.00000E+000	-9.88000E-001	-8.29272E-004	10	..........a	-327.74
	1519	0.304	-9.81759E-001	-6.37601E-004	0.00000E+000	-9.81000E-001	-6.29272E-004	10	..........a	-327.74
	1526	0.3054	-9.74709E-001	-6.07523E-004	0.00000E+000	-9.74000E-001	-7.29272E-004	10	..........a	-327.74
	1533	0.3068	-9.67709E-001	-5.85466E-004	0.00000E+000	-9.67000E-001	-6.29272E-004	10	..........a	-327.74
	1540	0.3082	-9.60759E-001	-5.68422E-004	0.00000E+000	-9.60000E-001	-6.29272E-004	10	..........a	-327.74
	1547	0.3096	-9.53709E-001	-5.50877E-004	0.00000E+000	-9.53000E-001	-7.29272E-004	10	..........a	-327.74
	1554	0.311	-9.46759E-001	-5.41352E-004	0.00000E+000	-9.46000E-001	-5.29272E-004	10	..........a	-327.74
	1561	0.3124	-9.39709E-001	-5.27817E-004	0.00000E+000	-9.39000E-001	-6.29272E-004	10	..........a	-327.74
	1568	0.3138	-9.32959E-001	-5.14783E-004	0.00000E+000	-9.32000E-001	-8.29272E-004	10	..........a	-327.74
	1575	0.3152	-9.25609E-001	-5.04256E-004	0.00000E+000	-9.25000E-001	-6.29272E-004	10	..........a	-327.74
	1582	0.3166	-9.18809E-001	-4.98241E-004	0.00000E+000	-9.18000E-001	-7.29272E-004	10	..........a	-327.74
	1589	0.318	-9.11659E-001	-4.87713E-004	0.00000E+000	-9.11000E-001	-5.29272E-004	10	..........a	-327.74
	1596	0.3194	-9.04709E-001	-4.84706E-004	0.00000E+000	-9.04000E-001	-6.29272E-004	10	..........a	-327.74
	1603	0.3208	-8.97609E-001	-4.76184E-004	0.00000E+000	-8.97000E-001	-9.29272E-004	10	..........a	-327.74
	1610	0.3222	-8.90709E-001	-4.70669E-004	0.00000E+000	-8.90000E-001	-9.29272E-004	10	..........a	-327.74
	1617	0.3236	-8.83809E-001	-4.64153E-004	0.00000E+000	-8.83000E-001	-6.29272E-004	10	..........a	-327.74
	1624	0.325	-8.76759E-001	-4.52623E-004	0.00000E+000	-8.76000E-001	-9.29272E-004	10	..........a	-327.74
	1631	0.3264	-8.69709E-001	-4.49615E-004	0.00000E+000	-8.69000E-001	-8.29272E-004	10	..........a	-327.74
	1638	0.3278	-8.62709E-001	-4.45103E-004	0.00000E+000	-8.62000E-001	-9.29272E-004	10	..........a	-327.74
	1645	0.3292	-8.55859E-001	-4.39589E-004	0.00000E+000	-8.55000E-001	-7.29272E-004	10	..........a	-327.74
	1652	0.3306	-8.48609E-001	-4.36581E-004	0.00000E+000	-8.48000E-001	-9.29272E-004	10	..........a	-327.74
	1659	0.332	-8.41859E-001	-4.31568E-004	0.00000E+000	-8.41000E-001	-9.29272E-004	10	..........a	-327.74
	1666	0.3334	-8.34659E-001	-4.23547E-004	0.00000E+000	-8.34000E-001	-4.29272E-004	10	..........a	-327.74
	1673	0.3348	-8.27709E-001	-4.14524E-004	0.00000E+000	-8.27000E-001	-7.29272E-004	10	..........a	-327.74
	1680	0.3362	-8.20809E-001	-4.14524E-004	0.00000E+000	-8.20000E-001	-6.29272E-004	10	..........a	-327.74
	1687	0.3376	-8.13859E-001	-4.10012E-004	0.00000E+000	-8.13000E-001	-7.29272E-004	10	..........a	-327.74
	1694	0.339	-8.06759E-001	-4.04999E-004	0.00000E+000	-8.06000E-001	-7.29272E-004	10	..........a	-327.74
	1701	0.3404	-7.99709E-001	-3.94974E-004	0.00000E+000	-7.99000E-001	-7.29272E-004	10	..........a	-327.74
	1708	0.3418	-7.92859E-001	-3.92467E-004	0.00000E+000	-7.92000E-001	-7.29272E-004	10	..........a	-327.74
	1715	0.3432	-7.85809E-001	-3.89459E-004	0.00000E+000	-7.85000E-001	-6.29272E-004	10	..........a	-327.74
	1722	0.3446	-7.78659E-001	-3.79935E-004	0.00000E+000	-7.78000E-001	-6.29272E-004	10	..........a	-327.74
	1729	0.346	-7.71709E-001	-3.78932E-004	0.00000E+000	-7.71000E-001	-7.29272E-004	10	..........a	-327.74
	1736	0.3474	-7.64809E-001	-3.73418E-004	0.00000E+000	-7.64000E-001	-7.29272E-004	10	..........a	-327.74
	1743	0.3488	-7.57809E-001	-3.67903E-004	0.00000E+000	-7.57000E-001	-9.29272E-004	10	..........a	-327.74
	1750	0.3502	-7.50959E-001	-3.62389E-004	0.00000E+000	-7.50000E-001	-6.29272E-004	10	..........a	-327.74
	1757	0.3516	-7.43809E-001	-3.58880E-004	0.00000E+000	-7.43000E-001	-6.29272E-004	10	..........a	-327.74
	1764	0.353	-7.36909E-001	-3.53366E-004	0.00000E+000	-7.36000E-001	-7.29272E-004	10	..........a	-327.74
	1771	0.3544	-7.29809E-001	-3.44343E-004	0.00000E+000	-7.29000E-001	-6.29272E-004	10	..........a	-327.74
	1778	0.3558	-7.22959E-001	-3.42839E-004	0.00000E+000	-7.22000E-001	-6.29272E-004	10	..........a	-327.74
	1785	0.3572	-7.15809E-001	-3.35319E-004	0.00000E+000	-7.15000E-001	-9.29272E-004	10	..........a	-327.74
	1792	0.3586	-7.08859E-001	-3.27298E-004	0.00000E+000	-7.08000E-001	-5.29272E-004	10	..........a	-327.74
	1799	0.36	-7.01709E-001	-3.19779E-004	0.00000E+000	-7.01000E-001	-9.29272E-004	10	..........a	-327.74
	1806	0.3614	-6.94809E-001	-3.12260E-004	0.00000E+000	-6.94000E-001	-6.29272E-004	10	..........a	-327.74
	1813	0.3628	-6.87959E-001	-3.04740E-004	0.00000E+000	-6.87000E-001	-7.29272E-004	10	..........a	-327.74
	1820	0.3642	-6.80759E-001	-2.94213E-004	0.00000E+000	-6.80000E-001	-6.29272E-004	10	..........a	-327.74
	1827	0.3656	-6.73859E-001	-2.85190E-004	0.00000E+000	-6.73000E-001	-9.29272E-004	10	..........a	-327.74
	1834	0.367	-6.66909E-001	-2.68647E-004	0.00000E+000	-6.66000E-001	-9.29272E-004	10	..........a	-327.74
	1841	0.3684	-6.59709E-001	-2.58119E-004	0.00000E+000	-6.59000E-001	-7.29272E-004	10	..........a	-327.74
	1848	0.3698	-6.52809E-001	-2.43582E-004	0.00000E+000	-6.52000E-001	-9.29272E-004	10	..........a	-327.74
	1855	0.3712	-6.45859E-001	-2.29546E-004	0.00000E+000	-6.45000E-001	-6.29272E-004	10	..........a	-327.74
	1862	0.3726	-6.38809E-001	-2.12501E-004	0.00000E+000	-6.38000E-001	-6.29272E-004	10	..........a	-327.74
	1869	0.374	-6.31909E-001	-1.89943E-004	0.00000E+000	-6.31000E-001	-8.29272E-004	10	..........a	-327.74
	1876	0.3754	-6.24959E-001	-1.62873E-004	0.00000E+000	-6.24000E-001	-6.29272E-004	10	..........a	-327.74
	1883	0.3768	-6.17859E-001	-1.36806E-004	0.00000E+000	-6.17000E-001	-7.29272E-004	10	..........a	-327.74
	1890	0.3782	-6.10959E-001	-9.87070E-005	0.00000E+000	-6.10000E-001	-7.29272E-004	10	..........a	-327.74
	1897	0.3796	-6.03909E-001	-6.16110E-005	0.00000E+000	-6.03000E-001	-5.29272E-004	10	..........a	-327.74
	1904	0.381	-5.96759E-001	-1.24839E-005	0.00000E+000	-5.96000E-001	-7.29272E-004	10	..........a	-327.74
	1911	0.3824	-5.89809E-001	4.06536E-005	0.00000E+000	-5.89000E-001	-9.29272E-004	10	..........a	-327.74
	1918	0.3838	-5.82859E-001	9.78014E-005	0.00000E+000	-5.82000E-001	-6.29272E-004	10	..........a	-327.74
	1925	0.3852	-5.75909E-001	1.65978E-004	0.00000E+000	-5.75000E-001	-6.29272E-004	10	..........a	-327.74
	1932	0.3866	-5.68859E-001	2.39167E-004	0.00000E+000	-5.68000E-001	-6.29272E-004	10	..........a	-327.74
	1939	0.388	-5.61959E-001	3.17370E-004	0.00000E+000	-5.61000E-001	-6.29272E-004	10	..........a	-327.74
	1946	0.3894	-5.54859E-001	4.00585E-004	0.00000E+000	-5.54000E-001	-6.29272E-004	10	..........a	-327.74
	1953	0.3908	-5.47809E-001	4.84803E-004	0.00000E+000	-5.47000E-001	-5.29272E-004	10	..........a	-327.74
	1960	0.3922	-5.40809E-001	5.67015E-004	0.00000E+000	-5.40000E-001	-8.29272E-004	10	..........a	-327.74
	1967	0.3936	-5.33859E-001	6.50732E-004	0.00000E+000	-5.33000E-001	-6.29272E-004	10	..........a	-327.74
	1974	0.395	-5.26859E-001	7.35451E-004	0.00000E+000	-5.26000E-001	-8.29272E-004	10	..........a	-327.74
	1981	0.3964	-5.19959E-001	8.16160E-004	0.00000E+000	-5.19000E-001	-8.29272E-004	10	..........a	-327.74
	1988	0.3978	-5.12809E-001	8.91856E-004	0.00000E+000	-5.12000E-001	-6.29272E-004	10	..........a	-327.74
	1995	0.3992	-5.05959E-001	9.61035E-004	0.00000E+000	-5.05000E-001	-6.29272E-004	10	..........a	-327.74
	2002	0.4006	-4.98909E-001	1.02921E-003	0.00000E+000	-4.98000E-001	-9.29272E-004	10	..........a	-327.74
	2009	0.402	-4.91859E-001	1.08786E-003	0.00000E+000	-4.91000E-001	-8.29272E-004	10	..........a	-327.74
	2016	0.4034	-4.85009E-001	1.13699E-003	0.00000E+000	-4.84000E-001	-6.29272E-004	10	..........a	-327.74
	2023	0.4048	-4.77959E-001	1.17810E-003	0.00000E+000	-4.77000E-001	-7.29272E-004	10	..........a	-327.74
	2030	0.4062	-4.70809E-001	1.21469E-003	0.00000E+000	-4.70000E-001	-4.29272E-004	10	..........a	-327.74
	2037	0.4076	-4.63859E-001	1.23825E-003	0.00000E+000	-4.63000E-001	-6.29272E-004	10	..........a	-327.74
	2044	0.409	-4.56959E-001	1.25229E-003	0.00000E+000	-4.56000E-001	-8.29272E-004	10	..........a	-327.74
	2051	0.4104	-4.49959E-001	1.25379E-003	0.00000E+000	-4.49000E-001	-7.29272E-004	10	..........a	-327.74
	2058	0.4118	-4.43059E-001	1.25028E-003	0.00000E+000	-4.42000E-001	-6.29272E-004	10	..........a	-327.74
	2065	0.4132	-4.35909E-001	1.24377E-003	0.00000E+000	-4.35000E-001	-6.29272E-004	10	..........a	-327.74
	2072	0.4146	-4.29009E-001	1.22572E-003	0.00000E+000	-4.28000E-001	-6.29272E-004	10	..........a	-327.74
	2079	0.416	-4.22009E-001	1.20817E-003	0.00000E+000	-4.21000E-001	-6.29272E-004	10	..........a	-327.74
	2086	0.4174	-4.14859E-001	1.18812E-003	0.00000E+000	-4.14000E-001	-6.29272E-004	10	..........a	-327.74
	2093	0.4188	-4.07959E-001	1.16807E-003	0.00000E+000	-4.07000E-001	-6.29272E-004	10	..........a	-327.74
	2100	0.4202	-4.01009E-001	1.14250E-003	0.00000E+000	-4.00000E-001	-6.29272E-004	10	..........a	-327.74
	2107	0.4216	-3.94059E-001	1.12045E-003	0.00000E+000	-3.93000E-001	-8.29272E-004	10	..........a	-327.74
	2114	0.423	-3.86859E-001	1.09789E-003	0.00000E+000	-3.86000E-001	-6.29272E-004	10	..........a	-327.74
	2121	0.4244	-3.80009E-001	1.08034E-003	0.00000E+000	-3.79000E-001	-6.29272E-004	10	..........a	-327.74
	2128	0.4258	-3.73059E-001	1.05678E-003	0.00000E+000	-3.72000E-001	-6.29272E-004	10	..........a	-327.74
	2135	0.4272	-3.65909E-001	1.04275E-003	0.00000E+000	-3.65000E-001	-6.29272E-004	10	..........a	-327.74
	2142	0.4286	-3.59009E-001	1.02470E-003	0.00000E+000	-3.58000E-001	-6.29272E-004	10	..........a	-327.74
	2149	0.43	-3.51909E-001	1.00966E-003	0.00000E+000	-3.51000E-001	-7.29272E-004	10	..........a	-327.74
	2156	0.4314	-3.44909E-001	9.94622E-004	0.00000E+000	-3.44000E-001	-7.29272E-004	10	..........a	-327.74
	2163	0.4328	-3.38009E-001	9.78580E-004	0.00000E+000	-3.37000E-001	-6.29272E-004	10	..........a	-327.74
	2170	0.4342	-3.31009E-001	9.65546E-004	0.00000E+000	-3.30000E-001	-7.29272E-004	10	..........a	-327.74
	2177	0.4356	-3.23959E-001	9.57526E-004	0.00000E+000	-3.23000E-001	-6.29272E-004	10	..........a	-327.74
	2184	0.437	-3.17159E-001	9.43991E-004	0.00000E+000	-3.16000E-001	-9.29272E-004	10	..........a	-327.74
	2191	0.4384	-3.10009E-001	9.28952E-004	0.00000E+000	-3.09000E-001	-9.29272E-004	10	..........a	-327.74
	2198	0.4398	-3.02959E-001	9.19928E-004	0.00000E+000	-3.02000E-001	-6.29272E-004	10	..........a	-327.74
	2205	0.4412	-2.95909E-001	9.11406E-004	0.00000E+000	-2.95000E-001	-7.29272E-004	10	..........a	-327.74
	2212	0.4426	-2.89159E-001	8.98874E-004	0.00000E+000	-2.88000E-001	-8.29272E-004	10	..........a	-327.74
	2219	0.444	-2.82059E-001	8.82832E-004	0.00000E+000	-2.81000E-001	-6.29272E-004	10	..........a	-327.74
	2226	0.4454	-2.75009E-001	8.72807E-004	0.00000E+000	-2.74000E-001	-8.29272E-004	10	..........a	-327.74
	2233	0.4468	-2.68159E-001	8.59773E-004	0.00000E+000	-2.67000E-001	-6.29272E-004	10	..........a	-327.74
	2240	0.4482	-2.60959E-001	8.52253E-004	0.00000E+000	-2.60000E-001	-8.29272E-004	10	..........a	-327.74
	2247	0.4496	-2.54009E-001	8.39721E-004	0.00000E+000	-2.53000E-001	-9.29272E-004	10	..........a	-327.74
	2254	0.451	-2.47009E-001	8.22677E-004	0.00000E+000	-2.46000E-001	-8.29272E-004	10	..........a	-327.74
	2261	0.4524	-2.40159E-001	8.10646E-004	0.00000E+000	-2.39000E-001	-6.29272E-004	10	..........a	-327.74
	2268	0.4538	-2.33059E-001	7.95607E-004	0.00000E+000	-2.32000E-001	-6.29272E-004	10	..........a	-327.74
	2275	0.4552	-2.26059E-001	7.81571E-004	0.00000E+000	-2.25000E-001	-9.29272E-004	10	..........a	-327.74
	2282	0.4566	-2.18959E-001	7.70041E-004	0.00000E+000	-2.18000E-001	-6.29272E-004	10	..........a	-327.74
	2289	0.458	-2.11859E-001	7.60015E-004	0.00000E+000	-2.11000E-001	-8.29272E-004	10	..........a	-327.74
	2296	0.4594	-2.05159E-001	7.41968E-004	0.00000E+000	-2.04000E-001	-6.29272E-004	10	..........a	-327.74
	2303	0.4608	-1.97959E-001	7.31441E-004	0.00000E+000	-1.97000E-001	-6.29272E-004	10	..........a	-327.74
	2310	0.4622	-1.91009E-001	7.18908E-004	0.00000E+000	-1.90000E-001	-9.29272E-004	10	..........a	-327.74
	2317	0.4636	-1.83959E-001	7.06376E-004	0.00000E+000	-1.83000E-001	-9.29272E-004	10	..........a	-327.74
	2324	0.465	-1.77109E-001	6.93844E-004	0.00000E+000	-1.76000E-001	-8.29272E-004	10	..........a	-327.74
	2331	0.4664	-1.69959E-001	6.80810E-004	0.00000E+000	-1.69000E-001	-8.29272E-004	10	..........a	-327.74
	2338	0.4678	-1.63109E-001	6.67776E-004	0.00000E+000	-1.62000E-001	-8.29272E-004	10	..........a	-327.74
	2345	0.4692	-1.56009E-001	6.55244E-004	0.00000E+000	-1.55000E-001	-1.02927E-003	10	..........a	-327.74
	2352	0.4706	-1.49109E-001	6.43714E-004	0.00000E+000	-1.48000E-001	-6.29272E-004	10	..........a	-327.74
	2359	0.472	-1.42059E-001	6.37197E-004	0.00000E+000	-1.41000E-001	-8.29272E-004	10	..........a	-327.74
	2366	0.4734	-1.35009E-001	6.26670E-004	0.00000E+000	-1.34000E-001	-9.29272E-004	10	..........a	-327.74
	2373	0.4748	-1.28009E-001	6.13636E-004	0.00000E+000	-1.27000E-001	-6.29272E-004	10	..........a	-327.74
	2380	0.4762	-1.21109E-001	6.06117E-004	0.00000E+000	-1.20000E-001	-8.29272E-004	10	..........a	-327.74
	2387	0.4776	-1.14159E-001	5.98597E-004	0.00000E+000	-1.13000E-001	-8.29272E-004	10	..........a	-327.74
	2394	0.479	-1.07109E-001	5.92080E-004	0.00000E+000	-1.06000E-001	-8.29272E-004	10	..........a	-327.74
	2401	0.4804	-1.00109E-001	5.84060E-004	0.00000E+000	-9.90000E-002	-6.29272E-004	10	..........a	-327.74
	2408	0.4818	-9.30090E-002	5.77041E-004	0.00000E+000	-9.20000E-002	-8.29272E-004	10	..........a	-327.74
	2415	0.4832	-8.59590E-002	5.72530E-004	0.00000E+000	-8.50000E-002	-6.29272E-004	10	..........a	-327.74
	2422	0.4846	-7.90090E-002	5.63506E-004	0.00000E+000	-7.80000E-002	-6.29272E-004	10	..........a	-327.74
	2429	0.486	-7.21590E-002	5.62002E-004	0.00000E+000	-7.10000E-002	-6.29272E-004	10	..........a	-327.74
	2436	0.4874	-6.52090E-002	5.55486E-004	0.00000E+000	-6.40000E-002	-8.29272E-004	10	..........a	-327.74
	2443	0.4888	-5.80090E-002	5.53480E-004	0.00000E+000	-5.70000E-002	-8.29272E-004	10	..........a	-327.74
	2450	0.4902	-5.12090E-002	5.57491E-004	0.00000E+000	-5.00000E-002	-6.29272E-004	10	..........a	-327.74
	2457	0.4916	-4.41590E-002	5.53982E-004	0.00000E+000	-4.30000E-002	-6.29272E-004	10	..........a	-327.74
	2464	0.493	-3.70090E-002	5.49470E-004	0.00000E+000	-3.60000E-002	-8.29272E-004	10	..........a	-327.74
	2471	0.4944	-3.01590E-002	5.54483E-004	0.00000E+000	-2.90000E-002	-6.29272E-004	10	..........a	-327.74
	2478	0.4958	-2.32090E-002	5.53480E-004	0.00000E+000	-2.20000E-002	-8.29272E-004	10	..........a	-327.74
	2485	0.4972	-1.61590E-002	5.52979E-004	0.00000E+000	-1.50000E-002	-6.29272E-004	10	..........a	-327.74
	2492	0.4986	-9.10900E-003	5.59997E-004	0.00000E+000	-8.00000E-003	-6.29272E-004	10	..........a	-327.74
	2499	0.5	-2.10900E-003	5.64008E-004	0.00000E+000	-1.00000E-003	-6.29272E-004	10	..........a	-327.74
	2506	0.5014	4.74100E-003	5.65010E-004	0.00000E+000	5.99998E-003	-6.29272E-004	10	..........a	-327.74
	2513	0.5028	1.19910E-002	5.68519E-004	0.00000E+000	1.30000E-002	-1.02927E-003	10	..........a	-327.74
	2520	0.5042	1.87910E-002	5.76540E-004	0.00000E+000	2.00000E-002	-8.29272E-004	10	..........a	-327.74
	2527	0.5056	2.56910E-002	5.78545E-004	0.00000E+000	2.70000E-002	-8.29272E-004	10	..........a	-327.74
	2534	0.507	3.28410E-002	5.83057E-004	0.00000E+000	3.40000E-002	-6.29272E-004	10	..........a	-327.74
	2541	0.5084	3.98410E-002	5.94085E-004	0.00000E+000	4.10000E-002	-8.29272E-004	10	..........a	-327.74
	2548	0.5098	4.69910E-002	5.99098E-004	0.00000E+000	4.80000E-002	-6.29272E-004	10	..........a	-327.74
	2555	0.5112	5.37410E-002	6.07119E-004	0.00000E+000	5.50000E-002	-6.29272E-004	10	..........a	-327.74
	2562	0.5126	6.08910E-002	6.11130E-004	0.00000E+000	6.20000E-002	-9.29272E-004	10	..........a	-327.74
	2569	0.514	6.78910E-002	6.21657E-004	0.00000E+000	6.90000E-002	-6.29272E-004	10	..........a	-327.74
	2576	0.5154	7.48410E-002	6.30179E-004	0.00000E+000	7.60000E-002	-6.29272E-004	10	..........a	-327.74
	2583	0.5168	8.18910E-002	6.34189E-004	0.00000E+000	8.30000E-002	-9.29272E-004	10	..........a	-327.74
	2590	0.5182	8.88910E-002	6.38701E-004	0.00000E+000	9.00000E-002	-8.29272E-004	10	..........a	-327.74
	2597	0.5196	9.58410E-002	6.48226E-004	0.00000E+000	9.70000E-002	-6.29272E-004	10	..........a	-327.74
	2604	0.521	1.02891E-001	6.48727E-004	0.00000E+000	1.04000E-001	-6.29272E-004	10	..........a	-327.74
	2611	0.5224	1.09791E-001	6.54241E-004	0.00000E+000	1.11000E-001	-8.29272E-004	10	..........a	-327.74
	2618	0.5238	1.16891E-001	6.53740E-004	0.00000E+000	1.18000E-001	-8.29272E-004	10	..........a	-327.74
	2625	0.5252	1.23991E-001	6.54241E-004	0.00000E+000	1.25000E-001	-7.29272E-004	10	..........a	-327.74
	2632	0.5266	1.30791E-001	6.49729E-004	0.00000E+000	1.32000E-001	-6.29272E-004	10	..........a	-327.74
	2639	0.528	1.37891E-001	6.47724E-004	0.00000E+000	1.39000E-001	-6.29272E-004	10	..........a	-327.74
	2646	0.5294	1.44841E-001	6.43213E-004	0.00000E+000	1.46000E-001	-6.29272E-004	10	..........a	-327.74
	2653	0.5308	1.51791E-001	6.38701E-004	0.00000E+000	1.53000E-001	-8.29272E-004	10	..........a	-327.74
	2660	0.5322	1.58841E-001	6.27171E-004	0.00000E+000	1.60000E-001	-8.29272E-004	10	..........a	-327.74
	2667	0.5336	1.65691E-001	6.17145E-004	0.00000E+000	1.67000E-001	-8.29272E-004	10	..........a	-327.74
	2674	0.535	1.72841E-001	6.04111E-004	0.00000E+000	1.74000E-001	-6.29272E-004	10	..........a	-327.74
	2681	0.5364	1.79841E-001	5.93584E-004	0.00000E+000	1.81000E-001	-8.29272E-004	10	..........a	-327.74
	2688	0.5378	1.86741E-001	5.85062E-004	0.00000E+000	1.88000E-001	-6.29272E-004	10	..........a	-327.74
	2695	0.5392	1.93591E-001	5.69522E-004	0.00000E+000	1.95000E-001	-6.29272E-004	10	..........a	-327.74
	2702	0.5406	2.00891E-001	5.52478E-004	0.00000E+000	2.02000E-001	-6.29272E-004	10	..........a	-327.74
	2709	0.542	2.07741E-001	5.39945E-004	0.00000E+000	2.09000E-001	-6.29272E-004	10	..........a	-327.74
	2716	0.5434	2.14841E-001	5.32927E-004	0.00000E+000	2.16000E-001	-9.29272E-004	10	..........a	-327.74
	2723	0.5448	2.21991E-001	5.19392E-004	0.00000E+000	2.23000E-001	-8.29272E-004	10	..........a	-327.74
	2730	0.5462	2.28741E-001	5.07862E-004	0.00000E+000	2.30000E-001	-6.29272E-004	10	..........a	-327.74
	2737	0.5476	2.35691E-001	4.96333E-004	0.00000E+000	2.37000E-001	-8.29272E-004	10	..........a	-327.74
	2744	0.549	2.42791E-001	4.86808E-004	0.00000E+000	2.44000E-001	-8.29272E-004	10	..........a	-327.74
	2751	0.5504	2.49691E-001	4.78286E-004	0.00000E+000	2.51000E-001	-6.29272E-004	10	..........a	-327.74
	2758	0.5518	2.56691E-001	4.69764E-004	0.00000E+000	2.58000E-001	-6.29272E-004	10	..........a	-327.74
	2765	0.5532	2.63791E-001	4.61743E-004	0.00000E+000	2.65000E-001	-7.29272E-004	10	..........a	-327.74
	2772	0.5546	2.70541E-001	4.55226E-004	0.00000E+000	2.72000E-001	-8.29272E-004	10	..........a	-327.74
	2779	0.556	2.77791E-001	4.48208E-004	0.00000E+000	2.79000E-001	-6.29272E-004	10	..........a	-327.74
	2786	0.5574	2.84841E-001	4.40187E-004	0.00000E+000	2.86000E-001	-6.29272E-004	10	..........a	-327.74
	2793	0.5588	2.91741E-001	4.31665E-004	0.00000E+000	2.93000E-001	-6.29272E-004	10	..........a	-327.74
	2800	0.5602	2.98691E-001	4.27154E-004	0.00000E+000	3.00000E-001	-6.29272E-004	10	..........a	-327.74
	2807	0.5616	3.05641E-001	4.22642E-004	0.00000E+000	3.07000E-001	-6.29272E-004	10	..........a	-327.74
	2814	0.563	3.12791E-001	4.16626E-004	0.00000E+000	3.14000E-001	-8.29272E-004	10	..........a	-327.74
	2821	0.5644	3.19891E-001	4.13619E-004	0.00000E+000	3.21000E-001	-8.29272E-004	10	..........a	-327.74
	2828	0.5658	3.26691E-001	4.06600E-004	0.00000E+000	3.28000E-001	-6.29272E-004	10	..........a	-327.74
	2835	0.5672	3.33791E-001	4.03593E-004	0.00000E+000	3.35000E-001	-8.29272E-004	10	..........a	-327.74
	2842	0.5686	3.40791E-001	3.96073E-004	0.00000E+000	3.42000E-001	-6.29272E-004	10	..........a	-327.74
	2849	0.57	3.47741E-001	3.96574E-004	0.00000E+000	3.49000E-001	-6.29272E-004	10	..........a	-327.74
	2856	0.5714	3.54691E-001	3.93065E-004	0.00000E+000	3.56000E-001	-6.29272E-004	10	..........a	-327.74
	2863	0.5728	3.61741E-001	3.86548E-004	0.00000E+000	3.63000E-001	-7.29272E-004	10	..........a	-327.74
	2870	0.5742	3.68691E-001	3.83039E-004	0.00000E+000	3.70000E-001	-7.29272E-004	10	..........a	-327.74
	2877	0.5756	3.75691E-001	3.82538E-004	0.00000E+000	3.77000E-001	-6.29272E-004	10	..........a	-327.74
	2884	0.577	3.82741E-001	3.79530E-004	0.00000E+000	3.84000E-001	-6.29272E-004	10	..........a	-327.74
	2891	0.5784	3.89641E-001	3.79530E-004	0.00000E+000	3.91000E-001	-8.29272E-004	10	..........a	-327.74
	2898	0.5798	3.96841E-001	3.80533E-004	0.00000E+000	3.98000E-001	-6.29272E-004	10	..........a	-327.74
	2905	0.5812	4.03691E-001	3.74016E-004	0.00000E+000	4.05000E-001	-7.29272E-004	10	..........a	-327.74
	2912	0.5826	4.10691E-001	3.75520E-004	0.00000E+000	4.12000E-001	-8.29272E-004	10	..........a	-327.74
	2919	0.584	4.17691E-001	3.73013E-004	0.00000E+000	4.19000E-001	-8.29272E-004	10	..........a	-327.74
	2926	0.5854	4.24741E-001	3.71008E-004	0.00000E+000	4.26000E-001	-7.29272E-004	10	..........a	-327.74
	2933	0.5868	4.31591E-001	3.78528E-004	0.00000E+000	4.33000E-001	-7.29272E-004	10	..........a	-327.74
	2940	0.5882	4.38691E-001	3.74016E-004	0.00000E+000	4.40000E-001	-6.29272E-004	10	..........a	-327.74
	2947	0.5896	4.45791E-001	3.76523E-004	0.00000E+000	4.47000E-001	-8.29272E-004	10	..........a	-327.74
	2954	0.591	4.52691E-001	3.71510E-004	0.00000E+000	4.54000E-001	-6.29272E-004	10	..........a	-327.74
	2961	0.5924	4.59691E-001	3.74016E-004	0.00000E+000	4.61000E-001	-8.29272E-004	10	..........a	-327.74
	2968	0.5938	4.66791E-001	3.70006E-004	0.00000E+000	4.68000E-001	-6.29272E-004	10	..........a	-327.74
	2975	0.5952	4.73641E-001	3.69504E-004	0.00000E+000	4.75000E-001	-8.29272E-004	10	..........a	-327.74
	2982	0.5966	4.80641E-001	3.65995E-004	0.00000E+000	4.82000E-001	-9.29272E-004	10	..........a	-327.74
	2989	0.598	4.87591E-001	3.61484E-004	0.00000E+000	4.89000E-001	-5.29272E-004	10	..........a	-327.74
	2996	0.5994	4.94641E-001	3.58977E-004	0.00000E+000	4.96000E-001	-8.29272E-004	10	..........a	-327.74
	3000	0.6002	4.98741E-001	3.61985E-004	0.00000E+000	5.00000E-001	-6.29272E-004	10	..........a	-327.74
CURVE2	TABLE
	Pt	T	Vf	Im	Vu	Sig	Ach	IERange	Over	Temp
	#	s	V vs. Ref.	A	V	V	V	#	bits	deg C
	3001	0.6004	4.98691E-001	3.20377E-004	0.00000E+000	5.00000E-001	-6.29272E-004	10	..........a	-327.74