File: data/02-SI/Figures_S9_S11_RDE/14btmapaq-rde/1mkcl-5mmolar14btmapaq-nitrogen-900mvpers.DTA
EXPLAIN
TAG	CV
TITLE	LABEL	Cyclic Voltammetry	Test &Identifier
DATE	LABEL	1/31/2023	Date
TIME	LABEL	14:04:09	Time
NOTES	NOTES	1	&Notes...

PSTAT	PSTAT	REF3000-21108	Potentiostat
VINIT	POTEN	5.00000E-001	F	Initial &E (V)
VLIMIT1	POTEN	-1.00000E+000	F	Scan Limit &1 (V)
VLIMIT2	POTEN	5.00000E-001	F	Scan Limit &2 (V)
VFINAL	POTEN	5.00000E-001	F	Final &E (V)
SCANRATE	QUANT	8.95521E+002	&Scan Rate (mV/s)
STEPSIZE	QUANT	1.00000E+000	St&ep Size (mV)
CYCLES	IQUANT	1	C&ycles (#)
IMODE	SELECTOR	1	I/E Range &Mode
IRANGE	QUANT	1.00000E+001	&Max Current (mA)
AREA	QUANT	1.00000E+000	Electrode &Area (cm^2)
ELECTRODETYPE	SELECTOR	0	Electrode Type
STRIPPING	TOGGLE	F	Used for Stripping
POLARITY	TOGGLE	F	Signal Polarity
CONDIT	TWOPARAM	F	1.50000E+001	0.00000E+000	Conditionin&g	Time(s)	E(V)
DELAY	TWOPARAM	F	5.00000E+000	0.00000E+000	Init. De&lay	Time(s)	Stab.(mV/s)
EQDELAY	QUANT	0.00000E+000	Equil. &Time (s)
IRCOMP	SELECTOR	0	IRCom&p
PFCOR	QUANT	5.00000E+001	PF Corr. (ohm)
SAMPLINGMODE	SELECTOR	1	Sampling &Mode
EOC	QUANT	0	Open Circuit (V)
PSTATMODEL	IQUANT	5	Pstat Model
PSTATSECTION	LABEL	REF3000-21108	Pstat Section
PSTATSERIALNO	LABEL	21108	Pstat Serial Number
CTRLMODE	IQUANT	1	Control Mode
ELECTROMETER	IQUANT	0	RE=0 or CS=1
IESTAB	IQUANT	2	I/E Stability
CASPEED	IQUANT	4	Control Amp Speed
CONVENTION	IQUANT	1	Current Convention
ICHRANGE	IQUANT	2	Ich Range
ICHRANGEMODE	TOGGLE	F	Ich Auto Range
ICHOFFSETENABLE	TOGGLE	F	Ich Offset Enable
ICHOFFSET	QUANT	0	Ich Offset (V)
ICHFILTER	IQUANT	1	Ich Filter
VCHRANGE	IQUANT	2	Vch Range
VCHRANGEMODE	TOGGLE	F	Vch Auto Range
VCHOFFSETENABLE	TOGGLE	F	Vch Offset Enable
VCHOFFSET	QUANT	0	Vch Offset (V)
VCHFILTER	IQUANT	1	Vch Filter
ACHRANGE	IQUANT	2	Ach Range
ACHOFFSETENABLE	TOGGLE	F	Ach Offset Enable
ACHOFFSET	QUANT	0	Ach Offset (V)
ACHFILTER	IQUANT	0	Ach Filter
IERANGELOWERLIMIT	IQUANT	2	I/E Range Lower Limit
IERANGEMODE	TOGGLE	F	I/E AutoRange
IERANGE	IQUANT	10	I/E Range
POSFEEDENABLE	TOGGLE	F	Positive Feedback IR Comp
POSFEEDRESISTANCE	QUANT	0	Positive Feedback Resistance (ohm)
ACHSELECT	IQUANT	0	Ach Select
SENSECABLEID	IQUANT	14	Sense Cable ID
PWRCABLEID	IQUANT	7	Power Cable ID
DCCALDATE	LABEL	11/9/2022	DC Calibration Date
ACCALDATE	LABEL	11/9/2022	AC Calibration Date
THERMOSELECT	IQUANT	1	Thermo Select
FRAMEWORKVERSION	LABEL	7.8.2	Framework Version
INSTRUMENTVERSION	LABEL	4.40	Instrument Version
COMPLIANCEVOLTAGE	IQUANT	0	Compliance Voltage
CURVE1	TABLE
	Pt	T	Vf	Im	Vu	Sig	Ach	IERange	Over	Temp
	#	s	V vs. Ref.	A	V	V	V	#	bits	deg C
	0	0.001117	4.98453E-001	1.01002E-004	0.00000E+000	5.00000E-001	-1.34356E-003	10	..........a	-327.74
	7	0.008933	4.91314E-001	8.65029E-005	0.00000E+000	4.92950E-001	-1.45784E-003	10	..........a	-327.74
	14	0.01675	4.84368E-001	7.83279E-005	0.00000E+000	4.85950E-001	-1.31499E-003	10	..........a	-327.74
	21	0.024567	4.77291E-001	7.04614E-005	0.00000E+000	4.78900E-001	-1.28642E-003	10	..........a	-327.74
	28	0.032383	4.70391E-001	6.53713E-005	0.00000E+000	4.71850E-001	-1.04356E-003	10	..........a	-327.74
	35	0.0402	4.63329E-001	5.86617E-005	0.00000E+000	4.64800E-001	-1.15784E-003	10	..........a	-327.74
	42	0.048017	4.56145E-001	5.60395E-005	0.00000E+000	4.57800E-001	-1.41499E-003	10	..........a	-327.74
	49	0.055833	4.49168E-001	5.31860E-005	0.00000E+000	4.50750E-001	-1.34356E-003	10	..........a	-327.74
	56	0.06365	4.42199E-001	4.99468E-005	0.00000E+000	4.43700E-001	-1.22927E-003	10	..........a	-327.74
	63	0.071467	4.35214E-001	4.67077E-005	0.00000E+000	4.36700E-001	-1.18641E-003	10	..........a	-327.74
	70	0.079283	4.28099E-001	4.55508E-005	0.00000E+000	4.29650E-001	-1.07213E-003	10	..........a	-327.74
	77	0.0871	4.21122E-001	4.20032E-005	0.00000E+000	4.22600E-001	-1.01499E-003	10	..........a	-327.74
	84	0.094917	4.14099E-001	4.13091E-005	0.00000E+000	4.15600E-001	-1.24356E-003	10	..........a	-327.74
	91	0.102733	4.07029E-001	4.01523E-005	0.00000E+000	4.08550E-001	-1.01499E-003	10	..........a	-327.74
	98	0.11055	3.99899E-001	3.79157E-005	0.00000E+000	4.01500E-001	-1.10070E-003	10	..........a	-327.74
	105	0.118367	3.92883E-001	3.66817E-005	0.00000E+000	3.94500E-001	-1.34356E-003	10	..........a	-327.74
	112	0.126183	3.85937E-001	3.49079E-005	0.00000E+000	3.87450E-001	-1.14356E-003	10	..........a	-327.74
	119	0.134	3.78999E-001	3.34426E-005	0.00000E+000	3.80400E-001	-1.14356E-003	10	..........a	-327.74
	126	0.141817	3.71829E-001	3.05890E-005	0.00000E+000	3.73350E-001	-1.37213E-003	10	..........a	-327.74
	133	0.149633	3.64783E-001	3.19001E-005	0.00000E+000	3.66350E-001	-1.60070E-003	10	..........a	-327.74
	140	0.15745	3.57860E-001	2.84296E-005	0.00000E+000	3.59300E-001	-1.07213E-003	10	..........a	-327.74
	147	0.165267	3.50783E-001	2.92008E-005	0.00000E+000	3.52250E-001	-1.25784E-003	10	..........a	-327.74
	154	0.173083	3.43676E-001	2.78126E-005	0.00000E+000	3.45250E-001	-1.22927E-003	10	..........a	-327.74
	161	0.1809	3.36683E-001	2.68872E-005	0.00000E+000	3.38200E-001	-1.31499E-003	10	..........a	-327.74
	168	0.188717	3.29583E-001	2.58074E-005	0.00000E+000	3.31150E-001	-1.07213E-003	10	..........a	-327.74
	175	0.196533	3.22583E-001	2.42650E-005	0.00000E+000	3.24150E-001	-1.48641E-003	10	..........a	-327.74
	182	0.20435	3.15599E-001	2.34166E-005	0.00000E+000	3.17100E-001	-1.52927E-003	10	..........a	-327.74
	189	0.212167	3.08491E-001	2.26454E-005	0.00000E+000	3.10050E-001	-1.20070E-003	10	..........a	-327.74
	196	0.219983	3.01414E-001	2.21827E-005	0.00000E+000	3.03000E-001	-1.62927E-003	10	..........a	-327.74
	203	0.2278	2.94414E-001	2.15657E-005	0.00000E+000	2.96000E-001	-1.08642E-003	10	..........a	-327.74
	210	0.235617	2.87468E-001	2.02546E-005	0.00000E+000	2.88950E-001	-1.31499E-003	10	..........a	-327.74
	217	0.243433	2.80529E-001	1.87893E-005	0.00000E+000	2.81900E-001	-1.17213E-003	10	..........a	-327.74
	224	0.25125	2.73368E-001	1.85579E-005	0.00000E+000	2.74900E-001	-1.40070E-003	10	..........a	-327.74
	231	0.259067	2.66391E-001	1.82494E-005	0.00000E+000	2.67850E-001	-1.10070E-003	10	..........a	-327.74
	238	0.266883	2.59329E-001	1.66299E-005	0.00000E+000	2.60800E-001	-1.10070E-003	10	..........a	-327.74
	245	0.2747	2.52322E-001	1.65527E-005	0.00000E+000	2.53800E-001	-1.27213E-003	10	..........a	-327.74
	252	0.282517	2.45260E-001	1.53959E-005	0.00000E+000	2.46750E-001	-1.44356E-003	10	..........a	-327.74
	259	0.290333	2.38145E-001	1.63214E-005	0.00000E+000	2.39700E-001	-1.51499E-003	10	..........a	-327.74
	266	0.29815	2.31276E-001	1.31593E-005	0.00000E+000	2.32650E-001	-1.22927E-003	10	..........a	-327.74
	273	0.305967	2.24091E-001	1.33907E-005	0.00000E+000	2.25650E-001	-1.57213E-003	10	..........a	-327.74
	280	0.313783	2.17122E-001	1.35450E-005	0.00000E+000	2.18600E-001	-1.48641E-003	10	..........a	-327.74
	287	0.3216	2.10068E-001	1.30822E-005	0.00000E+000	2.11550E-001	-1.24356E-003	10	..........a	-327.74
	294	0.329417	2.03045E-001	1.40077E-005	0.00000E+000	2.04550E-001	-1.55784E-003	10	..........a	-327.74
	301	0.337233	1.95953E-001	1.16169E-005	0.00000E+000	1.97500E-001	-1.34356E-003	10	..........a	-327.74
	308	0.34505	1.89037E-001	1.10770E-005	0.00000E+000	1.90450E-001	-1.28642E-003	10	..........a	-327.74
	315	0.352867	1.82068E-001	1.16169E-005	0.00000E+000	1.83450E-001	-1.28642E-003	10	..........a	-327.74
	322	0.360683	1.74953E-001	1.08457E-005	0.00000E+000	1.76400E-001	-1.31499E-003	10	..........a	-327.74
	329	0.3685	1.67929E-001	8.37773E-006	0.00000E+000	1.69350E-001	-1.20070E-003	10	..........a	-327.74
	336	0.376317	1.61045E-001	9.68882E-006	0.00000E+000	1.62300E-001	-9.29272E-004	10	..........a	-327.74
	343	0.384133	1.53853E-001	1.02287E-005	0.00000E+000	1.55300E-001	-1.50070E-003	10	..........a	-327.74
	350	0.39195	1.46776E-001	7.60651E-006	0.00000E+000	1.48250E-001	-1.05784E-003	10	..........a	-327.74
	357	0.399767	1.39814E-001	7.06665E-006	0.00000E+000	1.41200E-001	-1.27213E-003	10	..........a	-327.74
	364	0.407583	1.32791E-001	7.06665E-006	0.00000E+000	1.34200E-001	-1.01499E-003	10	..........a	-327.74
	371	0.4154	1.25783E-001	6.29542E-006	0.00000E+000	1.27150E-001	-1.22927E-003	10	..........a	-327.74
	378	0.423217	1.18568E-001	7.60651E-006	0.00000E+000	1.20100E-001	-1.28642E-003	10	..........a	-327.74
	385	0.431033	1.11622E-001	6.14118E-006	0.00000E+000	1.13050E-001	-1.44356E-003	10	..........a	-327.74
	392	0.43885	1.04637E-001	7.68363E-006	0.00000E+000	1.06050E-001	-1.22927E-003	10	..........a	-327.74
	399	0.446667	9.75372E-002	4.75297E-006	0.00000E+000	9.90000E-002	-1.38641E-003	10	..........a	-327.74
	406	0.454483	9.05833E-002	3.13340E-006	0.00000E+000	9.19500E-002	-1.18641E-003	10	..........a	-327.74
	413	0.4623	8.36371E-002	4.90722E-006	0.00000E+000	8.49500E-002	-1.22927E-003	10	..........a	-327.74
	420	0.470117	7.64910E-002	4.29024E-006	0.00000E+000	7.79000E-002	-1.42927E-003	10	..........a	-327.74
	427	0.477933	6.95141E-002	3.44189E-006	0.00000E+000	7.08500E-002	-1.32927E-003	10	..........a	-327.74
	434	0.48575	6.24756E-002	3.21052E-006	0.00000E+000	6.38500E-002	-1.22927E-003	10	..........a	-327.74
	441	0.493567	5.53987E-002	1.89943E-006	0.00000E+000	5.68000E-002	-1.55784E-003	10	..........a	-327.74
	448	0.501383	4.84448E-002	2.02737E-007	0.00000E+000	4.97500E-002	-1.17213E-003	10	..........a	-327.74
	455	0.5092	4.13295E-002	3.56982E-007	0.00000E+000	4.27000E-002	-1.18641E-003	10	..........a	-327.74
	462	0.517017	3.44372E-002	-1.87957E-006	0.00000E+000	3.57000E-002	-9.86415E-004	10	..........a	-327.74
	469	0.524833	2.73910E-002	-1.82876E-007	0.00000E+000	2.86500E-002	-1.02927E-003	10	..........a	-327.74
	476	0.53265	2.03141E-002	-1.87957E-006	0.00000E+000	2.16000E-002	-1.11499E-003	10	..........a	-327.74
	483	0.540467	1.31602E-002	8.19718E-007	0.00000E+000	1.46000E-002	-1.37213E-003	10	..........a	-327.74
	490	0.548283	6.06793E-003	-1.10835E-006	0.00000E+000	7.55000E-003	-1.48641E-003	10	..........a	-327.74
	497	0.5561	-1.06284E-003	-1.57108E-006	0.00000E+000	4.99994E-004	-1.61499E-003	10	..........a	-327.74
	504	0.563917	-7.97823E-003	-3.37121E-007	0.00000E+000	-6.50001E-003	-1.71499E-003	10	..........a	-327.74
	511	0.571733	-1.49628E-002	-5.68489E-007	0.00000E+000	-1.35500E-002	-1.45784E-003	10	..........a	-327.74
	518	0.57955	-2.20398E-002	-4.81023E-006	0.00000E+000	-2.06000E-002	-1.41499E-003	10	..........a	-327.74
	525	0.587367	-2.90013E-002	-4.50174E-006	0.00000E+000	-2.76500E-002	-1.15784E-003	10	..........a	-327.74
	532	0.595183	-3.61936E-002	-4.19325E-006	0.00000E+000	-3.46500E-002	-1.41499E-003	10	..........a	-327.74
	539	0.603	-4.31321E-002	-5.35009E-006	0.00000E+000	-4.17000E-002	-1.61499E-003	10	..........a	-327.74
	546	0.610817	-5.01167E-002	-4.96448E-006	0.00000E+000	-4.87500E-002	-1.28642E-003	10	..........a	-327.74
	553	0.618633	-5.71244E-002	-6.35268E-006	0.00000E+000	-5.57500E-002	-1.25784E-003	10	..........a	-327.74
	560	0.62645	-6.42090E-002	-4.57886E-006	0.00000E+000	-6.28000E-002	-1.38641E-003	10	..........a	-327.74
	567	0.634267	-7.12705E-002	-6.89254E-006	0.00000E+000	-6.98500E-002	-1.14356E-003	10	..........a	-327.74
	574	0.642083	-7.83244E-002	-5.58146E-006	0.00000E+000	-7.68500E-002	-1.45784E-003	10	..........a	-327.74
	581	0.6499	-8.52859E-002	-5.27297E-006	0.00000E+000	-8.39000E-002	-1.34356E-003	10	..........a	-327.74
	588	0.657717	-9.23859E-002	-7.04679E-006	0.00000E+000	-9.09500E-002	-1.60070E-003	10	..........a	-327.74
	595	0.665533	-9.93936E-002	-7.12391E-006	0.00000E+000	-9.80000E-002	-1.27213E-003	10	..........a	-327.74
	602	0.67335	-1.06409E-001	-5.96707E-006	0.00000E+000	-1.05000E-001	-1.57213E-003	10	..........a	-327.74
	609	0.681167	-1.13401E-001	-7.97226E-006	0.00000E+000	-1.12050E-001	-1.21499E-003	10	..........a	-327.74
	616	0.688983	-1.20455E-001	-6.96967E-006	0.00000E+000	-1.19100E-001	-1.25784E-003	10	..........a	-327.74
	623	0.6968	-1.27532E-001	-6.66118E-006	0.00000E+000	-1.26100E-001	-1.27213E-003	10	..........a	-327.74
	630	0.704617	-1.34524E-001	-7.50952E-006	0.00000E+000	-1.33150E-001	-1.25784E-003	10	..........a	-327.74
	637	0.712433	-1.41609E-001	-8.51212E-006	0.00000E+000	-1.40200E-001	-1.38641E-003	10	..........a	-327.74
	644	0.72025	-1.48594E-001	-6.19844E-006	0.00000E+000	-1.47200E-001	-1.35784E-003	10	..........a	-327.74
	651	0.728067	-1.55578E-001	-9.90032E-006	0.00000E+000	-1.54250E-001	-1.08642E-003	10	..........a	-327.74
	658	0.735883	-1.62671E-001	-8.28075E-006	0.00000E+000	-1.61300E-001	-1.34356E-003	10	..........a	-327.74
	665	0.7437	-1.69594E-001	-9.20622E-006	0.00000E+000	-1.68350E-001	-1.25784E-003	10	..........a	-327.74
	672	0.751517	-1.76640E-001	-1.05173E-005	0.00000E+000	-1.75350E-001	-1.01499E-003	10	..........a	-327.74
	679	0.759333	-1.83717E-001	-8.20363E-006	0.00000E+000	-1.82400E-001	-1.08642E-003	10	..........a	-327.74
	686	0.76715	-1.90694E-001	-9.43759E-006	0.00000E+000	-1.89450E-001	-1.12927E-003	10	..........a	-327.74
	693	0.774967	-1.97632E-001	-1.12114E-005	0.00000E+000	-1.96450E-001	-9.72129E-004	10	..........a	-327.74
	700	0.782783	-2.04863E-001	-1.12885E-005	0.00000E+000	-2.03500E-001	-1.12927E-003	10	..........a	-327.74
	707	0.7906	-2.11886E-001	-1.08258E-005	0.00000E+000	-2.10550E-001	-1.52927E-003	10	..........a	-327.74
	714	0.798417	-2.18886E-001	-1.15970E-005	0.00000E+000	-2.17550E-001	-1.34356E-003	10	..........a	-327.74
	721	0.806233	-2.25978E-001	-1.19826E-005	0.00000E+000	-2.24600E-001	-1.58641E-003	10	..........a	-327.74
	728	0.81405	-2.33001E-001	-1.29081E-005	0.00000E+000	-2.31650E-001	-1.34356E-003	10	..........a	-327.74
	735	0.821867	-2.40047E-001	-1.21369E-005	0.00000E+000	-2.38700E-001	-1.50070E-003	10	..........a	-327.74
	742	0.829683	-2.46932E-001	-1.47591E-005	0.00000E+000	-2.45700E-001	-1.28642E-003	10	..........a	-327.74
	749	0.8375	-2.54147E-001	-1.55303E-005	0.00000E+000	-2.52750E-001	-1.42927E-003	10	..........a	-327.74
	756	0.845317	-2.61132E-001	-1.59930E-005	0.00000E+000	-2.59800E-001	-1.61499E-003	10	..........a	-327.74
	763	0.853133	-2.68109E-001	-1.80753E-005	0.00000E+000	-2.66800E-001	-1.21499E-003	10	..........a	-327.74
	770	0.86095	-2.75147E-001	-1.65329E-005	0.00000E+000	-2.73850E-001	-1.40070E-003	10	..........a	-327.74
	777	0.868767	-2.82109E-001	-1.84609E-005	0.00000E+000	-2.80900E-001	-1.28642E-003	10	..........a	-327.74
	784	0.876583	-2.89163E-001	-1.75355E-005	0.00000E+000	-2.87900E-001	-1.27213E-003	10	..........a	-327.74
	791	0.8844	-2.96247E-001	-1.89237E-005	0.00000E+000	-2.94950E-001	-1.30070E-003	10	..........a	-327.74
	798	0.892217	-3.03301E-001	-1.92322E-005	0.00000E+000	-3.02000E-001	-1.40070E-003	10	..........a	-327.74
	805	0.900033	-3.10301E-001	-2.22399E-005	0.00000E+000	-3.09050E-001	-1.15784E-003	10	..........a	-327.74
	812	0.90785	-3.17524E-001	-2.19315E-005	0.00000E+000	-3.16050E-001	-1.67213E-003	10	..........a	-327.74
	819	0.915667	-3.24440E-001	-2.30883E-005	0.00000E+000	-3.23100E-001	-1.21499E-003	10	..........a	-327.74
	826	0.923483	-3.31494E-001	-2.40138E-005	0.00000E+000	-3.30150E-001	-1.47213E-003	10	..........a	-327.74
	833	0.9313	-3.38463E-001	-2.59418E-005	0.00000E+000	-3.37150E-001	-1.27213E-003	10	..........a	-327.74
	840	0.939117	-3.45571E-001	-2.62503E-005	0.00000E+000	-3.44200E-001	-1.51499E-003	10	..........a	-327.74
	847	0.946933	-3.52594E-001	-2.90267E-005	0.00000E+000	-3.51250E-001	-1.60070E-003	10	..........a	-327.74
	854	0.95475	-3.59609E-001	-3.14175E-005	0.00000E+000	-3.58250E-001	-1.28642E-003	10	..........a	-327.74
	861	0.96257	-3.66624E-001	-3.41168E-005	0.00000E+000	-3.65300E-001	-1.34356E-003	10	..........a	-327.74
	868	0.97038	-3.73640E-001	-3.50423E-005	0.00000E+000	-3.72350E-001	-1.17213E-003	10	..........a	-327.74
	875	0.9782	-3.80809E-001	-3.66619E-005	0.00000E+000	-3.79400E-001	-1.70070E-003	10	..........a	-327.74
	882	0.98602	-3.87678E-001	-4.16748E-005	0.00000E+000	-3.86400E-001	-1.65784E-003	10	..........a	-327.74
	889	0.99383	-3.94771E-001	-4.49140E-005	0.00000E+000	-3.93450E-001	-1.45784E-003	10	..........a	-327.74
	896	1.00165	-4.01840E-001	-5.00812E-005	0.00000E+000	-4.00500E-001	-1.28642E-003	10	..........a	-327.74
	903	1.00947	-4.08794E-001	-5.68680E-005	0.00000E+000	-4.07500E-001	-1.55784E-003	10	..........a	-327.74
	910	1.01728	-4.15801E-001	-6.40404E-005	0.00000E+000	-4.14550E-001	-1.35784E-003	10	..........a	-327.74
	917	1.0251	-4.22786E-001	-7.42977E-005	0.00000E+000	-4.21600E-001	-1.20070E-003	10	..........a	-327.74
	924	1.03292	-4.29809E-001	-8.58661E-005	0.00000E+000	-4.28600E-001	-1.20070E-003	10	..........a	-327.74
	931	1.04073	-4.36932E-001	-9.95939E-005	0.00000E+000	-4.35650E-001	-1.32927E-003	10	..........a	-327.74
	938	1.04855	-4.44032E-001	-1.19029E-004	0.00000E+000	-4.42700E-001	-1.58641E-003	10	..........a	-327.74
	945	1.05637	-4.50986E-001	-1.39312E-004	0.00000E+000	-4.49750E-001	-1.50070E-003	10	..........a	-327.74
	952	1.06418	-4.58132E-001	-1.61755E-004	0.00000E+000	-4.56750E-001	-1.61499E-003	10	..........a	-327.74
	959	1.072	-4.65078E-001	-1.85894E-004	0.00000E+000	-4.63800E-001	-1.32927E-003	10	..........a	-327.74
	966	1.07982	-4.72070E-001	-2.13658E-004	0.00000E+000	-4.70850E-001	-1.15784E-003	10	..........a	-327.74
	973	1.08763	-4.79117E-001	-2.42502E-004	0.00000E+000	-4.77850E-001	-1.30070E-003	10	..........a	-327.74
	980	1.09545	-4.86217E-001	-2.74122E-004	0.00000E+000	-4.84900E-001	-1.64356E-003	10	..........a	-327.74
	987	1.10327	-4.93094E-001	-3.06591E-004	0.00000E+000	-4.91950E-001	-1.15784E-003	10	..........a	-327.74
	994	1.11108	-5.00140E-001	-3.42453E-004	0.00000E+000	-4.98950E-001	-1.48641E-003	10	..........a	-327.74
	1001	1.1189	-5.07194E-001	-3.83174E-004	0.00000E+000	-5.06000E-001	-1.14356E-003	10	..........a	-327.74
	1008	1.12672	-5.14263E-001	-4.28136E-004	0.00000E+000	-5.13050E-001	-1.31499E-003	10	..........a	-327.74
	1015	1.13453	-5.21347E-001	-4.79577E-004	0.00000E+000	-5.20100E-001	-1.24356E-003	10	..........a	-327.74
	1022	1.14235	-5.28317E-001	-5.31789E-004	0.00000E+000	-5.27100E-001	-1.02927E-003	10	..........a	-327.74
	1029	1.15017	-5.35370E-001	-5.90634E-004	0.00000E+000	-5.34150E-001	-1.25784E-003	10	..........a	-327.74
	1036	1.15798	-5.42447E-001	-6.53797E-004	0.00000E+000	-5.41200E-001	-1.20070E-003	10	..........a	-327.74
	1043	1.1658	-5.49340E-001	-7.15264E-004	0.00000E+000	-5.48200E-001	-1.17213E-003	10	..........a	-327.74
	1050	1.17362	-5.56340E-001	-7.76576E-004	0.00000E+000	-5.55250E-001	-1.17213E-003	10	..........a	-327.74
	1057	1.18143	-5.63394E-001	-8.32259E-004	0.00000E+000	-5.62300E-001	-1.11499E-003	10	..........a	-327.74
	1064	1.18925	-5.70494E-001	-8.76373E-004	0.00000E+000	-5.69300E-001	-1.10070E-003	10	..........a	-327.74
	1071	1.19707	-5.77570E-001	-9.09073E-004	0.00000E+000	-5.76350E-001	-1.25784E-003	10	..........a	-327.74
	1078	1.20488	-5.84632E-001	-9.25654E-004	0.00000E+000	-5.83400E-001	-1.30070E-003	10	..........a	-327.74
	1085	1.2127	-5.91547E-001	-9.26657E-004	0.00000E+000	-5.90450E-001	-1.01499E-003	10	..........a	-327.74
	1092	1.22052	-5.98609E-001	-9.09844E-004	0.00000E+000	-5.97450E-001	-1.20070E-003	10	..........a	-327.74
	1099	1.22833	-6.05532E-001	-8.81077E-004	0.00000E+000	-6.04500E-001	-1.20070E-003	10	..........a	-327.74
	1106	1.23615	-6.12570E-001	-8.46218E-004	0.00000E+000	-6.11550E-001	-9.43558E-004	10	..........a	-327.74
	1113	1.24397	-6.19694E-001	-8.05960E-004	0.00000E+000	-6.18550E-001	-1.32927E-003	10	..........a	-327.74
	1120	1.25178	-6.26740E-001	-7.67939E-004	0.00000E+000	-6.25600E-001	-9.57844E-004	10	..........a	-327.74
	1127	1.2596	-6.33894E-001	-7.32848E-004	0.00000E+000	-6.32650E-001	-1.40070E-003	10	..........a	-327.74
	1134	1.26742	-6.40878E-001	-7.02461E-004	0.00000E+000	-6.39650E-001	-1.52927E-003	10	..........a	-327.74
	1141	1.27523	-6.47940E-001	-6.73232E-004	0.00000E+000	-6.46700E-001	-1.68641E-003	10	..........a	-327.74
	1148	1.28305	-6.54963E-001	-6.49941E-004	0.00000E+000	-6.53750E-001	-1.41499E-003	10	..........a	-327.74
	1155	1.29087	-6.62071E-001	-6.27575E-004	0.00000E+000	-6.60800E-001	-1.54356E-003	10	..........a	-327.74
	1162	1.29868	-6.69055E-001	-6.07755E-004	0.00000E+000	-6.67800E-001	-1.44356E-003	10	..........a	-327.74
	1169	1.3065	-6.76155E-001	-5.90171E-004	0.00000E+000	-6.74850E-001	-1.74356E-003	10	..........a	-327.74
	1176	1.31432	-6.83024E-001	-5.75286E-004	0.00000E+000	-6.81900E-001	-1.27213E-003	10	..........a	-327.74
	1183	1.32213	-6.90040E-001	-5.58242E-004	0.00000E+000	-6.88900E-001	-1.24356E-003	10	..........a	-327.74
	1190	1.32995	-6.97194E-001	-5.43743E-004	0.00000E+000	-6.95950E-001	-1.50070E-003	10	..........a	-327.74
	1197	1.33777	-7.04178E-001	-5.27933E-004	0.00000E+000	-7.03000E-001	-1.68641E-003	10	..........a	-327.74
	1204	1.34558	-7.11209E-001	-5.14514E-004	0.00000E+000	-7.10000E-001	-1.57213E-003	10	..........a	-327.74
	1211	1.3534	-7.18263E-001	-5.02251E-004	0.00000E+000	-7.17050E-001	-1.35784E-003	10	..........a	-327.74
	1218	1.36122	-7.25294E-001	-4.90991E-004	0.00000E+000	-7.24100E-001	-1.30070E-003	10	..........a	-327.74
	1225	1.36903	-7.32301E-001	-4.78883E-004	0.00000E+000	-7.31150E-001	-1.31499E-003	10	..........a	-327.74
	1232	1.37685	-7.39240E-001	-4.68703E-004	0.00000E+000	-7.38150E-001	-1.27213E-003	10	..........a	-327.74
	1239	1.38467	-7.46363E-001	-4.58291E-004	0.00000E+000	-7.45200E-001	-1.37213E-003	10	..........a	-327.74
	1246	1.39248	-7.53547E-001	-4.47494E-004	0.00000E+000	-7.52250E-001	-1.61499E-003	10	..........a	-327.74
	1253	1.4003	-7.60378E-001	-4.39705E-004	0.00000E+000	-7.59250E-001	-1.34356E-003	10	..........a	-327.74
	1260	1.40812	-7.67471E-001	-4.29987E-004	0.00000E+000	-7.66300E-001	-1.41499E-003	10	..........a	-327.74
	1267	1.41593	-7.74501E-001	-4.22815E-004	0.00000E+000	-7.73350E-001	-1.22927E-003	10	..........a	-327.74
	1274	1.42375	-7.81355E-001	-4.14640E-004	0.00000E+000	-7.80350E-001	-1.08642E-003	10	..........a	-327.74
	1281	1.43157	-7.88455E-001	-4.08470E-004	0.00000E+000	-7.87400E-001	-1.22927E-003	10	..........a	-327.74
	1288	1.43938	-7.95509E-001	-4.00372E-004	0.00000E+000	-7.94450E-001	-1.14356E-003	10	..........a	-327.74
	1295	1.4472	-8.02694E-001	-3.93817E-004	0.00000E+000	-8.01500E-001	-1.38641E-003	10	..........a	-327.74
	1302	1.45502	-8.09555E-001	-3.88187E-004	0.00000E+000	-8.08500E-001	-1.02927E-003	10	..........a	-327.74
	1309	1.46283	-8.16563E-001	-3.80937E-004	0.00000E+000	-8.15550E-001	-1.28642E-003	10	..........a	-327.74
	1316	1.47065	-8.23617E-001	-3.75384E-004	0.00000E+000	-8.22600E-001	-1.35784E-003	10	..........a	-327.74
	1323	1.47847	-8.30578E-001	-3.69446E-004	0.00000E+000	-8.29600E-001	-1.12927E-003	10	..........a	-327.74
	1330	1.48628	-8.37709E-001	-3.61888E-004	0.00000E+000	-8.36650E-001	-1.44356E-003	10	..........a	-327.74
	1337	1.4941	-8.44717E-001	-3.57415E-004	0.00000E+000	-8.43700E-001	-1.25784E-003	10	..........a	-327.74
	1344	1.50192	-8.51724E-001	-3.53250E-004	0.00000E+000	-8.50700E-001	-1.44356E-003	10	..........a	-327.74
	1351	1.50973	-8.58771E-001	-3.47929E-004	0.00000E+000	-8.57750E-001	-1.35784E-003	10	..........a	-327.74
	1358	1.51755	-8.65763E-001	-3.45229E-004	0.00000E+000	-8.64800E-001	-1.02927E-003	10	..........a	-327.74
	1365	1.52537	-8.72847E-001	-3.41219E-004	0.00000E+000	-8.71850E-001	-1.14356E-003	10	..........a	-327.74
	1372	1.53318	-8.79878E-001	-3.36052E-004	0.00000E+000	-8.78850E-001	-1.31499E-003	10	..........a	-327.74
	1379	1.541	-8.86840E-001	-3.32350E-004	0.00000E+000	-8.85900E-001	-1.21499E-003	10	..........a	-327.74
	1386	1.54882	-8.94040E-001	-3.28494E-004	0.00000E+000	-8.92950E-001	-1.20070E-003	10	..........a	-327.74
	1393	1.55663	-9.00955E-001	-3.25717E-004	0.00000E+000	-8.99950E-001	-1.07213E-003	10	..........a	-327.74
	1400	1.56445	-9.08094E-001	-3.19856E-004	0.00000E+000	-9.07000E-001	-1.42927E-003	10	..........a	-327.74
	1407	1.57227	-9.15071E-001	-3.17774E-004	0.00000E+000	-9.14050E-001	-1.45784E-003	10	..........a	-327.74
	1414	1.58008	-9.22086E-001	-3.14612E-004	0.00000E+000	-9.21050E-001	-1.12927E-003	10	..........a	-327.74
	1421	1.5879	-9.29147E-001	-3.10524E-004	0.00000E+000	-9.28100E-001	-1.45784E-003	10	..........a	-327.74
	1428	1.59572	-9.36186E-001	-3.07517E-004	0.00000E+000	-9.35150E-001	-1.71499E-003	10	..........a	-327.74
	1435	1.60353	-9.43271E-001	-3.05743E-004	0.00000E+000	-9.42200E-001	-1.28642E-003	10	..........a	-327.74
	1442	1.61135	-9.50224E-001	-3.02735E-004	0.00000E+000	-9.49200E-001	-1.44356E-003	10	..........a	-327.74
	1449	1.61917	-9.57271E-001	-3.00344E-004	0.00000E+000	-9.56250E-001	-1.35784E-003	10	..........a	-327.74
	1456	1.62698	-9.64278E-001	-2.97722E-004	0.00000E+000	-9.63300E-001	-1.30070E-003	10	..........a	-327.74
	1463	1.6348	-9.71347E-001	-2.94483E-004	0.00000E+000	-9.70300E-001	-1.50070E-003	10	..........a	-327.74
	1470	1.64262	-9.78378E-001	-2.92323E-004	0.00000E+000	-9.77350E-001	-1.65784E-003	10	..........a	-327.74
	1477	1.65043	-9.85509E-001	-2.91398E-004	0.00000E+000	-9.84400E-001	-1.42927E-003	10	..........a	-327.74
	1484	1.65825	-9.92424E-001	-2.88776E-004	0.00000E+000	-9.91400E-001	-1.22927E-003	10	..........a	-327.74
	1491	1.66607	-9.99424E-001	-2.86462E-004	0.00000E+000	-9.98450E-001	-1.32927E-003	10	..........a	-327.74
	1498	1.67388	-9.94471E-001	-2.65022E-004	0.00000E+000	-9.93450E-001	-1.34356E-003	10	..........a	-327.74
	1505	1.6817	-9.87501E-001	-2.53608E-004	0.00000E+000	-9.86400E-001	-1.45784E-003	10	..........a	-327.74
	1512	1.68952	-9.80294E-001	-2.48980E-004	0.00000E+000	-9.79350E-001	-1.31499E-003	10	..........a	-327.74
	1519	1.69733	-9.73347E-001	-2.42502E-004	0.00000E+000	-9.72350E-001	-1.45784E-003	10	..........a	-327.74
	1526	1.70515	-9.66393E-001	-2.37952E-004	0.00000E+000	-9.65300E-001	-1.84356E-003	10	..........a	-327.74
	1533	1.71297	-9.59147E-001	-2.33942E-004	0.00000E+000	-9.58250E-001	-1.25784E-003	10	..........a	-327.74
	1540	1.72078	-9.52271E-001	-2.30085E-004	0.00000E+000	-9.51200E-001	-1.38641E-003	10	..........a	-327.74
	1547	1.7286	-9.45224E-001	-2.26538E-004	0.00000E+000	-9.44200E-001	-1.54356E-003	10	..........a	-327.74
	1554	1.73642	-9.38124E-001	-2.24764E-004	0.00000E+000	-9.37150E-001	-1.18641E-003	10	..........a	-327.74
	1561	1.74423	-9.31186E-001	-2.21371E-004	0.00000E+000	-9.30100E-001	-1.52927E-003	10	..........a	-327.74
	1568	1.75205	-9.24140E-001	-2.19134E-004	0.00000E+000	-9.23100E-001	-1.30070E-003	10	..........a	-327.74
	1575	1.75987	-9.17140E-001	-2.17129E-004	0.00000E+000	-9.16050E-001	-1.37213E-003	10	..........a	-327.74
	1582	1.76768	-9.10086E-001	-2.14815E-004	0.00000E+000	-9.09000E-001	-1.35784E-003	10	..........a	-327.74
	1589	1.7755	-9.03001E-001	-2.13196E-004	0.00000E+000	-9.02000E-001	-1.17213E-003	10	..........a	-327.74
	1596	1.78332	-8.96032E-001	-2.08877E-004	0.00000E+000	-8.94950E-001	-1.27213E-003	10	..........a	-327.74
	1603	1.79113	-8.88863E-001	-2.09879E-004	0.00000E+000	-8.87900E-001	-1.25784E-003	10	..........a	-327.74
	1610	1.79895	-8.81932E-001	-2.06871E-004	0.00000E+000	-8.80850E-001	-1.27213E-003	10	..........a	-327.74
	1617	1.80677	-8.74847E-001	-2.05175E-004	0.00000E+000	-8.73850E-001	-1.25784E-003	10	..........a	-327.74
	1624	1.81458	-8.67755E-001	-2.04249E-004	0.00000E+000	-8.66800E-001	-1.31499E-003	10	..........a	-327.74
	1631	1.8224	-8.60847E-001	-2.01473E-004	0.00000E+000	-8.59750E-001	-1.55784E-003	10	..........a	-327.74
	1638	1.83022	-8.53832E-001	-1.98774E-004	0.00000E+000	-8.52750E-001	-1.55784E-003	10	..........a	-327.74
	1645	1.83803	-8.46709E-001	-1.98157E-004	0.00000E+000	-8.45700E-001	-1.31499E-003	10	..........a	-327.74
	1652	1.84585	-8.39624E-001	-1.95997E-004	0.00000E+000	-8.38650E-001	-1.15784E-003	10	..........a	-327.74
	1659	1.85367	-8.32686E-001	-1.95380E-004	0.00000E+000	-8.31650E-001	-1.40070E-003	10	..........a	-327.74
	1666	1.86148	-8.25717E-001	-1.94686E-004	0.00000E+000	-8.24600E-001	-1.54356E-003	10	..........a	-327.74
	1673	1.8693	-8.18694E-001	-1.90984E-004	0.00000E+000	-8.17550E-001	-1.25784E-003	10	..........a	-327.74
	1680	1.87712	-8.11601E-001	-1.90830E-004	0.00000E+000	-8.10500E-001	-1.20070E-003	10	..........a	-327.74
	1687	1.88493	-8.04632E-001	-1.87591E-004	0.00000E+000	-8.03500E-001	-1.47213E-003	10	..........a	-327.74
	1694	1.89275	-7.97509E-001	-1.86588E-004	0.00000E+000	-7.96450E-001	-1.18641E-003	10	..........a	-327.74
	1701	1.90057	-7.90471E-001	-1.85817E-004	0.00000E+000	-7.89400E-001	-1.32927E-003	10	..........a	-327.74
	1708	1.90838	-7.83571E-001	-1.84043E-004	0.00000E+000	-7.82400E-001	-1.42927E-003	10	..........a	-327.74
	1715	1.9162	-7.76486E-001	-1.82038E-004	0.00000E+000	-7.75350E-001	-1.41499E-003	10	..........a	-327.74
	1722	1.92402	-7.69401E-001	-1.80418E-004	0.00000E+000	-7.68300E-001	-1.38641E-003	10	..........a	-327.74
	1729	1.93183	-7.62409E-001	-1.78336E-004	0.00000E+000	-7.61300E-001	-1.27213E-003	10	..........a	-327.74
	1736	1.93965	-7.55324E-001	-1.79956E-004	0.00000E+000	-7.54250E-001	-9.43558E-004	10	..........a	-327.74
	1743	1.94747	-7.48332E-001	-1.75560E-004	0.00000E+000	-7.47200E-001	-1.34356E-003	10	..........a	-327.74
	1750	1.95528	-7.41309E-001	-1.74557E-004	0.00000E+000	-7.40150E-001	-1.60070E-003	10	..........a	-327.74
	1757	1.9631	-7.34271E-001	-1.73246E-004	0.00000E+000	-7.33150E-001	-1.27213E-003	10	..........a	-327.74
	1764	1.97092	-7.27209E-001	-1.72166E-004	0.00000E+000	-7.26100E-001	-1.10070E-003	10	..........a	-327.74
	1771	1.97873	-7.20163E-001	-1.70161E-004	0.00000E+000	-7.19050E-001	-1.28642E-003	10	..........a	-327.74
	1778	1.98655	-7.13194E-001	-1.67925E-004	0.00000E+000	-7.12050E-001	-1.31499E-003	10	..........a	-327.74
	1785	1.99437	-7.06132E-001	-1.66228E-004	0.00000E+000	-7.05000E-001	-1.42927E-003	10	..........a	-327.74
	1792	2.00218	-6.99155E-001	-1.64068E-004	0.00000E+000	-6.97950E-001	-1.40070E-003	10	..........a	-327.74
	1799	2.01	-6.92109E-001	-1.61909E-004	0.00000E+000	-6.90950E-001	-1.50070E-003	10	..........a	-327.74
	1806	2.01782	-6.84994E-001	-1.59827E-004	0.00000E+000	-6.83900E-001	-1.02927E-003	10	..........a	-327.74
	1813	2.02563	-6.77978E-001	-1.57127E-004	0.00000E+000	-6.76850E-001	-1.44356E-003	10	..........a	-327.74
	1820	2.03345	-6.71001E-001	-1.52886E-004	0.00000E+000	-6.69800E-001	-1.51499E-003	10	..........a	-327.74
	1827	2.04127	-6.64086E-001	-1.50032E-004	0.00000E+000	-6.62800E-001	-1.58641E-003	10	..........a	-327.74
	1834	2.04908	-6.56947E-001	-1.47101E-004	0.00000E+000	-6.55750E-001	-1.52927E-003	10	..........a	-327.74
	1841	2.0569	-6.49855E-001	-1.44248E-004	0.00000E+000	-6.48700E-001	-1.44356E-003	10	..........a	-327.74
	1848	2.06472	-6.42940E-001	-1.38849E-004	0.00000E+000	-6.41700E-001	-1.18641E-003	10	..........a	-327.74
	1855	2.07253	-6.35886E-001	-1.35379E-004	0.00000E+000	-6.34650E-001	-1.14356E-003	10	..........a	-327.74
	1862	2.08035	-6.28794E-001	-1.26664E-004	0.00000E+000	-6.27600E-001	-1.20070E-003	10	..........a	-327.74
	1869	2.08817	-6.21940E-001	-1.19029E-004	0.00000E+000	-6.20600E-001	-1.61499E-003	10	..........a	-327.74
	1876	2.09598	-6.14717E-001	-1.10777E-004	0.00000E+000	-6.13550E-001	-1.67213E-003	10	..........a	-327.74
	1883	2.1038	-6.07740E-001	-9.71260E-005	0.00000E+000	-6.06500E-001	-1.45784E-003	10	..........a	-327.74
	1890	2.11162	-6.00694E-001	-8.13930E-005	0.00000E+000	-5.99450E-001	-1.44356E-003	10	..........a	-327.74
	1897	2.11943	-5.93786E-001	-6.14954E-005	0.00000E+000	-5.92450E-001	-1.67213E-003	10	..........a	-327.74
	1904	2.12725	-5.86601E-001	-3.74331E-005	0.00000E+000	-5.85400E-001	-1.47213E-003	10	..........a	-327.74
	1911	2.13507	-5.79555E-001	-6.35268E-006	0.00000E+000	-5.78350E-001	-1.28642E-003	10	..........a	-327.74
	1918	2.14288	-5.72540E-001	3.29027E-005	0.00000E+000	-5.71350E-001	-1.42927E-003	10	..........a	-327.74
	1925	2.1507	-5.65501E-001	7.90992E-005	0.00000E+000	-5.64300E-001	-1.42927E-003	10	..........a	-327.74
	1932	2.15852	-5.58547E-001	1.24987E-004	0.00000E+000	-5.57250E-001	-1.42927E-003	10	..........a	-327.74
	1939	2.16633	-5.51371E-001	1.74114E-004	0.00000E+000	-5.50250E-001	-1.05784E-003	10	..........a	-327.74
	1946	2.17415	-5.44417E-001	2.28254E-004	0.00000E+000	-5.43200E-001	-1.41499E-003	10	..........a	-327.74
	1953	2.18197	-5.37394E-001	2.78153E-004	0.00000E+000	-5.36150E-001	-1.48641E-003	10	..........a	-327.74
	1960	2.18978	-5.30417E-001	3.27125E-004	0.00000E+000	-5.29100E-001	-1.30070E-003	10	..........a	-327.74
	1967	2.1976	-5.23332E-001	3.68155E-004	0.00000E+000	-5.22100E-001	-1.24356E-003	10	..........a	-327.74
	1974	2.20542	-5.16163E-001	4.07564E-004	0.00000E+000	-5.15050E-001	-1.15784E-003	10	..........a	-327.74
	1981	2.21323	-5.09201E-001	4.42038E-004	0.00000E+000	-5.08000E-001	-1.00070E-003	10	..........a	-327.74
	1988	2.22105	-5.02171E-001	4.68260E-004	0.00000E+000	-5.01000E-001	-1.05784E-003	10	..........a	-327.74
	1995	2.22887	-4.95201E-001	4.90703E-004	0.00000E+000	-4.93950E-001	-1.41499E-003	10	..........a	-327.74
	2002	2.23668	-4.88078E-001	5.06744E-004	0.00000E+000	-4.86900E-001	-1.20070E-003	10	..........a	-327.74
	2009	2.2445	-4.81070E-001	5.16307E-004	0.00000E+000	-4.79900E-001	-1.41499E-003	10	..........a	-327.74
	2016	2.25232	-4.74055E-001	5.21706E-004	0.00000E+000	-4.72850E-001	-1.15784E-003	10	..........a	-327.74
	2023	2.26013	-4.67017E-001	5.22169E-004	0.00000E+000	-4.65800E-001	-1.18641E-003	10	..........a	-327.74
	2030	2.26795	-4.59894E-001	5.18235E-004	0.00000E+000	-4.58750E-001	-1.04356E-003	10	..........a	-327.74
	2037	2.27577	-4.52947E-001	5.08672E-004	0.00000E+000	-4.51750E-001	-1.27213E-003	10	..........a	-327.74
	2044	2.28358	-4.45878E-001	4.98723E-004	0.00000E+000	-4.44700E-001	-8.72129E-004	10	..........a	-327.74
	2051	2.2914	-4.38824E-001	4.85381E-004	0.00000E+000	-4.37650E-001	-1.08642E-003	10	..........a	-327.74
	2058	2.29922	-4.31886E-001	4.72579E-004	0.00000E+000	-4.30650E-001	-1.41499E-003	10	..........a	-327.74
	2065	2.30703	-4.24924E-001	4.59699E-004	0.00000E+000	-4.23600E-001	-1.20070E-003	10	..........a	-327.74
	2072	2.31485	-4.17794E-001	4.43812E-004	0.00000E+000	-4.16550E-001	-1.07213E-003	10	..........a	-327.74
	2079	2.32267	-4.10724E-001	4.31087E-004	0.00000E+000	-4.09550E-001	-1.27213E-003	10	..........a	-327.74
	2086	2.33048	-4.03847E-001	4.18979E-004	0.00000E+000	-4.02500E-001	-1.51499E-003	10	..........a	-327.74
	2093	2.3383	-3.96732E-001	4.05251E-004	0.00000E+000	-3.95450E-001	-1.42927E-003	10	..........a	-327.74
	2100	2.34612	-3.89624E-001	3.93759E-004	0.00000E+000	-3.88400E-001	-1.60070E-003	10	..........a	-327.74
	2107	2.35393	-3.82701E-001	3.85199E-004	0.00000E+000	-3.81400E-001	-1.67213E-003	10	..........a	-327.74
	2114	2.36175	-3.75563E-001	3.72628E-004	0.00000E+000	-3.74350E-001	-1.05784E-003	10	..........a	-327.74
	2121	2.36957	-3.68763E-001	3.63450E-004	0.00000E+000	-3.67300E-001	-1.54356E-003	10	..........a	-327.74
	2128	2.37738	-3.61601E-001	3.55430E-004	0.00000E+000	-3.60300E-001	-1.25784E-003	10	..........a	-327.74
	2135	2.3852	-3.54547E-001	3.46869E-004	0.00000E+000	-3.53250E-001	-1.38641E-003	10	..........a	-327.74
	2142	2.39302	-3.47524E-001	3.41085E-004	0.00000E+000	-3.46200E-001	-1.58641E-003	10	..........a	-327.74
	2149	2.40083	-3.40501E-001	3.31367E-004	0.00000E+000	-3.39200E-001	-1.32927E-003	10	..........a	-327.74
	2156	2.40865	-3.33332E-001	3.24426E-004	0.00000E+000	-3.32150E-001	-1.15784E-003	10	..........a	-327.74
	2163	2.41647	-3.26494E-001	3.17948E-004	0.00000E+000	-3.25100E-001	-1.55784E-003	10	..........a	-327.74
	2170	2.42428	-3.19294E-001	3.11855E-004	0.00000E+000	-3.18050E-001	-1.30070E-003	10	..........a	-327.74
	2177	2.4321	-3.12355E-001	3.06919E-004	0.00000E+000	-3.11050E-001	-1.44356E-003	10	..........a	-327.74
	2184	2.43992	-3.05447E-001	3.00133E-004	0.00000E+000	-3.04000E-001	-1.52927E-003	10	..........a	-327.74
	2191	2.44773	-2.98309E-001	2.94425E-004	0.00000E+000	-2.96950E-001	-1.52927E-003	10	..........a	-327.74
	2198	2.45555	-2.91386E-001	2.89181E-004	0.00000E+000	-2.89950E-001	-1.85784E-003	10	..........a	-327.74
	2205	2.46337	-2.84178E-001	2.83937E-004	0.00000E+000	-2.82900E-001	-1.12927E-003	10	..........a	-327.74
	2212	2.47118	-2.77040E-001	2.77921E-004	0.00000E+000	-2.75850E-001	-1.21499E-003	10	..........a	-327.74
	2219	2.479	-2.70201E-001	2.73371E-004	0.00000E+000	-2.68850E-001	-1.62927E-003	10	..........a	-327.74
	2226	2.48682	-2.63071E-001	2.69206E-004	0.00000E+000	-2.61800E-001	-1.31499E-003	10	..........a	-327.74
	2233	2.49463	-2.56055E-001	2.64193E-004	0.00000E+000	-2.54750E-001	-1.24356E-003	10	..........a	-327.74
	2240	2.50245	-2.48947E-001	2.56790E-004	0.00000E+000	-2.47700E-001	-1.14356E-003	10	..........a	-327.74
	2247	2.51027	-2.41986E-001	2.55170E-004	0.00000E+000	-2.40700E-001	-1.54356E-003	10	..........a	-327.74
	2254	2.51808	-2.34978E-001	2.47689E-004	0.00000E+000	-2.33650E-001	-1.31499E-003	10	..........a	-327.74
	2261	2.5259	-2.27901E-001	2.44142E-004	0.00000E+000	-2.26600E-001	-1.40070E-003	10	..........a	-327.74
	2268	2.53372	-2.20947E-001	2.40054E-004	0.00000E+000	-2.19600E-001	-1.34356E-003	10	..........a	-327.74
	2275	2.54153	-2.13894E-001	2.34655E-004	0.00000E+000	-2.12550E-001	-1.27213E-003	10	..........a	-327.74
	2282	2.54935	-2.06809E-001	2.30645E-004	0.00000E+000	-2.05500E-001	-1.04356E-003	10	..........a	-327.74
	2289	2.55717	-1.99871E-001	2.26558E-004	0.00000E+000	-1.98500E-001	-1.20070E-003	10	..........a	-327.74
	2296	2.56498	-1.92917E-001	2.22701E-004	0.00000E+000	-1.91450E-001	-1.55784E-003	10	..........a	-327.74
	2303	2.5728	-1.85701E-001	2.18460E-004	0.00000E+000	-1.84400E-001	-1.27213E-003	10	..........a	-327.74
	2310	2.58062	-1.78740E-001	2.14372E-004	0.00000E+000	-1.77350E-001	-1.28642E-003	10	..........a	-327.74
	2317	2.58843	-1.71601E-001	2.09976E-004	0.00000E+000	-1.70350E-001	-1.17213E-003	10	..........a	-327.74
	2324	2.59625	-1.64763E-001	2.07585E-004	0.00000E+000	-1.63300E-001	-1.37213E-003	10	..........a	-327.74
	2331	2.60407	-1.57647E-001	2.02495E-004	0.00000E+000	-1.56250E-001	-1.24356E-003	10	..........a	-327.74
	2338	2.61188	-1.50663E-001	1.99719E-004	0.00000E+000	-1.49250E-001	-1.30070E-003	10	..........a	-327.74
	2345	2.6197	-1.43517E-001	1.97482E-004	0.00000E+000	-1.42200E-001	-1.32927E-003	10	..........a	-327.74
	2352	2.62752	-1.36424E-001	1.93241E-004	0.00000E+000	-1.35150E-001	-1.32927E-003	10	..........a	-327.74
	2359	2.63533	-1.29440E-001	1.90464E-004	0.00000E+000	-1.28150E-001	-1.37213E-003	10	..........a	-327.74
	2366	2.64315	-1.22471E-001	1.88073E-004	0.00000E+000	-1.21100E-001	-1.42927E-003	10	..........a	-327.74
	2373	2.65097	-1.15555E-001	1.87765E-004	0.00000E+000	-1.14050E-001	-1.64356E-003	10	..........a	-327.74
	2380	2.65878	-1.08363E-001	1.84063E-004	0.00000E+000	-1.07000E-001	-1.44356E-003	10	..........a	-327.74
	2387	2.6666	-1.01401E-001	1.81287E-004	0.00000E+000	-1.00000E-001	-1.22927E-003	10	..........a	-327.74
	2394	2.67442	-9.43167E-002	1.79204E-004	0.00000E+000	-9.29500E-002	-1.65784E-003	10	..........a	-327.74
	2401	2.68223	-8.73398E-002	1.77662E-004	0.00000E+000	-8.59000E-002	-1.28642E-003	10	..........a	-327.74
	2408	2.69005	-8.02859E-002	1.77431E-004	0.00000E+000	-7.89000E-002	-1.41499E-003	10	..........a	-327.74
	2415	2.69787	-7.33013E-002	1.75657E-004	0.00000E+000	-7.18500E-002	-1.54356E-003	10	..........a	-327.74
	2422	2.70568	-6.62628E-002	1.74654E-004	0.00000E+000	-6.48000E-002	-1.57213E-003	10	..........a	-327.74
	2429	2.7135	-5.91552E-002	1.73806E-004	0.00000E+000	-5.78000E-002	-1.18641E-003	10	..........a	-327.74
	2436	2.72132	-5.21013E-002	1.72572E-004	0.00000E+000	-5.07500E-002	-1.22927E-003	10	..........a	-327.74
	2443	2.72913	-4.50475E-002	1.73883E-004	0.00000E+000	-4.37000E-002	-1.41499E-003	10	..........a	-327.74
	2450	2.73695	-3.78782E-002	1.70798E-004	0.00000E+000	-3.66500E-002	-1.14356E-003	10	..........a	-327.74
	2457	2.74477	-3.11244E-002	1.72726E-004	0.00000E+000	-2.96500E-002	-1.70070E-003	10	..........a	-327.74
	2464	2.75258	-2.40936E-002	1.71261E-004	0.00000E+000	-2.26000E-002	-1.57213E-003	10	..........a	-327.74
	2471	2.7604	-1.70398E-002	1.73651E-004	0.00000E+000	-1.55500E-002	-1.51499E-003	10	..........a	-327.74
	2478	2.76822	-1.00475E-002	1.72880E-004	0.00000E+000	-8.55000E-003	-1.44356E-003	10	..........a	-327.74
	2485	2.77603	-2.89361E-003	1.72572E-004	0.00000E+000	-1.50001E-003	-1.20070E-003	10	..........a	-327.74
	2492	2.78385	4.09869E-003	1.73189E-004	0.00000E+000	5.55000E-003	-1.50070E-003	10	..........a	-327.74
	2499	2.79167	1.11372E-002	1.75194E-004	0.00000E+000	1.25500E-002	-1.41499E-003	10	..........a	-327.74
	2506	2.79948	1.82141E-002	1.75348E-004	0.00000E+000	1.96000E-002	-1.37213E-003	10	..........a	-327.74
	2513	2.8073	2.52372E-002	1.75348E-004	0.00000E+000	2.66500E-002	-1.37213E-003	10	..........a	-327.74
	2520	2.81512	3.21525E-002	1.77199E-004	0.00000E+000	3.37000E-002	-1.50070E-003	10	..........a	-327.74
	2527	2.82293	3.94602E-002	1.76274E-004	0.00000E+000	4.07000E-002	-1.37213E-003	10	..........a	-327.74
	2534	2.83075	4.63295E-002	1.77970E-004	0.00000E+000	4.77500E-002	-1.48641E-003	10	..........a	-327.74
	2541	2.83857	5.33987E-002	1.77662E-004	0.00000E+000	5.48000E-002	-1.21499E-003	10	..........a	-327.74
	2548	2.84638	6.03218E-002	1.77122E-004	0.00000E+000	6.18000E-002	-1.54356E-003	10	..........a	-327.74
	2555	2.8542	6.74141E-002	1.75040E-004	0.00000E+000	6.88500E-002	-1.34356E-003	10	..........a	-327.74
	2562	2.86202	7.45525E-002	1.74808E-004	0.00000E+000	7.59000E-002	-1.27213E-003	10	..........a	-327.74
	2569	2.86983	8.14525E-002	1.72032E-004	0.00000E+000	8.29000E-002	-1.15784E-003	10	..........a	-327.74
	2576	2.87765	8.85756E-002	1.72186E-004	0.00000E+000	8.99500E-002	-1.44356E-003	10	..........a	-327.74
	2583	2.88547	9.55987E-002	1.69101E-004	0.00000E+000	9.70000E-002	-1.45784E-003	10	..........a	-327.74
	2590	2.89328	1.02537E-001	1.68793E-004	0.00000E+000	1.04050E-001	-1.55784E-003	10	..........a	-327.74
	2597	2.9011	1.09706E-001	1.65785E-004	0.00000E+000	1.11050E-001	-1.20070E-003	10	..........a	-327.74
	2604	2.90892	1.16614E-001	1.63086E-004	0.00000E+000	1.18100E-001	-1.42927E-003	10	..........a	-327.74
	2611	2.91673	1.23768E-001	1.60155E-004	0.00000E+000	1.25150E-001	-1.11499E-003	10	..........a	-327.74
	2618	2.92455	1.30753E-001	1.56916E-004	0.00000E+000	1.32150E-001	-1.40070E-003	10	..........a	-327.74
	2625	2.93237	1.37768E-001	1.55142E-004	0.00000E+000	1.39200E-001	-1.24356E-003	10	..........a	-327.74
	2632	2.94018	1.44891E-001	1.53137E-004	0.00000E+000	1.46250E-001	-1.04356E-003	10	..........a	-327.74
	2639	2.948	1.51714E-001	1.50129E-004	0.00000E+000	1.53250E-001	-1.42927E-003	10	..........a	-327.74
	2646	2.95582	1.58753E-001	1.47353E-004	0.00000E+000	1.60300E-001	-1.48641E-003	10	..........a	-327.74
	2653	2.96363	1.65976E-001	1.43805E-004	0.00000E+000	1.67350E-001	-1.18641E-003	10	..........a	-327.74
	2660	2.97145	1.72899E-001	1.42802E-004	0.00000E+000	1.74400E-001	-1.30070E-003	10	..........a	-327.74
	2667	2.97927	1.79922E-001	1.40952E-004	0.00000E+000	1.81400E-001	-1.65784E-003	10	..........a	-327.74
	2674	2.98708	1.86922E-001	1.38869E-004	0.00000E+000	1.88450E-001	-1.62927E-003	10	..........a	-327.74
	2681	2.9949	1.93899E-001	1.36401E-004	0.00000E+000	1.95500E-001	-1.58641E-003	10	..........a	-327.74
	2688	3.00272	2.01037E-001	1.34165E-004	0.00000E+000	2.02500E-001	-1.31499E-003	10	..........a	-327.74
	2695	3.01053	2.08022E-001	1.34010E-004	0.00000E+000	2.09550E-001	-1.25784E-003	10	..........a	-327.74
	2702	3.01835	2.14983E-001	1.31928E-004	0.00000E+000	2.16600E-001	-1.65784E-003	10	..........a	-327.74
	2709	3.02617	2.22129E-001	1.30154E-004	0.00000E+000	2.23600E-001	-1.32927E-003	10	..........a	-327.74
	2716	3.03398	2.29014E-001	1.27069E-004	0.00000E+000	2.30650E-001	-1.68641E-003	10	..........a	-327.74
	2723	3.0418	2.36183E-001	1.25604E-004	0.00000E+000	2.37700E-001	-1.37213E-003	10	..........a	-327.74
	2730	3.04962	2.43168E-001	1.24524E-004	0.00000E+000	2.44750E-001	-1.52927E-003	10	..........a	-327.74
	2737	3.05743	2.50199E-001	1.22905E-004	0.00000E+000	2.51750E-001	-1.51499E-003	10	..........a	-327.74
	2744	3.06525	2.57314E-001	1.22442E-004	0.00000E+000	2.58800E-001	-1.32927E-003	10	..........a	-327.74
	2751	3.07307	2.64283E-001	1.20360E-004	0.00000E+000	2.65850E-001	-1.31499E-003	10	..........a	-327.74
	2758	3.08088	2.71306E-001	1.19203E-004	0.00000E+000	2.72850E-001	-1.40070E-003	10	..........a	-327.74
	2765	3.0887	2.78283E-001	1.19974E-004	0.00000E+000	2.79900E-001	-1.54356E-003	10	..........a	-327.74
	2772	3.09652	2.85422E-001	1.16735E-004	0.00000E+000	2.86950E-001	-1.08642E-003	10	..........a	-327.74
	2779	3.10433	2.92499E-001	1.15424E-004	0.00000E+000	2.94000E-001	-1.24356E-003	10	..........a	-327.74
	2786	3.11215	2.99537E-001	1.15810E-004	0.00000E+000	3.01000E-001	-1.35784E-003	10	..........a	-327.74
	2793	3.11997	3.06499E-001	1.14267E-004	0.00000E+000	3.08050E-001	-1.40070E-003	10	..........a	-327.74
	2800	3.12778	3.13529E-001	1.13881E-004	0.00000E+000	3.15100E-001	-1.55784E-003	10	..........a	-327.74
	2807	3.1356	3.20483E-001	1.14036E-004	0.00000E+000	3.22100E-001	-1.45784E-003	10	..........a	-327.74
	2814	3.14342	3.27599E-001	1.12648E-004	0.00000E+000	3.29150E-001	-1.57213E-003	10	..........a	-327.74
	2821	3.15123	3.34591E-001	1.12185E-004	0.00000E+000	3.36200E-001	-1.45784E-003	10	..........a	-327.74
	2828	3.15905	3.41591E-001	1.12339E-004	0.00000E+000	3.43200E-001	-1.37213E-003	10	..........a	-327.74
	2835	3.16687	3.48653E-001	1.11336E-004	0.00000E+000	3.50250E-001	-1.64356E-003	10	..........a	-327.74
	2842	3.17468	3.55722E-001	1.10797E-004	0.00000E+000	3.57300E-001	-1.25784E-003	10	..........a	-327.74
	2849	3.1825	3.62776E-001	1.10334E-004	0.00000E+000	3.64350E-001	-1.22927E-003	10	..........a	-327.74
	2856	3.19032	3.69791E-001	1.10102E-004	0.00000E+000	3.71350E-001	-1.05784E-003	10	..........a	-327.74
	2863	3.19813	3.76868E-001	1.11336E-004	0.00000E+000	3.78400E-001	-1.47213E-003	10	..........a	-327.74
	2870	3.20595	3.83860E-001	1.09254E-004	0.00000E+000	3.85450E-001	-1.41499E-003	10	..........a	-327.74
	2877	3.21377	3.90799E-001	1.10488E-004	0.00000E+000	3.92450E-001	-1.74356E-003	10	..........a	-327.74
	2884	3.22158	3.97899E-001	1.09948E-004	0.00000E+000	3.99500E-001	-1.32927E-003	10	..........a	-327.74
	2891	3.2294	4.05045E-001	1.08791E-004	0.00000E+000	4.06550E-001	-1.27213E-003	10	..........a	-327.74
	2898	3.23722	4.12045E-001	1.07249E-004	0.00000E+000	4.13550E-001	-1.22927E-003	10	..........a	-327.74
	2905	3.24503	4.18945E-001	1.06786E-004	0.00000E+000	4.20600E-001	-1.62927E-003	10	..........a	-327.74
	2912	3.25285	4.26037E-001	1.06015E-004	0.00000E+000	4.27650E-001	-1.14356E-003	10	..........a	-327.74
	2919	3.26067	4.33153E-001	1.08560E-004	0.00000E+000	4.34700E-001	-1.50070E-003	10	..........a	-327.74
	2926	3.26848	4.40114E-001	1.06169E-004	0.00000E+000	4.41700E-001	-1.31499E-003	10	..........a	-327.74
	2933	3.2763	4.47129E-001	1.05552E-004	0.00000E+000	4.48750E-001	-1.57213E-003	10	..........a	-327.74
	2940	3.28412	4.54191E-001	1.04781E-004	0.00000E+000	4.55800E-001	-1.28642E-003	10	..........a	-327.74
	2947	3.29193	4.61245E-001	1.03007E-004	0.00000E+000	4.62800E-001	-1.11499E-003	10	..........a	-327.74
	2954	3.29975	4.68276E-001	1.03624E-004	0.00000E+000	4.69850E-001	-1.31499E-003	10	..........a	-327.74
	2961	3.30757	4.75314E-001	1.03624E-004	0.00000E+000	4.76900E-001	-1.38641E-003	10	..........a	-327.74
	2968	3.31538	4.82253E-001	1.01079E-004	0.00000E+000	4.83900E-001	-1.37213E-003	10	..........a	-327.74
	2975	3.3232	4.89337E-001	1.01388E-004	0.00000E+000	4.90950E-001	-1.38641E-003	10	..........a	-327.74
	2982	3.33102	4.96306E-001	1.01619E-004	0.00000E+000	4.98000E-001	-1.57213E-003	10	..........a	-327.74
	2984	3.33325	4.98368E-001	1.00462E-004	0.00000E+000	5.00000E-001	-1.44356E-003	10	..........a	-327.74
CURVE2	TABLE
	Pt	T	Vf	Im	Vu	Sig	Ach	IERange	Over	Temp
	#	s	V vs. Ref.	A	V	V	V	#	bits	deg C
	2985	3.33437	4.98437E-001	9.76857E-005	0.00000E+000	5.00000E-001	-1.57213E-003	10	..........a	-327.74