File: data/02-SI/Figures_S9_S11_RDE/14btmapaq-rde/1mkcl-5mmolar14btmapaq-nitrogen-4000mvpers.DTA
EXPLAIN
TAG	CV
TITLE	LABEL	Cyclic Voltammetry	Test &Identifier
DATE	LABEL	1/31/2023	Date
TIME	LABEL	14:05:13	Time
NOTES	NOTES	1	&Notes...

PSTAT	PSTAT	REF3000-21108	Potentiostat
VINIT	POTEN	5.00000E-001	F	Initial &E (V)
VLIMIT1	POTEN	-1.00000E+000	F	Scan Limit &1 (V)
VLIMIT2	POTEN	5.00000E-001	F	Scan Limit &2 (V)
VFINAL	POTEN	5.00000E-001	F	Final &E (V)
SCANRATE	QUANT	3.99999E+003	&Scan Rate (mV/s)
STEPSIZE	QUANT	1.00000E+000	St&ep Size (mV)
CYCLES	IQUANT	1	C&ycles (#)
IMODE	SELECTOR	1	I/E Range &Mode
IRANGE	QUANT	1.00000E+001	&Max Current (mA)
AREA	QUANT	1.00000E+000	Electrode &Area (cm^2)
ELECTRODETYPE	SELECTOR	0	Electrode Type
STRIPPING	TOGGLE	F	Used for Stripping
POLARITY	TOGGLE	F	Signal Polarity
CONDIT	TWOPARAM	F	1.50000E+001	0.00000E+000	Conditionin&g	Time(s)	E(V)
DELAY	TWOPARAM	F	5.00000E+000	0.00000E+000	Init. De&lay	Time(s)	Stab.(mV/s)
EQDELAY	QUANT	0.00000E+000	Equil. &Time (s)
IRCOMP	SELECTOR	0	IRCom&p
PFCOR	QUANT	5.00000E+001	PF Corr. (ohm)
SAMPLINGMODE	SELECTOR	1	Sampling &Mode
EOC	QUANT	0	Open Circuit (V)
PSTATMODEL	IQUANT	5	Pstat Model
PSTATSECTION	LABEL	REF3000-21108	Pstat Section
PSTATSERIALNO	LABEL	21108	Pstat Serial Number
CTRLMODE	IQUANT	1	Control Mode
ELECTROMETER	IQUANT	0	RE=0 or CS=1
IESTAB	IQUANT	2	I/E Stability
CASPEED	IQUANT	4	Control Amp Speed
CONVENTION	IQUANT	1	Current Convention
ICHRANGE	IQUANT	2	Ich Range
ICHRANGEMODE	TOGGLE	F	Ich Auto Range
ICHOFFSETENABLE	TOGGLE	F	Ich Offset Enable
ICHOFFSET	QUANT	0	Ich Offset (V)
ICHFILTER	IQUANT	1	Ich Filter
VCHRANGE	IQUANT	2	Vch Range
VCHRANGEMODE	TOGGLE	F	Vch Auto Range
VCHOFFSETENABLE	TOGGLE	F	Vch Offset Enable
VCHOFFSET	QUANT	0	Vch Offset (V)
VCHFILTER	IQUANT	1	Vch Filter
ACHRANGE	IQUANT	2	Ach Range
ACHOFFSETENABLE	TOGGLE	F	Ach Offset Enable
ACHOFFSET	QUANT	0	Ach Offset (V)
ACHFILTER	IQUANT	0	Ach Filter
IERANGELOWERLIMIT	IQUANT	2	I/E Range Lower Limit
IERANGEMODE	TOGGLE	F	I/E AutoRange
IERANGE	IQUANT	10	I/E Range
POSFEEDENABLE	TOGGLE	F	Positive Feedback IR Comp
POSFEEDRESISTANCE	QUANT	0	Positive Feedback Resistance (ohm)
ACHSELECT	IQUANT	0	Ach Select
SENSECABLEID	IQUANT	14	Sense Cable ID
PWRCABLEID	IQUANT	7	Power Cable ID
DCCALDATE	LABEL	11/9/2022	DC Calibration Date
ACCALDATE	LABEL	11/9/2022	AC Calibration Date
THERMOSELECT	IQUANT	1	Thermo Select
FRAMEWORKVERSION	LABEL	7.8.2	Framework Version
INSTRUMENTVERSION	LABEL	4.40	Instrument Version
COMPLIANCEVOLTAGE	IQUANT	0	Compliance Voltage
CURVE1	TABLE
	Pt	T	Vf	Im	Vu	Sig	Ach	IERange	Over	Temp
	#	s	V vs. Ref.	A	V	V	V	#	bits	deg C
	0	0.00025	4.98724E-001	6.75565E-005	0.00000E+000	5.00000E-001	-8.29272E-004	10	..........a	-327.74
	7	0.002	4.91691E-001	1.80952E-005	0.00000E+000	4.93000E-001	-8.79272E-004	10	..........a	-327.74
	14	0.00375	4.84824E-001	1.00744E-005	0.00000E+000	4.86000E-001	-9.29272E-004	10	..........a	-327.74
	21	0.0055	4.77691E-001	4.05887E-006	0.00000E+000	4.79000E-001	-7.79272E-004	10	..........a	-327.74
	28	0.00725	4.70691E-001	-1.62250E-006	0.00000E+000	4.72000E-001	-8.79272E-004	10	..........a	-327.74
	35	0.009	4.63691E-001	-5.96707E-006	0.00000E+000	4.65000E-001	-7.29272E-004	10	..........a	-327.74
	42	0.01075	4.56858E-001	-7.97226E-006	0.00000E+000	4.58000E-001	-8.29272E-004	10	..........a	-327.74
	49	0.0125	4.49791E-001	-1.09800E-005	0.00000E+000	4.51000E-001	-8.79272E-004	10	..........a	-327.74
	56	0.01425	4.42691E-001	-1.39878E-005	0.00000E+000	4.44000E-001	-9.79272E-004	10	..........a	-327.74
	63	0.016	4.35824E-001	-1.39878E-005	0.00000E+000	4.37000E-001	-8.79272E-004	10	..........a	-327.74
	70	0.01775	4.28758E-001	-2.00034E-005	0.00000E+000	4.30000E-001	-8.79272E-004	10	..........a	-327.74
	77	0.0195	4.21791E-001	-2.20086E-005	0.00000E+000	4.23000E-001	-8.29272E-004	10	..........a	-327.74
	84	0.02125	4.14791E-001	-2.36796E-005	0.00000E+000	4.16000E-001	-7.29272E-004	10	..........a	-327.74
	91	0.023	4.07758E-001	-2.33454E-005	0.00000E+000	4.09000E-001	-7.79272E-004	10	..........a	-327.74
	98	0.02475	4.00824E-001	-2.73557E-005	0.00000E+000	4.02000E-001	-7.79272E-004	10	..........a	-327.74
	105	0.0265	3.93724E-001	-3.00293E-005	0.00000E+000	3.95000E-001	-7.79272E-004	10	..........a	-327.74
	112	0.02825	3.86758E-001	-3.06977E-005	0.00000E+000	3.88000E-001	-7.79272E-004	10	..........a	-327.74
	119	0.03	3.79791E-001	-3.00293E-005	0.00000E+000	3.81000E-001	-8.79272E-004	10	..........a	-327.74
	126	0.03175	3.72724E-001	-3.30371E-005	0.00000E+000	3.74000E-001	-9.29272E-004	10	..........a	-327.74
	133	0.0335	3.65791E-001	-3.47081E-005	0.00000E+000	3.67000E-001	-9.29272E-004	10	..........a	-327.74
	140	0.03525	3.58791E-001	-3.63791E-005	0.00000E+000	3.60000E-001	-7.79272E-004	10	..........a	-327.74
	147	0.037	3.51724E-001	-3.70475E-005	0.00000E+000	3.53000E-001	-7.79272E-004	10	..........a	-327.74
	154	0.03875	3.44791E-001	-4.27289E-005	0.00000E+000	3.46000E-001	-8.29272E-004	10	..........a	-327.74
	161	0.0405	3.37758E-001	-4.13921E-005	0.00000E+000	3.39000E-001	-9.79272E-004	10	..........a	-327.74
	168	0.04225	3.30824E-001	-4.43998E-005	0.00000E+000	3.32000E-001	-8.79272E-004	10	..........a	-327.74
	175	0.044	3.23791E-001	-4.60708E-005	0.00000E+000	3.25000E-001	-7.79272E-004	10	..........a	-327.74
	182	0.04575	3.16824E-001	-4.70734E-005	0.00000E+000	3.18000E-001	-6.79272E-004	10	..........a	-327.74
	189	0.0475	3.09824E-001	-4.94128E-005	0.00000E+000	3.11000E-001	-7.79272E-004	10	..........a	-327.74
	196	0.04925	3.02858E-001	-5.00812E-005	0.00000E+000	3.04000E-001	-8.79272E-004	10	..........a	-327.74
	203	0.051	2.95824E-001	-5.04154E-005	0.00000E+000	2.97000E-001	-7.29272E-004	10	..........a	-327.74
	210	0.05275	2.88791E-001	-5.54284E-005	0.00000E+000	2.90000E-001	-8.29272E-004	10	..........a	-327.74
	217	0.0545	2.81724E-001	-5.60968E-005	0.00000E+000	2.83000E-001	-8.29272E-004	10	..........a	-327.74
	224	0.05625	2.74658E-001	-5.97730E-005	0.00000E+000	2.76000E-001	-8.29272E-004	10	..........a	-327.74
	231	0.058	2.67824E-001	-6.24465E-005	0.00000E+000	2.69000E-001	-9.29272E-004	10	..........a	-327.74
	238	0.05975	2.60824E-001	-6.11097E-005	0.00000E+000	2.62000E-001	-8.29272E-004	10	..........a	-327.74
	245	0.0615	2.53991E-001	-6.44517E-005	0.00000E+000	2.55000E-001	-8.29272E-004	10	..........a	-327.74
	252	0.06325	2.46824E-001	-6.41175E-005	0.00000E+000	2.48000E-001	-8.79272E-004	10	..........a	-327.74
	259	0.065	2.39791E-001	-6.47859E-005	0.00000E+000	2.41000E-001	-7.29272E-004	10	..........a	-327.74
	266	0.06675	2.32791E-001	-6.61227E-005	0.00000E+000	2.34000E-001	-9.29272E-004	10	..........a	-327.74
	273	0.0685	2.25791E-001	-6.74595E-005	0.00000E+000	2.27000E-001	-8.79272E-004	10	..........a	-327.74
	280	0.07025	2.18724E-001	-6.97989E-005	0.00000E+000	2.20000E-001	-6.79272E-004	10	..........a	-327.74
	287	0.072	2.11924E-001	-7.01331E-005	0.00000E+000	2.13000E-001	-8.29272E-004	10	..........a	-327.74
	294	0.07375	2.04891E-001	-7.21383E-005	0.00000E+000	2.06000E-001	-8.79272E-004	10	..........a	-327.74
	301	0.0755	1.97724E-001	-7.38093E-005	0.00000E+000	1.99000E-001	-8.29272E-004	10	..........a	-327.74
	308	0.07725	1.90858E-001	-7.24725E-005	0.00000E+000	1.92000E-001	-7.79272E-004	10	..........a	-327.74
	315	0.079	1.83824E-001	-7.58145E-005	0.00000E+000	1.85000E-001	-8.79272E-004	10	..........a	-327.74
	322	0.08075	1.76858E-001	-7.24725E-005	0.00000E+000	1.78000E-001	-7.29272E-004	10	..........a	-327.74
	329	0.0825	1.69891E-001	-7.58145E-005	0.00000E+000	1.71000E-001	-8.79272E-004	10	..........a	-327.74
	336	0.08425	1.62858E-001	-7.74854E-005	0.00000E+000	1.64000E-001	-9.79272E-004	10	..........a	-327.74
	343	0.086	1.55858E-001	-8.35010E-005	0.00000E+000	1.57000E-001	-8.79272E-004	10	..........a	-327.74
	350	0.08775	1.48858E-001	-7.91564E-005	0.00000E+000	1.50000E-001	-8.29272E-004	10	..........a	-327.74
	357	0.0895	1.41891E-001	-7.88222E-005	0.00000E+000	1.43000E-001	-7.79272E-004	10	..........a	-327.74
	364	0.09125	1.34891E-001	-7.94906E-005	0.00000E+000	1.36000E-001	-7.29272E-004	10	..........a	-327.74
	371	0.093	1.27824E-001	-7.84880E-005	0.00000E+000	1.29000E-001	-8.29272E-004	10	..........a	-327.74
	378	0.09475	1.20858E-001	-8.01590E-005	0.00000E+000	1.22000E-001	-8.79272E-004	10	..........a	-327.74
	385	0.0965	1.13891E-001	-8.24984E-005	0.00000E+000	1.15000E-001	-9.29272E-004	10	..........a	-327.74
	392	0.09825	1.06858E-001	-8.45036E-005	0.00000E+000	1.08000E-001	-8.29272E-004	10	..........a	-327.74
	399	0.1	9.99577E-002	-8.51720E-005	0.00000E+000	1.01000E-001	-8.79272E-004	10	..........a	-327.74
	406	0.10175	9.28577E-002	-8.58404E-005	0.00000E+000	9.40000E-002	-8.29272E-004	10	..........a	-327.74
	413	0.1035	8.59910E-002	-8.55062E-005	0.00000E+000	8.70000E-002	-8.29272E-004	10	..........a	-327.74
	420	0.10525	7.89243E-002	-8.11616E-005	0.00000E+000	8.00000E-002	-9.29272E-004	10	..........a	-327.74
	427	0.107	7.18577E-002	-8.81798E-005	0.00000E+000	7.30000E-002	-8.79272E-004	10	..........a	-327.74
	434	0.10875	6.51577E-002	-8.41694E-005	0.00000E+000	6.60000E-002	-7.29272E-004	10	..........a	-327.74
	441	0.1105	5.78910E-002	-8.78456E-005	0.00000E+000	5.90000E-002	-9.29272E-004	10	..........a	-327.74
	448	0.11225	5.09577E-002	-8.41694E-005	0.00000E+000	5.20000E-002	-7.29272E-004	10	..........a	-327.74
	455	0.114	4.39243E-002	-8.65088E-005	0.00000E+000	4.50000E-002	-8.79272E-004	10	..........a	-327.74
	462	0.11575	3.69910E-002	-8.45036E-005	0.00000E+000	3.80000E-002	-7.79272E-004	10	..........a	-327.74
	469	0.1175	2.98910E-002	-8.65088E-005	0.00000E+000	3.10000E-002	-7.79272E-004	10	..........a	-327.74
	476	0.11925	2.28243E-002	-8.58404E-005	0.00000E+000	2.40000E-002	-7.29272E-004	10	..........a	-327.74
	483	0.121	1.59243E-002	-8.85140E-005	0.00000E+000	1.70000E-002	-8.29272E-004	10	..........a	-327.74
	490	0.12275	9.05767E-003	-8.91824E-005	0.00000E+000	9.99999E-003	-7.79272E-004	10	..........a	-327.74
	497	0.1245	1.99100E-003	-8.75114E-005	0.00000E+000	2.99999E-003	-7.79272E-004	10	..........a	-327.74
	504	0.12625	-5.07566E-003	-8.71772E-005	0.00000E+000	-4.00001E-003	-8.29272E-004	10	..........a	-327.74
	511	0.128	-1.22090E-002	-9.25244E-005	0.00000E+000	-1.10000E-002	-8.29272E-004	10	..........a	-327.74
	518	0.12975	-1.91090E-002	-9.08534E-005	0.00000E+000	-1.80000E-002	-6.79272E-004	10	..........a	-327.74
	525	0.1315	-2.60757E-002	-8.75114E-005	0.00000E+000	-2.50000E-002	-9.29272E-004	10	..........a	-327.74
	532	0.13325	-3.31757E-002	-8.88482E-005	0.00000E+000	-3.20000E-002	-7.79272E-004	10	..........a	-327.74
	539	0.135	-4.00423E-002	-8.61746E-005	0.00000E+000	-3.90000E-002	-7.79272E-004	10	..........a	-327.74
	546	0.13675	-4.70090E-002	-8.51720E-005	0.00000E+000	-4.60000E-002	-8.79272E-004	10	..........a	-327.74
	553	0.1385	-5.41423E-002	-8.81798E-005	0.00000E+000	-5.30000E-002	-9.29272E-004	10	..........a	-327.74
	560	0.14025	-6.10757E-002	-8.51720E-005	0.00000E+000	-6.00000E-002	-8.29272E-004	10	..........a	-327.74
	567	0.142	-6.80757E-002	-8.91824E-005	0.00000E+000	-6.70000E-002	-8.29272E-004	10	..........a	-327.74
	574	0.14375	-7.51090E-002	-8.51720E-005	0.00000E+000	-7.40000E-002	-9.29272E-004	10	..........a	-327.74
	581	0.1455	-8.21423E-002	-8.68430E-005	0.00000E+000	-8.10000E-002	-6.29272E-004	10	..........a	-327.74
	588	0.14725	-8.89757E-002	-8.58404E-005	0.00000E+000	-8.80000E-002	-7.29272E-004	10	..........a	-327.74
	595	0.149	-9.60090E-002	-8.68430E-005	0.00000E+000	-9.50000E-002	-8.29272E-004	10	..........a	-327.74
	602	0.15075	-1.03042E-001	-8.75114E-005	0.00000E+000	-1.02000E-001	-8.29272E-004	10	..........a	-327.74
	609	0.1525	-1.09976E-001	-8.68430E-005	0.00000E+000	-1.09000E-001	-8.79272E-004	10	..........a	-327.74
	616	0.15425	-1.17109E-001	-8.65088E-005	0.00000E+000	-1.16000E-001	-8.29272E-004	10	..........a	-327.74
	623	0.156	-1.24009E-001	-8.41694E-005	0.00000E+000	-1.23000E-001	-8.79272E-004	10	..........a	-327.74
	630	0.15775	-1.31142E-001	-8.48378E-005	0.00000E+000	-1.30000E-001	-8.29272E-004	10	..........a	-327.74
	637	0.1595	-1.37976E-001	-8.18300E-005	0.00000E+000	-1.37000E-001	-7.79272E-004	10	..........a	-327.74
	644	0.16125	-1.45109E-001	-8.48378E-005	0.00000E+000	-1.44000E-001	-9.29272E-004	10	..........a	-327.74
	651	0.163	-1.52009E-001	-8.38352E-005	0.00000E+000	-1.51000E-001	-7.79272E-004	10	..........a	-327.74
	658	0.16475	-1.58942E-001	-8.31668E-005	0.00000E+000	-1.58000E-001	-9.29272E-004	10	..........a	-327.74
	665	0.1665	-1.66042E-001	-8.55062E-005	0.00000E+000	-1.65000E-001	-8.79272E-004	10	..........a	-327.74
	672	0.16825	-1.72976E-001	-8.11616E-005	0.00000E+000	-1.72000E-001	-7.79272E-004	10	..........a	-327.74
	679	0.17	-1.79976E-001	-8.31668E-005	0.00000E+000	-1.79000E-001	-8.79272E-004	10	..........a	-327.74
	686	0.17175	-1.87009E-001	-8.21642E-005	0.00000E+000	-1.86000E-001	-8.29272E-004	10	..........a	-327.74
	693	0.1735	-1.94042E-001	-8.51720E-005	0.00000E+000	-1.93000E-001	-7.29272E-004	10	..........a	-327.74
	700	0.17525	-2.01042E-001	-8.45036E-005	0.00000E+000	-2.00000E-001	-7.79272E-004	10	..........a	-327.74
	707	0.177	-2.08042E-001	-8.55062E-005	0.00000E+000	-2.07000E-001	-9.29272E-004	10	..........a	-327.74
	714	0.17875	-2.14876E-001	-8.45036E-005	0.00000E+000	-2.14000E-001	-7.79272E-004	10	..........a	-327.74
	721	0.1805	-2.22009E-001	-8.68430E-005	0.00000E+000	-2.21000E-001	-8.29272E-004	10	..........a	-327.74
	728	0.18225	-2.28942E-001	-8.88482E-005	0.00000E+000	-2.28000E-001	-6.79272E-004	10	..........a	-327.74
	735	0.184	-2.35976E-001	-8.85140E-005	0.00000E+000	-2.35000E-001	-8.29272E-004	10	..........a	-327.74
	742	0.18575	-2.43009E-001	-8.81798E-005	0.00000E+000	-2.42000E-001	-8.79272E-004	10	..........a	-327.74
	749	0.1875	-2.49909E-001	-8.71772E-005	0.00000E+000	-2.49000E-001	-9.29272E-004	10	..........a	-327.74
	756	0.18925	-2.57042E-001	-9.35270E-005	0.00000E+000	-2.56000E-001	-9.29272E-004	10	..........a	-327.74
	763	0.191	-2.64009E-001	-9.48637E-005	0.00000E+000	-2.63000E-001	-7.29272E-004	10	..........a	-327.74
	770	0.19275	-2.70942E-001	-9.31927E-005	0.00000E+000	-2.70000E-001	-8.79272E-004	10	..........a	-327.74
	777	0.1945	-2.77976E-001	-9.98767E-005	0.00000E+000	-2.77000E-001	-7.79272E-004	10	..........a	-327.74
	784	0.19625	-2.85009E-001	-9.82057E-005	0.00000E+000	-2.84000E-001	-7.79272E-004	10	..........a	-327.74
	791	0.198	-2.92042E-001	-1.02216E-004	0.00000E+000	-2.91000E-001	-7.29272E-004	10	..........a	-327.74
	798	0.19975	-2.98909E-001	-1.04890E-004	0.00000E+000	-2.98000E-001	-8.79272E-004	10	..........a	-327.74
	805	0.2015	-3.05942E-001	-1.05224E-004	0.00000E+000	-3.05000E-001	-8.79272E-004	10	..........a	-327.74
	812	0.20325	-3.13042E-001	-1.12910E-004	0.00000E+000	-3.12000E-001	-8.79272E-004	10	..........a	-327.74
	819	0.205	-3.19909E-001	-1.13245E-004	0.00000E+000	-3.19000E-001	-8.79272E-004	10	..........a	-327.74
	826	0.20675	-3.26876E-001	-1.17923E-004	0.00000E+000	-3.26000E-001	-7.29272E-004	10	..........a	-327.74
	833	0.2085	-3.34009E-001	-1.24607E-004	0.00000E+000	-3.33000E-001	-8.79272E-004	10	..........a	-327.74
	840	0.21025	-3.41009E-001	-1.25610E-004	0.00000E+000	-3.40000E-001	-8.79272E-004	10	..........a	-327.74
	847	0.212	-3.47909E-001	-1.32962E-004	0.00000E+000	-3.47000E-001	-8.29272E-004	10	..........a	-327.74
	854	0.21375	-3.54909E-001	-1.34299E-004	0.00000E+000	-3.54000E-001	-7.79272E-004	10	..........a	-327.74
	861	0.2155	-3.61976E-001	-1.43657E-004	0.00000E+000	-3.61000E-001	-8.29272E-004	10	..........a	-327.74
	868	0.21725	-3.68909E-001	-1.46999E-004	0.00000E+000	-3.68000E-001	-8.29272E-004	10	..........a	-327.74
	875	0.219	-3.75976E-001	-1.55019E-004	0.00000E+000	-3.75000E-001	-7.29272E-004	10	..........a	-327.74
	882	0.22075	-3.82876E-001	-1.62372E-004	0.00000E+000	-3.82000E-001	-8.79272E-004	10	..........a	-327.74
	889	0.2225	-3.89876E-001	-1.70392E-004	0.00000E+000	-3.89000E-001	-8.29272E-004	10	..........a	-327.74
	896	0.22425	-3.96842E-001	-1.79082E-004	0.00000E+000	-3.96000E-001	-8.79272E-004	10	..........a	-327.74
	903	0.226	-4.03976E-001	-1.89776E-004	0.00000E+000	-4.03000E-001	-8.29272E-004	10	..........a	-327.74
	910	0.22775	-4.10876E-001	-2.01807E-004	0.00000E+000	-4.10000E-001	-8.29272E-004	10	..........a	-327.74
	917	0.2295	-4.17809E-001	-2.20856E-004	0.00000E+000	-4.17000E-001	-8.29272E-004	10	..........a	-327.74
	924	0.23125	-4.24876E-001	-2.36564E-004	0.00000E+000	-4.24000E-001	-7.29272E-004	10	..........a	-327.74
	931	0.233	-4.31876E-001	-2.57952E-004	0.00000E+000	-4.31000E-001	-9.29272E-004	10	..........a	-327.74
	938	0.23475	-4.38942E-001	-2.87362E-004	0.00000E+000	-4.38000E-001	-7.29272E-004	10	..........a	-327.74
	945	0.2365	-4.45976E-001	-3.19445E-004	0.00000E+000	-4.45000E-001	-8.29272E-004	10	..........a	-327.74
	952	0.23825	-4.52909E-001	-3.56875E-004	0.00000E+000	-4.52000E-001	-6.79272E-004	10	..........a	-327.74
	959	0.24	-4.59909E-001	-3.97981E-004	0.00000E+000	-4.59000E-001	-7.79272E-004	10	..........a	-327.74
	966	0.24175	-4.66842E-001	-4.51119E-004	0.00000E+000	-4.66000E-001	-8.79272E-004	10	..........a	-327.74
	973	0.2435	-4.73909E-001	-5.02585E-004	0.00000E+000	-4.73000E-001	-8.79272E-004	10	..........a	-327.74
	980	0.24525	-4.80809E-001	-5.58062E-004	0.00000E+000	-4.80000E-001	-7.79272E-004	10	..........a	-327.74
	987	0.247	-4.87842E-001	-6.16213E-004	0.00000E+000	-4.87000E-001	-9.29272E-004	10	..........a	-327.74
	994	0.24875	-4.94909E-001	-6.81715E-004	0.00000E+000	-4.94000E-001	-9.29272E-004	10	..........a	-327.74
	1001	0.2505	-5.01909E-001	-7.51897E-004	0.00000E+000	-5.01000E-001	-9.29272E-004	10	..........a	-327.74
	1008	0.25225	-5.08976E-001	-8.25086E-004	0.00000E+000	-5.08000E-001	-9.29272E-004	10	..........a	-327.74
	1015	0.254	-5.15842E-001	-9.05628E-004	0.00000E+000	-5.15000E-001	-9.29272E-004	10	..........a	-327.74
	1022	0.25575	-5.22776E-001	-9.91183E-004	0.00000E+000	-5.22000E-001	-8.29272E-004	10	..........a	-327.74
	1029	0.2575	-5.29876E-001	-1.08944E-003	0.00000E+000	-5.29000E-001	-9.79272E-004	10	..........a	-327.74
	1036	0.25925	-5.36809E-001	-1.19237E-003	0.00000E+000	-5.36000E-001	-9.29272E-004	10	..........a	-327.74
	1043	0.261	-5.43876E-001	-1.31235E-003	0.00000E+000	-5.43000E-001	-7.79272E-004	10	..........a	-327.74
	1050	0.26275	-5.50809E-001	-1.43500E-003	0.00000E+000	-5.50000E-001	-8.79272E-004	10	..........a	-327.74
	1057	0.2645	-5.57909E-001	-1.56701E-003	0.00000E+000	-5.57000E-001	-8.29272E-004	10	..........a	-327.74
	1064	0.26625	-5.64876E-001	-1.69434E-003	0.00000E+000	-5.64000E-001	-7.29272E-004	10	..........a	-327.74
	1071	0.268	-5.71876E-001	-1.82033E-003	0.00000E+000	-5.71000E-001	-9.29272E-004	10	..........a	-327.74
	1078	0.26975	-5.78809E-001	-1.93329E-003	0.00000E+000	-5.78000E-001	-6.79272E-004	10	..........a	-327.74
	1085	0.2715	-5.85842E-001	-2.04056E-003	0.00000E+000	-5.85000E-001	-9.79272E-004	10	..........a	-327.74
	1092	0.27325	-5.92809E-001	-2.12612E-003	0.00000E+000	-5.92000E-001	-9.29272E-004	10	..........a	-327.74
	1099	0.275	-5.99742E-001	-2.18527E-003	0.00000E+000	-5.99000E-001	-8.29272E-004	10	..........a	-327.74
	1106	0.27675	-6.06876E-001	-2.22905E-003	0.00000E+000	-6.06000E-001	-8.79272E-004	10	..........a	-327.74
	1113	0.2785	-6.13809E-001	-2.23373E-003	0.00000E+000	-6.13000E-001	-7.79272E-004	10	..........a	-327.74
	1120	0.28025	-6.20742E-001	-2.21769E-003	0.00000E+000	-6.20000E-001	-8.79272E-004	10	..........a	-327.74
	1127	0.282	-6.27742E-001	-2.17591E-003	0.00000E+000	-6.27000E-001	-8.29272E-004	10	..........a	-327.74
	1134	0.28375	-6.34842E-001	-2.11676E-003	0.00000E+000	-6.34000E-001	-7.29272E-004	10	..........a	-327.74
	1141	0.2855	-6.41842E-001	-2.04457E-003	0.00000E+000	-6.41000E-001	-8.79272E-004	10	..........a	-327.74
	1148	0.28725	-6.48842E-001	-1.97105E-003	0.00000E+000	-6.48000E-001	-9.29272E-004	10	..........a	-327.74
	1155	0.289	-6.55809E-001	-1.90020E-003	0.00000E+000	-6.55000E-001	-9.29272E-004	10	..........a	-327.74
	1162	0.29075	-6.62909E-001	-1.83303E-003	0.00000E+000	-6.62000E-001	-9.29272E-004	10	..........a	-327.74
	1169	0.2925	-6.69776E-001	-1.77254E-003	0.00000E+000	-6.69000E-001	-8.79272E-004	10	..........a	-327.74
	1176	0.29425	-6.76876E-001	-1.71840E-003	0.00000E+000	-6.76000E-001	-8.79272E-004	10	..........a	-327.74
	1183	0.296	-6.83776E-001	-1.66960E-003	0.00000E+000	-6.83000E-001	-8.79272E-004	10	..........a	-327.74
	1190	0.29775	-6.90809E-001	-1.62516E-003	0.00000E+000	-6.90000E-001	-8.79272E-004	10	..........a	-327.74
	1197	0.2995	-6.97776E-001	-1.58572E-003	0.00000E+000	-6.97000E-001	-7.79272E-004	10	..........a	-327.74
	1204	0.30125	-7.04742E-001	-1.54729E-003	0.00000E+000	-7.04000E-001	-7.79272E-004	10	..........a	-327.74
	1211	0.303	-7.11742E-001	-1.50919E-003	0.00000E+000	-7.11000E-001	-8.29272E-004	10	..........a	-327.74
	1218	0.30475	-7.18776E-001	-1.47410E-003	0.00000E+000	-7.18000E-001	-7.79272E-004	10	..........a	-327.74
	1225	0.3065	-7.25742E-001	-1.43834E-003	0.00000E+000	-7.25000E-001	-8.29272E-004	10	..........a	-327.74
	1232	0.30825	-7.32909E-001	-1.40592E-003	0.00000E+000	-7.32000E-001	-9.29272E-004	10	..........a	-327.74
	1239	0.31	-7.39709E-001	-1.37250E-003	0.00000E+000	-7.39000E-001	-8.29272E-004	10	..........a	-327.74
	1246	0.31175	-7.46709E-001	-1.34142E-003	0.00000E+000	-7.46000E-001	-6.79272E-004	10	..........a	-327.74
	1253	0.3135	-7.53842E-001	-1.30633E-003	0.00000E+000	-7.53000E-001	-9.29272E-004	10	..........a	-327.74
	1260	0.31525	-7.60809E-001	-1.28127E-003	0.00000E+000	-7.60000E-001	-9.29272E-004	10	..........a	-327.74
	1267	0.317	-7.67809E-001	-1.25085E-003	0.00000E+000	-7.67000E-001	-8.29272E-004	10	..........a	-327.74
	1274	0.31875	-7.74809E-001	-1.22646E-003	0.00000E+000	-7.74000E-001	-7.79272E-004	10	..........a	-327.74
	1281	0.3205	-7.81709E-001	-1.19972E-003	0.00000E+000	-7.81000E-001	-7.29272E-004	10	..........a	-327.74
	1288	0.32225	-7.88842E-001	-1.17599E-003	0.00000E+000	-7.88000E-001	-8.79272E-004	10	..........a	-327.74
	1295	0.324	-7.95709E-001	-1.14725E-003	0.00000E+000	-7.95000E-001	-7.79272E-004	10	..........a	-327.74
	1302	0.32575	-8.02709E-001	-1.12586E-003	0.00000E+000	-8.02000E-001	-8.29272E-004	10	..........a	-327.74
	1309	0.3275	-8.09676E-001	-1.10682E-003	0.00000E+000	-8.09000E-001	-8.79272E-004	10	..........a	-327.74
	1316	0.32925	-8.16709E-001	-1.08442E-003	0.00000E+000	-8.16000E-001	-7.79272E-004	10	..........a	-327.74
	1323	0.331	-8.23742E-001	-1.06304E-003	0.00000E+000	-8.23000E-001	-9.29272E-004	10	..........a	-327.74
	1330	0.33275	-8.30709E-001	-1.04532E-003	0.00000E+000	-8.30000E-001	-8.29272E-004	10	..........a	-327.74
	1337	0.3345	-8.37709E-001	-1.03095E-003	0.00000E+000	-8.37000E-001	-9.29272E-004	10	..........a	-327.74
	1344	0.33625	-8.44776E-001	-1.01491E-003	0.00000E+000	-8.44000E-001	-8.79272E-004	10	..........a	-327.74
	1351	0.338	-8.51576E-001	-9.97867E-004	0.00000E+000	-8.51000E-001	-7.29272E-004	10	..........a	-327.74
	1358	0.33975	-8.58809E-001	-9.80154E-004	0.00000E+000	-8.58000E-001	-8.29272E-004	10	..........a	-327.74
	1365	0.3415	-8.65742E-001	-9.63110E-004	0.00000E+000	-8.65000E-001	-7.29272E-004	10	..........a	-327.74
	1372	0.34325	-8.72542E-001	-9.50077E-004	0.00000E+000	-8.72000E-001	-8.29272E-004	10	..........a	-327.74
	1379	0.345	-8.79742E-001	-9.35038E-004	0.00000E+000	-8.79000E-001	-7.79272E-004	10	..........a	-327.74
	1386	0.34675	-8.86642E-001	-9.22338E-004	0.00000E+000	-8.86000E-001	-9.29272E-004	10	..........a	-327.74
	1393	0.3485	-8.93642E-001	-9.08970E-004	0.00000E+000	-8.93000E-001	-9.29272E-004	10	..........a	-327.74
	1400	0.35025	-9.00709E-001	-8.95936E-004	0.00000E+000	-9.00000E-001	-7.79272E-004	10	..........a	-327.74
	1407	0.352	-9.07642E-001	-8.87581E-004	0.00000E+000	-9.07000E-001	-8.79272E-004	10	..........a	-327.74
	1414	0.35375	-9.14742E-001	-8.76887E-004	0.00000E+000	-9.14000E-001	-8.79272E-004	10	..........a	-327.74
	1421	0.3555	-9.21642E-001	-8.62182E-004	0.00000E+000	-9.21000E-001	-9.29272E-004	10	..........a	-327.74
	1428	0.35725	-9.28742E-001	-8.54830E-004	0.00000E+000	-9.28000E-001	-9.29272E-004	10	..........a	-327.74
	1435	0.359	-9.35676E-001	-8.42131E-004	0.00000E+000	-9.35000E-001	-8.79272E-004	10	..........a	-327.74
	1442	0.36075	-9.42676E-001	-8.39123E-004	0.00000E+000	-9.42000E-001	-7.79272E-004	10	..........a	-327.74
	1449	0.3625	-9.49642E-001	-8.26089E-004	0.00000E+000	-9.49000E-001	-9.29272E-004	10	..........a	-327.74
	1456	0.36425	-9.56676E-001	-8.19071E-004	0.00000E+000	-9.56000E-001	-7.79272E-004	10	..........a	-327.74
	1463	0.366	-9.63609E-001	-8.09379E-004	0.00000E+000	-9.63000E-001	-9.29272E-004	10	..........a	-327.74
	1470	0.36775	-9.70809E-001	-8.03363E-004	0.00000E+000	-9.70000E-001	-8.29272E-004	10	..........a	-327.74
	1477	0.3695	-9.77509E-001	-7.94006E-004	0.00000E+000	-9.77000E-001	-8.29272E-004	10	..........a	-327.74
	1484	0.37125	-9.84476E-001	-7.89996E-004	0.00000E+000	-9.84000E-001	-7.29272E-004	10	..........a	-327.74
	1491	0.373	-9.91642E-001	-7.83646E-004	0.00000E+000	-9.91000E-001	-8.29272E-004	10	..........a	-327.74
	1498	0.37475	-9.98642E-001	-7.79301E-004	0.00000E+000	-9.98000E-001	-7.79272E-004	10	..........a	-327.74
	1505	0.3765	-9.95542E-001	-6.32254E-004	0.00000E+000	-9.95000E-001	-7.79272E-004	10	..........a	-327.74
	1512	0.37825	-9.88509E-001	-5.82793E-004	0.00000E+000	-9.88000E-001	-7.79272E-004	10	..........a	-327.74
	1519	0.38	-9.81609E-001	-5.54720E-004	0.00000E+000	-9.81000E-001	-8.29272E-004	10	..........a	-327.74
	1526	0.38175	-9.74709E-001	-5.33666E-004	0.00000E+000	-9.74000E-001	-8.29272E-004	10	..........a	-327.74
	1533	0.3835	-9.67676E-001	-5.13280E-004	0.00000E+000	-9.67000E-001	-8.29272E-004	10	..........a	-327.74
	1540	0.38525	-9.60576E-001	-5.00914E-004	0.00000E+000	-9.60000E-001	-7.79272E-004	10	..........a	-327.74
	1547	0.387	-9.53642E-001	-4.87881E-004	0.00000E+000	-9.53000E-001	-8.29272E-004	10	..........a	-327.74
	1554	0.38875	-9.46776E-001	-4.78857E-004	0.00000E+000	-9.46000E-001	-7.29272E-004	10	..........a	-327.74
	1561	0.3905	-9.39609E-001	-4.68163E-004	0.00000E+000	-9.39000E-001	-7.79272E-004	10	..........a	-327.74
	1568	0.39225	-9.32742E-001	-4.60142E-004	0.00000E+000	-9.32000E-001	-9.29272E-004	10	..........a	-327.74
	1575	0.394	-9.25709E-001	-4.52121E-004	0.00000E+000	-9.25000E-001	-9.79272E-004	10	..........a	-327.74
	1582	0.39575	-9.18609E-001	-4.45103E-004	0.00000E+000	-9.18000E-001	-9.29272E-004	10	..........a	-327.74
	1589	0.3975	-9.11609E-001	-4.37082E-004	0.00000E+000	-9.11000E-001	-9.29272E-004	10	..........a	-327.74
	1596	0.39925	-9.04642E-001	-4.33740E-004	0.00000E+000	-9.04000E-001	-8.79272E-004	10	..........a	-327.74
	1603	0.401	-8.97676E-001	-4.29730E-004	0.00000E+000	-8.97000E-001	-8.79272E-004	10	..........a	-327.74
	1610	0.40275	-8.90642E-001	-4.21041E-004	0.00000E+000	-8.90000E-001	-7.29272E-004	10	..........a	-327.74
	1617	0.4045	-8.83576E-001	-4.13020E-004	0.00000E+000	-8.83000E-001	-8.29272E-004	10	..........a	-327.74
	1624	0.40625	-8.76709E-001	-4.10347E-004	0.00000E+000	-8.76000E-001	-8.29272E-004	10	..........a	-327.74
	1631	0.408	-8.69642E-001	-4.05668E-004	0.00000E+000	-8.69000E-001	-8.79272E-004	10	..........a	-327.74
	1638	0.40975	-8.62676E-001	-4.00321E-004	0.00000E+000	-8.62000E-001	-8.79272E-004	10	..........a	-327.74
	1645	0.4115	-8.55676E-001	-3.96645E-004	0.00000E+000	-8.55000E-001	-8.79272E-004	10	..........a	-327.74
	1652	0.41325	-8.48609E-001	-3.87955E-004	0.00000E+000	-8.48000E-001	-8.79272E-004	10	..........a	-327.74
	1659	0.415	-8.41642E-001	-3.84279E-004	0.00000E+000	-8.41000E-001	-1.07927E-003	10	..........a	-327.74
	1666	0.41675	-8.34742E-001	-3.79935E-004	0.00000E+000	-8.34000E-001	-7.79272E-004	10	..........a	-327.74
	1673	0.4185	-8.27709E-001	-3.78598E-004	0.00000E+000	-8.27000E-001	-8.29272E-004	10	..........a	-327.74
	1680	0.42025	-8.20709E-001	-3.70911E-004	0.00000E+000	-8.20000E-001	-7.29272E-004	10	..........a	-327.74
	1687	0.422	-8.13609E-001	-3.67569E-004	0.00000E+000	-8.13000E-001	-7.79272E-004	10	..........a	-327.74
	1694	0.42375	-8.06709E-001	-3.63893E-004	0.00000E+000	-8.06000E-001	-7.79272E-004	10	..........a	-327.74
	1701	0.4255	-7.99709E-001	-3.63893E-004	0.00000E+000	-7.99000E-001	-7.79272E-004	10	..........a	-327.74
	1708	0.42725	-7.92842E-001	-3.56541E-004	0.00000E+000	-7.92000E-001	-8.29272E-004	10	..........a	-327.74
	1715	0.429	-7.85776E-001	-3.55204E-004	0.00000E+000	-7.85000E-001	-9.29272E-004	10	..........a	-327.74
	1722	0.43075	-7.78576E-001	-3.47852E-004	0.00000E+000	-7.78000E-001	-8.29272E-004	10	..........a	-327.74
	1729	0.4325	-7.71609E-001	-3.45846E-004	0.00000E+000	-7.71000E-001	-7.79272E-004	10	..........a	-327.74
	1736	0.43425	-7.64742E-001	-3.41168E-004	0.00000E+000	-7.64000E-001	-8.29272E-004	10	..........a	-327.74
	1743	0.436	-7.57609E-001	-3.34818E-004	0.00000E+000	-7.57000E-001	-8.29272E-004	10	..........a	-327.74
	1750	0.43775	-7.50876E-001	-3.31142E-004	0.00000E+000	-7.50000E-001	-8.79272E-004	10	..........a	-327.74
	1757	0.4395	-7.43676E-001	-3.26129E-004	0.00000E+000	-7.43000E-001	-8.29272E-004	10	..........a	-327.74
	1764	0.44125	-7.36742E-001	-3.21784E-004	0.00000E+000	-7.36000E-001	-6.79272E-004	10	..........a	-327.74
	1771	0.443	-7.29776E-001	-3.18776E-004	0.00000E+000	-7.29000E-001	-8.29272E-004	10	..........a	-327.74
	1778	0.44475	-7.22709E-001	-3.11424E-004	0.00000E+000	-7.22000E-001	-6.79272E-004	10	..........a	-327.74
	1785	0.4465	-7.15742E-001	-3.07414E-004	0.00000E+000	-7.15000E-001	-7.29272E-004	10	..........a	-327.74
	1792	0.44825	-7.08776E-001	-3.01732E-004	0.00000E+000	-7.08000E-001	-8.79272E-004	10	..........a	-327.74
	1799	0.45	-7.01909E-001	-2.94046E-004	0.00000E+000	-7.01000E-001	-8.29272E-004	10	..........a	-327.74
	1806	0.45175	-6.94709E-001	-2.86693E-004	0.00000E+000	-6.94000E-001	-8.29272E-004	10	..........a	-327.74
	1813	0.4535	-6.87776E-001	-2.82683E-004	0.00000E+000	-6.87000E-001	-9.29272E-004	10	..........a	-327.74
	1820	0.45525	-6.80776E-001	-2.74662E-004	0.00000E+000	-6.80000E-001	-8.29272E-004	10	..........a	-327.74
	1827	0.457	-6.73842E-001	-2.63300E-004	0.00000E+000	-6.73000E-001	-8.29272E-004	10	..........a	-327.74
	1834	0.45875	-6.66776E-001	-2.54276E-004	0.00000E+000	-6.66000E-001	-8.79272E-004	10	..........a	-327.74
	1841	0.4605	-6.59642E-001	-2.45921E-004	0.00000E+000	-6.59000E-001	-8.79272E-004	10	..........a	-327.74
	1848	0.46225	-6.52709E-001	-2.31217E-004	0.00000E+000	-6.52000E-001	-8.29272E-004	10	..........a	-327.74
	1855	0.464	-6.45842E-001	-2.19185E-004	0.00000E+000	-6.45000E-001	-8.79272E-004	10	..........a	-327.74
	1862	0.46575	-6.38742E-001	-2.03812E-004	0.00000E+000	-6.38000E-001	-9.29272E-004	10	..........a	-327.74
	1869	0.4675	-6.31776E-001	-1.88105E-004	0.00000E+000	-6.31000E-001	-8.79272E-004	10	..........a	-327.74
	1876	0.46925	-6.24809E-001	-1.64711E-004	0.00000E+000	-6.24000E-001	-8.79272E-004	10	..........a	-327.74
	1883	0.471	-6.17709E-001	-1.38978E-004	0.00000E+000	-6.17000E-001	-8.79272E-004	10	..........a	-327.74
	1890	0.47275	-6.10809E-001	-1.10905E-004	0.00000E+000	-6.10000E-001	-8.29272E-004	10	..........a	-327.74
	1897	0.4745	-6.03742E-001	-7.61487E-005	0.00000E+000	-6.03000E-001	-8.29272E-004	10	..........a	-327.74
	1904	0.47625	-5.96876E-001	-3.50423E-005	0.00000E+000	-5.96000E-001	-9.29272E-004	10	..........a	-327.74
	1911	0.478	-5.89909E-001	1.20796E-005	0.00000E+000	-5.89000E-001	-7.79272E-004	10	..........a	-327.74
	1918	0.47975	-5.82876E-001	6.82249E-005	0.00000E+000	-5.82000E-001	-7.79272E-004	10	..........a	-327.74
	1925	0.4815	-5.75776E-001	1.25707E-004	0.00000E+000	-5.75000E-001	-7.29272E-004	10	..........a	-327.74
	1932	0.48325	-5.68742E-001	1.95889E-004	0.00000E+000	-5.68000E-001	-8.29272E-004	10	..........a	-327.74
	1939	0.485	-5.61942E-001	2.65068E-004	0.00000E+000	-5.61000E-001	-8.29272E-004	10	..........a	-327.74
	1946	0.48675	-5.54909E-001	3.44272E-004	0.00000E+000	-5.54000E-001	-9.79272E-004	10	..........a	-327.74
	1953	0.4885	-5.47876E-001	4.22475E-004	0.00000E+000	-5.47000E-001	-8.79272E-004	10	..........a	-327.74
	1960	0.49025	-5.40876E-001	5.05356E-004	0.00000E+000	-5.40000E-001	-8.79272E-004	10	..........a	-327.74
	1967	0.492	-5.33942E-001	5.80885E-004	0.00000E+000	-5.33000E-001	-8.29272E-004	10	..........a	-327.74
	1974	0.49375	-5.26842E-001	6.55745E-004	0.00000E+000	-5.26000E-001	-8.79272E-004	10	..........a	-327.74
	1981	0.4955	-5.19842E-001	7.30271E-004	0.00000E+000	-5.19000E-001	-8.79272E-004	10	..........a	-327.74
	1988	0.49725	-5.12842E-001	7.98782E-004	0.00000E+000	-5.12000E-001	-9.79272E-004	10	..........a	-327.74
	1995	0.499	-5.05742E-001	8.64284E-004	0.00000E+000	-5.05000E-001	-7.79272E-004	10	..........a	-327.74
	2002	0.50075	-4.98942E-001	9.20096E-004	0.00000E+000	-4.98000E-001	-8.79272E-004	10	..........a	-327.74
	2009	0.5025	-4.91876E-001	9.70894E-004	0.00000E+000	-4.91000E-001	-8.79272E-004	10	..........a	-327.74
	2016	0.50425	-4.84842E-001	1.01768E-003	0.00000E+000	-4.84000E-001	-7.79272E-004	10	..........a	-327.74
	2023	0.506	-4.77876E-001	1.05411E-003	0.00000E+000	-4.77000E-001	-9.29272E-004	10	..........a	-327.74
	2030	0.50775	-4.70876E-001	1.07750E-003	0.00000E+000	-4.70000E-001	-8.79272E-004	10	..........a	-327.74
	2037	0.5095	-4.63909E-001	1.09488E-003	0.00000E+000	-4.63000E-001	-8.29272E-004	10	..........a	-327.74
	2044	0.51125	-4.56909E-001	1.10758E-003	0.00000E+000	-4.56000E-001	-9.29272E-004	10	..........a	-327.74
	2051	0.513	-4.49909E-001	1.10858E-003	0.00000E+000	-4.49000E-001	-9.29272E-004	10	..........a	-327.74
	2058	0.51475	-4.43009E-001	1.10090E-003	0.00000E+000	-4.42000E-001	-8.29272E-004	10	..........a	-327.74
	2065	0.5165	-4.35776E-001	1.09020E-003	0.00000E+000	-4.35000E-001	-8.29272E-004	10	..........a	-327.74
	2072	0.51825	-4.28942E-001	1.07583E-003	0.00000E+000	-4.28000E-001	-9.29272E-004	10	..........a	-327.74
	2079	0.52	-4.21876E-001	1.05578E-003	0.00000E+000	-4.21000E-001	-8.79272E-004	10	..........a	-327.74
	2086	0.52175	-4.14876E-001	1.03606E-003	0.00000E+000	-4.14000E-001	-8.79272E-004	10	..........a	-327.74
	2093	0.5235	-4.08042E-001	1.01434E-003	0.00000E+000	-4.07000E-001	-8.29272E-004	10	..........a	-327.74
	2100	0.52525	-4.00876E-001	9.96961E-004	0.00000E+000	-4.00000E-001	-9.29272E-004	10	..........a	-327.74
	2107	0.527	-3.93876E-001	9.75572E-004	0.00000E+000	-3.93000E-001	-8.29272E-004	10	..........a	-327.74
	2114	0.52875	-3.86842E-001	9.52513E-004	0.00000E+000	-3.86000E-001	-8.79272E-004	10	..........a	-327.74
	2121	0.5305	-3.79876E-001	9.35469E-004	0.00000E+000	-3.79000E-001	-9.29272E-004	10	..........a	-327.74
	2128	0.53225	-3.73009E-001	9.19093E-004	0.00000E+000	-3.72000E-001	-9.29272E-004	10	..........a	-327.74
	2135	0.534	-3.65909E-001	9.00378E-004	0.00000E+000	-3.65000E-001	-6.79272E-004	10	..........a	-327.74
	2142	0.53575	-3.58942E-001	8.83000E-004	0.00000E+000	-3.58000E-001	-8.29272E-004	10	..........a	-327.74
	2149	0.5375	-3.52009E-001	8.70300E-004	0.00000E+000	-3.51000E-001	-8.29272E-004	10	..........a	-327.74
	2156	0.53925	-3.44909E-001	8.60943E-004	0.00000E+000	-3.44000E-001	-8.79272E-004	10	..........a	-327.74
	2163	0.541	-3.37942E-001	8.44901E-004	0.00000E+000	-3.37000E-001	-7.79272E-004	10	..........a	-327.74
	2170	0.54275	-3.30876E-001	8.34875E-004	0.00000E+000	-3.30000E-001	-8.79272E-004	10	..........a	-327.74
	2177	0.5445	-3.23976E-001	8.18834E-004	0.00000E+000	-3.23000E-001	-8.29272E-004	10	..........a	-327.74
	2184	0.54625	-3.16909E-001	8.08139E-004	0.00000E+000	-3.16000E-001	-8.79272E-004	10	..........a	-327.74
	2191	0.548	-3.09909E-001	8.01121E-004	0.00000E+000	-3.09000E-001	-9.79272E-004	10	..........a	-327.74
	2198	0.54975	-3.02909E-001	7.89424E-004	0.00000E+000	-3.02000E-001	-9.29272E-004	10	..........a	-327.74
	2205	0.5515	-2.95976E-001	7.78730E-004	0.00000E+000	-2.95000E-001	-9.79272E-004	10	..........a	-327.74
	2212	0.55325	-2.88842E-001	7.67367E-004	0.00000E+000	-2.88000E-001	-8.29272E-004	10	..........a	-327.74
	2219	0.555	-2.82009E-001	7.57007E-004	0.00000E+000	-2.81000E-001	-8.79272E-004	10	..........a	-327.74
	2226	0.55675	-2.75009E-001	7.47315E-004	0.00000E+000	-2.74000E-001	-7.79272E-004	10	..........a	-327.74
	2233	0.5585	-2.67642E-001	7.36621E-004	0.00000E+000	-2.67000E-001	-8.29272E-004	10	..........a	-327.74
	2240	0.56025	-2.60876E-001	7.27263E-004	0.00000E+000	-2.60000E-001	-8.79272E-004	10	..........a	-327.74
	2247	0.562	-2.53876E-001	7.13227E-004	0.00000E+000	-2.53000E-001	-7.29272E-004	10	..........a	-327.74
	2254	0.56375	-2.47042E-001	7.01864E-004	0.00000E+000	-2.46000E-001	-8.29272E-004	10	..........a	-327.74
	2261	0.5655	-2.39942E-001	6.92173E-004	0.00000E+000	-2.39000E-001	-9.79272E-004	10	..........a	-327.74
	2268	0.56725	-2.33009E-001	6.76799E-004	0.00000E+000	-2.32000E-001	-1.02927E-003	10	..........a	-327.74
	2275	0.569	-2.25942E-001	6.65103E-004	0.00000E+000	-2.25000E-001	-9.29272E-004	10	..........a	-327.74
	2282	0.57075	-2.18976E-001	6.55411E-004	0.00000E+000	-2.18000E-001	-8.79272E-004	10	..........a	-327.74
	2289	0.5725	-2.12009E-001	6.44382E-004	0.00000E+000	-2.11000E-001	-7.79272E-004	10	..........a	-327.74
	2296	0.57425	-2.04876E-001	6.35359E-004	0.00000E+000	-2.04000E-001	-8.79272E-004	10	..........a	-327.74
	2303	0.576	-1.98109E-001	6.17646E-004	0.00000E+000	-1.97000E-001	-8.79272E-004	10	..........a	-327.74
	2310	0.57775	-1.90976E-001	6.09626E-004	0.00000E+000	-1.90000E-001	-8.79272E-004	10	..........a	-327.74
	2317	0.5795	-1.83942E-001	5.99600E-004	0.00000E+000	-1.83000E-001	-8.29272E-004	10	..........a	-327.74
	2324	0.58125	-1.77109E-001	5.89574E-004	0.00000E+000	-1.76000E-001	-8.79272E-004	10	..........a	-327.74
	2331	0.583	-1.70009E-001	5.74869E-004	0.00000E+000	-1.69000E-001	-8.79272E-004	10	..........a	-327.74
	2338	0.58475	-1.63009E-001	5.69522E-004	0.00000E+000	-1.62000E-001	-7.79272E-004	10	..........a	-327.74
	2345	0.5865	-1.55976E-001	5.57157E-004	0.00000E+000	-1.55000E-001	-8.79272E-004	10	..........a	-327.74
	2352	0.58825	-1.49009E-001	5.47799E-004	0.00000E+000	-1.48000E-001	-8.79272E-004	10	..........a	-327.74
	2359	0.59	-1.42009E-001	5.42118E-004	0.00000E+000	-1.41000E-001	-9.79272E-004	10	..........a	-327.74
	2366	0.59175	-1.34876E-001	5.34765E-004	0.00000E+000	-1.34000E-001	-8.79272E-004	10	..........a	-327.74
	2373	0.5935	-1.27942E-001	5.23403E-004	0.00000E+000	-1.27000E-001	-8.79272E-004	10	..........a	-327.74
	2380	0.59525	-1.21109E-001	5.17387E-004	0.00000E+000	-1.20000E-001	-8.29272E-004	10	..........a	-327.74
	2387	0.597	-1.14009E-001	5.09366E-004	0.00000E+000	-1.13000E-001	-9.79272E-004	10	..........a	-327.74
	2394	0.59875	-1.06976E-001	5.04353E-004	0.00000E+000	-1.06000E-001	-7.79272E-004	10	..........a	-327.74
	2401	0.6005	-1.00042E-001	4.97335E-004	0.00000E+000	-9.90000E-002	-8.79272E-004	10	..........a	-327.74
	2408	0.60225	-9.30757E-002	4.93325E-004	0.00000E+000	-9.20000E-002	-7.29272E-004	10	..........a	-327.74
	2415	0.604	-8.59757E-002	4.87643E-004	0.00000E+000	-8.50000E-002	-9.29272E-004	10	..........a	-327.74
	2422	0.60575	-7.90423E-002	4.85304E-004	0.00000E+000	-7.80000E-002	-8.79272E-004	10	..........a	-327.74
	2429	0.6075	-7.20423E-002	4.81294E-004	0.00000E+000	-7.10000E-002	-8.79272E-004	10	..........a	-327.74
	2436	0.60925	-6.49090E-002	4.78954E-004	0.00000E+000	-6.40000E-002	-7.79272E-004	10	..........a	-327.74
	2443	0.611	-5.80423E-002	4.78286E-004	0.00000E+000	-5.70000E-002	-7.79272E-004	10	..........a	-327.74
	2450	0.61275	-5.10423E-002	4.75278E-004	0.00000E+000	-5.00000E-002	-9.29272E-004	10	..........a	-327.74
	2457	0.6145	-4.40090E-002	4.72939E-004	0.00000E+000	-4.30000E-002	-8.79272E-004	10	..........a	-327.74
	2464	0.61625	-3.70423E-002	4.71268E-004	0.00000E+000	-3.60000E-002	-9.79272E-004	10	..........a	-327.74
	2471	0.618	-2.99757E-002	4.74610E-004	0.00000E+000	-2.90000E-002	-9.29272E-004	10	..........a	-327.74
	2478	0.61975	-2.29757E-002	4.79957E-004	0.00000E+000	-2.20000E-002	-8.29272E-004	10	..........a	-327.74
	2485	0.6215	-1.61090E-002	4.78286E-004	0.00000E+000	-1.50000E-002	-7.79272E-004	10	..........a	-327.74
	2492	0.62325	-8.97566E-003	4.80959E-004	0.00000E+000	-8.00000E-003	-8.79272E-004	10	..........a	-327.74
	2499	0.625	-2.04233E-003	4.83967E-004	0.00000E+000	-1.00000E-003	-8.79272E-004	10	..........a	-327.74
	2506	0.62675	4.92434E-003	4.87978E-004	0.00000E+000	5.99998E-003	-9.29272E-004	10	..........a	-327.74
	2513	0.6285	1.19243E-002	4.91654E-004	0.00000E+000	1.30000E-002	-9.29272E-004	10	..........a	-327.74
	2520	0.63025	1.89243E-002	4.96333E-004	0.00000E+000	2.00000E-002	-8.79272E-004	10	..........a	-327.74
	2527	0.632	2.59243E-002	5.01345E-004	0.00000E+000	2.70000E-002	-9.29272E-004	10	..........a	-327.74
	2534	0.63375	3.29577E-002	5.03351E-004	0.00000E+000	3.40000E-002	-8.79272E-004	10	..........a	-327.74
	2541	0.6355	3.98243E-002	5.12708E-004	0.00000E+000	4.10000E-002	-7.79272E-004	10	..........a	-327.74
	2548	0.63725	4.68577E-002	5.15048E-004	0.00000E+000	4.80000E-002	-7.29272E-004	10	..........a	-327.74
	2555	0.639	5.39243E-002	5.22066E-004	0.00000E+000	5.50000E-002	-8.79272E-004	10	..........a	-327.74
	2562	0.64075	6.10577E-002	5.28081E-004	0.00000E+000	6.20000E-002	-8.79272E-004	10	..........a	-327.74
	2569	0.6425	6.79910E-002	5.34431E-004	0.00000E+000	6.90000E-002	-8.79272E-004	10	..........a	-327.74
	2576	0.64425	7.48577E-002	5.37773E-004	0.00000E+000	7.60000E-002	-9.29272E-004	10	..........a	-327.74
	2583	0.646	8.20243E-002	5.41449E-004	0.00000E+000	8.30000E-002	-8.79272E-004	10	..........a	-327.74
	2590	0.64775	8.89577E-002	5.47799E-004	0.00000E+000	9.00000E-002	-8.79272E-004	10	..........a	-327.74
	2597	0.6495	9.59577E-002	5.48802E-004	0.00000E+000	9.70000E-002	-9.29272E-004	10	..........a	-327.74
	2604	0.65125	1.02891E-001	5.51475E-004	0.00000E+000	1.04000E-001	-9.29272E-004	10	..........a	-327.74
	2611	0.653	1.09991E-001	5.49470E-004	0.00000E+000	1.11000E-001	-8.29272E-004	10	..........a	-327.74
	2618	0.65475	1.16891E-001	5.51475E-004	0.00000E+000	1.18000E-001	-9.29272E-004	10	..........a	-327.74
	2625	0.6565	1.24024E-001	5.49136E-004	0.00000E+000	1.25000E-001	-9.29272E-004	10	..........a	-327.74
	2632	0.65825	1.30891E-001	5.46128E-004	0.00000E+000	1.32000E-001	-9.29272E-004	10	..........a	-327.74
	2639	0.66	1.37924E-001	5.37773E-004	0.00000E+000	1.39000E-001	-8.79272E-004	10	..........a	-327.74
	2646	0.66175	1.44924E-001	5.32760E-004	0.00000E+000	1.46000E-001	-8.79272E-004	10	..........a	-327.74
	2653	0.6635	1.51891E-001	5.26410E-004	0.00000E+000	1.53000E-001	-9.29272E-004	10	..........a	-327.74
	2660	0.66525	1.58858E-001	5.18390E-004	0.00000E+000	1.60000E-001	-8.79272E-004	10	..........a	-327.74
	2667	0.667	1.65958E-001	5.10369E-004	0.00000E+000	1.67000E-001	-9.79272E-004	10	..........a	-327.74
	2674	0.66875	1.72891E-001	5.00009E-004	0.00000E+000	1.74000E-001	-9.29272E-004	10	..........a	-327.74
	2681	0.6705	1.79824E-001	4.89314E-004	0.00000E+000	1.81000E-001	-7.79272E-004	10	..........a	-327.74
	2688	0.67225	1.86891E-001	4.80291E-004	0.00000E+000	1.88000E-001	-8.79272E-004	10	..........a	-327.74
	2695	0.674	1.93724E-001	4.68260E-004	0.00000E+000	1.95000E-001	-9.29272E-004	10	..........a	-327.74
	2702	0.67575	2.00858E-001	4.56229E-004	0.00000E+000	2.02000E-001	-9.29272E-004	10	..........a	-327.74
	2709	0.6775	2.07891E-001	4.51550E-004	0.00000E+000	2.09000E-001	-9.29272E-004	10	..........a	-327.74
	2716	0.67925	2.14891E-001	4.39519E-004	0.00000E+000	2.16000E-001	-8.79272E-004	10	..........a	-327.74
	2723	0.681	2.21891E-001	4.30496E-004	0.00000E+000	2.23000E-001	-8.29272E-004	10	..........a	-327.74
	2730	0.68275	2.28924E-001	4.22141E-004	0.00000E+000	2.30000E-001	-9.29272E-004	10	..........a	-327.74
	2737	0.6845	2.35824E-001	4.14788E-004	0.00000E+000	2.37000E-001	-7.79272E-004	10	..........a	-327.74
	2744	0.68625	2.42891E-001	4.06433E-004	0.00000E+000	2.44000E-001	-8.79272E-004	10	..........a	-327.74
	2751	0.688	2.49824E-001	3.98078E-004	0.00000E+000	2.51000E-001	-9.79272E-004	10	..........a	-327.74
	2758	0.68975	2.56758E-001	3.93400E-004	0.00000E+000	2.58000E-001	-8.29272E-004	10	..........a	-327.74
	2765	0.6915	2.63791E-001	3.84710E-004	0.00000E+000	2.65000E-001	-8.29272E-004	10	..........a	-327.74
	2772	0.69325	2.70991E-001	3.82371E-004	0.00000E+000	2.72000E-001	-9.79272E-004	10	..........a	-327.74
	2779	0.695	2.77958E-001	3.75019E-004	0.00000E+000	2.79000E-001	-8.29272E-004	10	..........a	-327.74
	2786	0.69675	2.84858E-001	3.68335E-004	0.00000E+000	2.86000E-001	-7.29272E-004	10	..........a	-327.74
	2793	0.6985	2.91958E-001	3.63656E-004	0.00000E+000	2.93000E-001	-8.29272E-004	10	..........a	-327.74
	2800	0.70025	2.98691E-001	3.55635E-004	0.00000E+000	3.00000E-001	-9.29272E-004	10	..........a	-327.74
	2807	0.702	3.05924E-001	3.56304E-004	0.00000E+000	3.07000E-001	-9.29272E-004	10	..........a	-327.74
	2814	0.70375	3.12891E-001	3.51291E-004	0.00000E+000	3.14000E-001	-7.79272E-004	10	..........a	-327.74
	2821	0.7055	3.19858E-001	3.47614E-004	0.00000E+000	3.21000E-001	-8.79272E-004	10	..........a	-327.74
	2828	0.70725	3.26858E-001	3.42936E-004	0.00000E+000	3.28000E-001	-9.29272E-004	10	..........a	-327.74
	2835	0.709	3.33858E-001	3.42936E-004	0.00000E+000	3.35000E-001	-7.29272E-004	10	..........a	-327.74
	2842	0.71075	3.40858E-001	3.36252E-004	0.00000E+000	3.42000E-001	-7.29272E-004	10	..........a	-327.74
	2849	0.7125	3.47924E-001	3.32910E-004	0.00000E+000	3.49000E-001	-8.29272E-004	10	..........a	-327.74
	2856	0.71425	3.54858E-001	3.34246E-004	0.00000E+000	3.56000E-001	-8.29272E-004	10	..........a	-327.74
	2863	0.716	3.61824E-001	3.28899E-004	0.00000E+000	3.63000E-001	-8.79272E-004	10	..........a	-327.74
	2870	0.71775	3.68824E-001	3.31239E-004	0.00000E+000	3.70000E-001	-8.29272E-004	10	..........a	-327.74
	2877	0.7195	3.75858E-001	3.28231E-004	0.00000E+000	3.77000E-001	-8.29272E-004	10	..........a	-327.74
	2884	0.72125	3.82724E-001	3.23886E-004	0.00000E+000	3.84000E-001	-9.29272E-004	10	..........a	-327.74
	2891	0.723	3.89858E-001	3.24555E-004	0.00000E+000	3.91000E-001	-8.79272E-004	10	..........a	-327.74
	2898	0.72475	3.96858E-001	3.23218E-004	0.00000E+000	3.98000E-001	-8.29272E-004	10	..........a	-327.74
	2905	0.7265	4.03858E-001	3.21547E-004	0.00000E+000	4.05000E-001	-7.79272E-004	10	..........a	-327.74
	2912	0.72825	4.10858E-001	3.20879E-004	0.00000E+000	4.12000E-001	-9.29272E-004	10	..........a	-327.74
	2919	0.73	4.17724E-001	3.19542E-004	0.00000E+000	4.19000E-001	-9.79272E-004	10	..........a	-327.74
	2926	0.73175	4.24858E-001	3.19542E-004	0.00000E+000	4.26000E-001	-8.29272E-004	10	..........a	-327.74
	2933	0.7335	4.31724E-001	3.20210E-004	0.00000E+000	4.33000E-001	-8.29272E-004	10	..........a	-327.74
	2940	0.73525	4.38824E-001	3.17871E-004	0.00000E+000	4.40000E-001	-8.29272E-004	10	..........a	-327.74
	2947	0.737	4.45791E-001	3.21547E-004	0.00000E+000	4.47000E-001	-8.79272E-004	10	..........a	-327.74
	2954	0.73875	4.52691E-001	3.16200E-004	0.00000E+000	4.54000E-001	-9.29272E-004	10	..........a	-327.74
	2961	0.7405	4.59791E-001	3.18205E-004	0.00000E+000	4.61000E-001	-7.29272E-004	10	..........a	-327.74
	2968	0.74225	4.66791E-001	3.15197E-004	0.00000E+000	4.68000E-001	-8.29272E-004	10	..........a	-327.74
	2975	0.744	4.73824E-001	3.13860E-004	0.00000E+000	4.75000E-001	-8.29272E-004	10	..........a	-327.74
	2982	0.74575	4.80924E-001	3.11855E-004	0.00000E+000	4.82000E-001	-7.79272E-004	10	..........a	-327.74
	2989	0.7475	4.87724E-001	3.07845E-004	0.00000E+000	4.89000E-001	-7.79272E-004	10	..........a	-327.74
	2996	0.74925	4.94824E-001	3.08179E-004	0.00000E+000	4.96000E-001	-9.29272E-004	10	..........a	-327.74
	3000	0.75025	4.98758E-001	3.05505E-004	0.00000E+000	5.00000E-001	-8.79272E-004	10	..........a	-327.74
CURVE2	TABLE
	Pt	T	Vf	Im	Vu	Sig	Ach	IERange	Over	Temp
	#	s	V vs. Ref.	A	V	V	V	#	bits	deg C
	3001	0.7505	4.98758E-001	2.73422E-004	0.00000E+000	5.00000E-001	-9.29272E-004	10	..........a	-327.74