File: data/02-SI/Figures_S9_S11_RDE/14btmapaq-rde/1mkcl-5mmolar14btmapaq-nitrogen-7000mvpers.DTA
EXPLAIN
TAG	CV
TITLE	LABEL	Cyclic Voltammetry	Test &Identifier
DATE	LABEL	1/31/2023	Date
TIME	LABEL	14:06:11	Time
NOTES	NOTES	1	&Notes...

PSTAT	PSTAT	REF3000-21108	Potentiostat
VINIT	POTEN	5.00000E-001	F	Initial &E (V)
VLIMIT1	POTEN	-1.00000E+000	F	Scan Limit &1 (V)
VLIMIT2	POTEN	5.00000E-001	F	Scan Limit &2 (V)
VFINAL	POTEN	5.00000E-001	F	Final &E (V)
SCANRATE	QUANT	6.66665E+003	&Scan Rate (mV/s)
STEPSIZE	QUANT	1.00000E+000	St&ep Size (mV)
CYCLES	IQUANT	1	C&ycles (#)
IMODE	SELECTOR	1	I/E Range &Mode
IRANGE	QUANT	1.00000E+001	&Max Current (mA)
AREA	QUANT	1.00000E+000	Electrode &Area (cm^2)
ELECTRODETYPE	SELECTOR	0	Electrode Type
STRIPPING	TOGGLE	F	Used for Stripping
POLARITY	TOGGLE	F	Signal Polarity
CONDIT	TWOPARAM	F	1.50000E+001	0.00000E+000	Conditionin&g	Time(s)	E(V)
DELAY	TWOPARAM	F	5.00000E+000	0.00000E+000	Init. De&lay	Time(s)	Stab.(mV/s)
EQDELAY	QUANT	0.00000E+000	Equil. &Time (s)
IRCOMP	SELECTOR	0	IRCom&p
PFCOR	QUANT	5.00000E+001	PF Corr. (ohm)
SAMPLINGMODE	SELECTOR	1	Sampling &Mode
EOC	QUANT	0	Open Circuit (V)
PSTATMODEL	IQUANT	5	Pstat Model
PSTATSECTION	LABEL	REF3000-21108	Pstat Section
PSTATSERIALNO	LABEL	21108	Pstat Serial Number
CTRLMODE	IQUANT	1	Control Mode
ELECTROMETER	IQUANT	0	RE=0 or CS=1
IESTAB	IQUANT	2	I/E Stability
CASPEED	IQUANT	4	Control Amp Speed
CONVENTION	IQUANT	1	Current Convention
ICHRANGE	IQUANT	2	Ich Range
ICHRANGEMODE	TOGGLE	F	Ich Auto Range
ICHOFFSETENABLE	TOGGLE	F	Ich Offset Enable
ICHOFFSET	QUANT	0	Ich Offset (V)
ICHFILTER	IQUANT	1	Ich Filter
VCHRANGE	IQUANT	2	Vch Range
VCHRANGEMODE	TOGGLE	F	Vch Auto Range
VCHOFFSETENABLE	TOGGLE	F	Vch Offset Enable
VCHOFFSET	QUANT	0	Vch Offset (V)
VCHFILTER	IQUANT	1	Vch Filter
ACHRANGE	IQUANT	2	Ach Range
ACHOFFSETENABLE	TOGGLE	F	Ach Offset Enable
ACHOFFSET	QUANT	0	Ach Offset (V)
ACHFILTER	IQUANT	0	Ach Filter
IERANGELOWERLIMIT	IQUANT	2	I/E Range Lower Limit
IERANGEMODE	TOGGLE	F	I/E AutoRange
IERANGE	IQUANT	10	I/E Range
POSFEEDENABLE	TOGGLE	F	Positive Feedback IR Comp
POSFEEDRESISTANCE	QUANT	0	Positive Feedback Resistance (ohm)
ACHSELECT	IQUANT	0	Ach Select
SENSECABLEID	IQUANT	14	Sense Cable ID
PWRCABLEID	IQUANT	7	Power Cable ID
DCCALDATE	LABEL	11/9/2022	DC Calibration Date
ACCALDATE	LABEL	11/9/2022	AC Calibration Date
THERMOSELECT	IQUANT	1	Thermo Select
FRAMEWORKVERSION	LABEL	7.8.2	Framework Version
INSTRUMENTVERSION	LABEL	4.40	Instrument Version
COMPLIANCEVOLTAGE	IQUANT	0	Compliance Voltage
CURVE1	TABLE
	Pt	T	Vf	Im	Vu	Sig	Ach	IERange	Over	Temp
	#	s	V vs. Ref.	A	V	V	V	#	bits	deg C
	0	0.00015	4.98591E-001	2.31082E-005	0.00000E+000	5.00000E-001	-8.29272E-004	10	...........	-0.07
	6	0.00105	4.92391E-001	-7.11357E-005	0.00000E+000	4.93700E-001	-6.29272E-004	10	...........	-0.07
	12	0.00195	4.85991E-001	-8.31668E-005	0.00000E+000	4.87400E-001	-5.29272E-004	10	...........	-0.07
	18	0.00285	4.79591E-001	-8.91824E-005	0.00000E+000	4.81100E-001	-5.29272E-004	10	...........	-0.07
	24	0.00375	4.73391E-001	-8.71772E-005	0.00000E+000	4.74800E-001	-6.29272E-004	10	...........	-0.07
	30	0.00465	4.66891E-001	-9.31927E-005	0.00000E+000	4.68500E-001	-7.29272E-004	10	...........	-0.07
	36	0.00555	4.60991E-001	-1.00211E-004	0.00000E+000	4.62200E-001	-7.29272E-004	10	...........	-0.07
	42	0.00645	4.54591E-001	-1.02216E-004	0.00000E+000	4.55900E-001	-9.29272E-004	10	...........	-0.07
	48	0.00735	4.48191E-001	-1.05224E-004	0.00000E+000	4.49600E-001	-8.29272E-004	10	...........	-0.07
	54	0.00825	4.41891E-001	-1.05224E-004	0.00000E+000	4.43300E-001	-7.29272E-004	10	...........	-0.07
	60	0.00915	4.35591E-001	-1.12242E-004	0.00000E+000	4.37000E-001	-7.29272E-004	10	...........	-0.07
	66	0.01005	4.29191E-001	-1.11239E-004	0.00000E+000	4.30700E-001	-7.29272E-004	10	...........	-0.07
	72	0.01095	4.22991E-001	-1.13245E-004	0.00000E+000	4.24400E-001	-9.29272E-004	10	...........	-0.07
	78	0.01185	4.16691E-001	-1.13245E-004	0.00000E+000	4.18100E-001	-9.29272E-004	10	...........	-0.07
	84	0.01275	4.10591E-001	-1.13245E-004	0.00000E+000	4.11800E-001	-9.29272E-004	10	...........	-0.07
	90	0.01365	4.03991E-001	-1.18258E-004	0.00000E+000	4.05500E-001	-7.29272E-004	10	...........	-0.07
	96	0.01455	3.97991E-001	-1.22268E-004	0.00000E+000	3.99200E-001	-7.29272E-004	10	...........	-0.07
	102	0.01545	3.91691E-001	-1.22268E-004	0.00000E+000	3.92900E-001	-6.29272E-004	10	...........	-0.07
	108	0.01635	3.85191E-001	-1.24273E-004	0.00000E+000	3.86600E-001	-8.29272E-004	10	...........	-0.07
	114	0.01725	3.78891E-001	-1.26278E-004	0.00000E+000	3.80300E-001	-8.29272E-004	10	...........	-0.07
	120	0.01815	3.72991E-001	-1.27281E-004	0.00000E+000	3.74000E-001	-8.29272E-004	10	...........	-0.07
	126	0.01905	3.66191E-001	-1.25276E-004	0.00000E+000	3.67700E-001	-8.29272E-004	10	...........	-0.07
	132	0.01995	3.60191E-001	-1.31291E-004	0.00000E+000	3.61400E-001	-7.29272E-004	10	...........	-0.07
	138	0.02085	3.53791E-001	-1.30289E-004	0.00000E+000	3.55100E-001	-5.29272E-004	10	...........	-0.07
	144	0.02175	3.47391E-001	-1.34299E-004	0.00000E+000	3.48800E-001	-6.29272E-004	10	...........	-0.07
	150	0.02265	3.41291E-001	-1.38309E-004	0.00000E+000	3.42500E-001	-7.29272E-004	10	...........	-0.07
	156	0.02355	3.34991E-001	-1.36304E-004	0.00000E+000	3.36200E-001	-8.29272E-004	10	...........	-0.07
	162	0.02445	3.28591E-001	-1.42320E-004	0.00000E+000	3.29900E-001	-6.29272E-004	10	...........	-0.07
	168	0.02535	3.22291E-001	-1.42320E-004	0.00000E+000	3.23600E-001	-7.29272E-004	10	...........	-0.07
	174	0.02625	3.15991E-001	-1.40315E-004	0.00000E+000	3.17300E-001	-6.29272E-004	10	...........	-0.07
	180	0.02715	3.09591E-001	-1.45328E-004	0.00000E+000	3.11000E-001	-7.29272E-004	10	...........	-0.07
	186	0.02805	3.03291E-001	-1.49338E-004	0.00000E+000	3.04700E-001	-7.29272E-004	10	...........	-0.07
	192	0.02895	2.97191E-001	-1.47333E-004	0.00000E+000	2.98400E-001	-8.29272E-004	10	...........	-0.07
	198	0.02985	2.90791E-001	-1.54351E-004	0.00000E+000	2.92100E-001	-8.29272E-004	10	...........	-0.07
	204	0.03075	2.84491E-001	-1.50341E-004	0.00000E+000	2.85800E-001	-6.29272E-004	10	...........	-0.07
	210	0.03165	2.78091E-001	-1.50341E-004	0.00000E+000	2.79500E-001	-6.29272E-004	10	...........	-0.07
	216	0.03255	2.71791E-001	-1.61369E-004	0.00000E+000	2.73200E-001	-8.29272E-004	10	...........	-0.07
	222	0.03345	2.65591E-001	-1.58361E-004	0.00000E+000	2.66900E-001	-8.29272E-004	10	...........	-0.07
	228	0.03435	2.59191E-001	-1.55354E-004	0.00000E+000	2.60600E-001	-8.29272E-004	10	...........	-0.07
	234	0.03525	2.52991E-001	-1.61369E-004	0.00000E+000	2.54300E-001	-7.29272E-004	10	...........	-0.07
	240	0.03615	2.46691E-001	-1.60367E-004	0.00000E+000	2.48000E-001	-6.29272E-004	10	...........	-0.07
	246	0.03705	2.40591E-001	-1.61369E-004	0.00000E+000	2.41700E-001	-6.29272E-004	10	...........	-0.07
	252	0.03795	2.33991E-001	-1.63374E-004	0.00000E+000	2.35400E-001	-9.29272E-004	10	...........	-0.07
	258	0.03885	2.27691E-001	-1.64377E-004	0.00000E+000	2.29100E-001	-6.29272E-004	10	...........	-0.07
	264	0.03975	2.21591E-001	-1.66382E-004	0.00000E+000	2.22800E-001	-5.29272E-004	10	...........	-0.07
	270	0.04065	2.15191E-001	-1.69390E-004	0.00000E+000	2.16500E-001	-8.29272E-004	10	...........	-0.07
	276	0.04155	2.08891E-001	-1.70392E-004	0.00000E+000	2.10200E-001	-8.29272E-004	10	...........	-0.07
	282	0.04245	2.02591E-001	-1.73400E-004	0.00000E+000	2.03900E-001	-8.29272E-004	10	...........	-0.07
	288	0.04335	1.96391E-001	-1.69390E-004	0.00000E+000	1.97600E-001	-5.29272E-004	10	...........	-0.07
	294	0.04425	1.89991E-001	-1.74403E-004	0.00000E+000	1.91300E-001	-7.29272E-004	10	...........	-0.07
	300	0.04515	1.83591E-001	-1.73400E-004	0.00000E+000	1.85000E-001	-7.29272E-004	10	...........	-0.07
	306	0.04605	1.77391E-001	-1.77411E-004	0.00000E+000	1.78700E-001	-7.29272E-004	10	...........	-0.07
	312	0.04695	1.71091E-001	-1.70392E-004	0.00000E+000	1.72400E-001	-7.29272E-004	10	...........	-0.07
	318	0.04785	1.64791E-001	-1.77411E-004	0.00000E+000	1.66100E-001	-7.29272E-004	10	...........	-0.07
	324	0.04875	1.58591E-001	-1.80418E-004	0.00000E+000	1.59800E-001	-8.29272E-004	10	...........	-0.07
	330	0.04965	1.52191E-001	-1.80418E-004	0.00000E+000	1.53500E-001	-7.29272E-004	10	...........	-0.07
	336	0.05055	1.45791E-001	-1.83426E-004	0.00000E+000	1.47200E-001	-4.29272E-004	10	...........	-0.07
	342	0.05145	1.39691E-001	-1.79416E-004	0.00000E+000	1.40900E-001	-8.29272E-004	10	...........	-0.07
	348	0.05235	1.33391E-001	-1.77411E-004	0.00000E+000	1.34600E-001	-8.29272E-004	10	...........	-0.07
	354	0.05325	1.26991E-001	-1.83426E-004	0.00000E+000	1.28300E-001	-7.29272E-004	10	...........	-0.07
	360	0.05415	1.20791E-001	-1.85431E-004	0.00000E+000	1.22000E-001	-6.29272E-004	10	...........	-0.07
	366	0.05505	1.14591E-001	-1.80418E-004	0.00000E+000	1.15700E-001	-7.29272E-004	10	...........	-0.07
	372	0.05595	1.08191E-001	-1.83426E-004	0.00000E+000	1.09400E-001	-6.29272E-004	10	...........	-0.07
	378	0.05685	1.01891E-001	-1.86434E-004	0.00000E+000	1.03100E-001	-8.29272E-004	10	...........	-0.07
	384	0.05775	9.55910E-002	-1.89442E-004	0.00000E+000	9.68000E-002	-8.29272E-004	10	...........	-0.07
	390	0.05865	8.91910E-002	-1.89442E-004	0.00000E+000	9.05000E-002	-7.29272E-004	10	...........	-0.07
	396	0.05955	8.29910E-002	-1.85431E-004	0.00000E+000	8.42000E-002	-7.29272E-004	10	...........	-0.07
	402	0.06045	7.66910E-002	-1.85431E-004	0.00000E+000	7.79000E-002	-7.29272E-004	10	...........	-0.07
	408	0.06135	7.05910E-002	-1.89442E-004	0.00000E+000	7.16000E-002	-9.29272E-004	10	...........	-0.07
	414	0.06225	6.41910E-002	-1.86434E-004	0.00000E+000	6.53000E-002	-8.29272E-004	10	...........	-0.07
	420	0.06315	5.77910E-002	-1.86434E-004	0.00000E+000	5.90000E-002	-8.29272E-004	10	...........	-0.07
	426	0.06405	5.14910E-002	-1.88439E-004	0.00000E+000	5.27000E-002	-8.29272E-004	10	...........	-0.07
	432	0.06495	4.51910E-002	-1.90444E-004	0.00000E+000	4.64000E-002	-8.29272E-004	10	...........	-0.07
	438	0.06585	3.87910E-002	-1.87437E-004	0.00000E+000	4.01000E-002	-7.29272E-004	10	...........	-0.07
	444	0.06675	3.25910E-002	-1.90444E-004	0.00000E+000	3.38000E-002	-8.29272E-004	10	...........	-0.07
	450	0.06765	2.60910E-002	-1.89442E-004	0.00000E+000	2.75000E-002	-6.29272E-004	10	...........	-0.07
	456	0.06855	1.97910E-002	-1.89442E-004	0.00000E+000	2.12000E-002	-9.29272E-004	10	...........	-0.07
	462	0.06945	1.37910E-002	-1.81421E-004	0.00000E+000	1.49000E-002	-8.29272E-004	10	...........	-0.07
	468	0.07035	7.29100E-003	-1.87437E-004	0.00000E+000	8.60000E-003	-8.29272E-004	10	...........	-0.07
	474	0.07125	1.09100E-003	-1.93452E-004	0.00000E+000	2.29999E-003	-7.29272E-004	10	...........	-0.07
	480	0.07215	-5.20900E-003	-1.87437E-004	0.00000E+000	-4.00001E-003	-7.29272E-004	10	...........	-0.07
	486	0.07305	-1.14090E-002	-1.84429E-004	0.00000E+000	-1.03000E-002	-7.29272E-004	10	...........	-0.07
	492	0.07395	-1.78090E-002	-1.90444E-004	0.00000E+000	-1.66000E-002	-7.29272E-004	10	...........	-0.07
	498	0.07485	-2.41090E-002	-1.89442E-004	0.00000E+000	-2.29000E-002	-7.29272E-004	10	...........	-0.07
	504	0.07575	-3.03090E-002	-1.86434E-004	0.00000E+000	-2.92000E-002	-7.29272E-004	10	...........	-0.07
	510	0.07665	-3.66090E-002	-1.85431E-004	0.00000E+000	-3.55000E-002	-7.29272E-004	10	...........	-0.07
	516	0.07755	-4.29090E-002	-1.90444E-004	0.00000E+000	-4.18000E-002	-6.29272E-004	10	...........	-0.07
	522	0.07845	-4.94090E-002	-1.87437E-004	0.00000E+000	-4.81000E-002	-6.29272E-004	10	...........	-0.07
	528	0.07935	-5.55090E-002	-1.88439E-004	0.00000E+000	-5.44000E-002	-7.29272E-004	10	...........	-0.07
	534	0.08025	-6.20090E-002	-1.86434E-004	0.00000E+000	-6.07000E-002	-8.29272E-004	10	...........	-0.07
	540	0.08115	-6.83090E-002	-1.88439E-004	0.00000E+000	-6.70000E-002	-7.29272E-004	10	...........	-0.07
	546	0.08205	-7.44090E-002	-1.82424E-004	0.00000E+000	-7.33000E-002	-7.29272E-004	10	...........	-0.07
	552	0.08295	-8.06090E-002	-1.87437E-004	0.00000E+000	-7.96000E-002	-8.29272E-004	10	...........	-0.07
	558	0.08385	-8.70090E-002	-1.89442E-004	0.00000E+000	-8.59000E-002	-7.29272E-004	10	...........	-0.07
	564	0.08475	-9.34090E-002	-1.83426E-004	0.00000E+000	-9.22000E-002	-8.29272E-004	10	...........	-0.07
	570	0.08565	-9.96090E-002	-1.82424E-004	0.00000E+000	-9.85000E-002	-7.29272E-004	10	...........	-0.07
	576	0.08655	-1.05909E-001	-1.88439E-004	0.00000E+000	-1.04800E-001	-7.29272E-004	10	...........	-0.07
	582	0.08745	-1.12209E-001	-1.83426E-004	0.00000E+000	-1.11100E-001	-6.29272E-004	10	...........	-0.07
	588	0.08835	-1.18609E-001	-1.83426E-004	0.00000E+000	-1.17400E-001	-7.29272E-004	10	...........	-0.07
	594	0.08925	-1.24809E-001	-1.82424E-004	0.00000E+000	-1.23700E-001	-5.29272E-004	10	...........	-0.07
	600	0.09015	-1.31009E-001	-1.82424E-004	0.00000E+000	-1.30000E-001	-6.29272E-004	10	...........	-0.07
	606	0.09105	-1.37409E-001	-1.77411E-004	0.00000E+000	-1.36300E-001	-7.29272E-004	10	...........	-0.07
	612	0.09195	-1.43709E-001	-1.84429E-004	0.00000E+000	-1.42600E-001	-8.29272E-004	10	...........	-0.07
	618	0.09285	-1.50009E-001	-1.78413E-004	0.00000E+000	-1.48900E-001	-6.29272E-004	10	...........	-0.07
	624	0.09375	-1.56209E-001	-1.84429E-004	0.00000E+000	-1.55200E-001	-6.29272E-004	10	...........	-0.07
	630	0.09465	-1.62609E-001	-1.82424E-004	0.00000E+000	-1.61500E-001	-7.29272E-004	10	...........	-0.07
	636	0.09555	-1.69009E-001	-1.81421E-004	0.00000E+000	-1.67800E-001	-7.29272E-004	10	...........	-0.07
	642	0.09645	-1.75309E-001	-1.81421E-004	0.00000E+000	-1.74100E-001	-7.29272E-004	10	...........	-0.07
	648	0.09735	-1.81509E-001	-1.82424E-004	0.00000E+000	-1.80400E-001	-7.29272E-004	10	...........	-0.07
	654	0.09825	-1.87609E-001	-1.82424E-004	0.00000E+000	-1.86700E-001	-8.29272E-004	10	...........	-0.07
	660	0.09915	-1.94209E-001	-1.81421E-004	0.00000E+000	-1.93000E-001	-7.29272E-004	10	...........	-0.07
	666	0.10005	-2.00409E-001	-1.79416E-004	0.00000E+000	-1.99300E-001	-8.29272E-004	10	...........	-0.07
	672	0.10095	-2.06709E-001	-1.80418E-004	0.00000E+000	-2.05600E-001	-7.29272E-004	10	...........	-0.07
	678	0.10185	-2.13209E-001	-1.81421E-004	0.00000E+000	-2.11900E-001	-6.29272E-004	10	...........	-0.07
	684	0.10275	-2.19409E-001	-1.82424E-004	0.00000E+000	-2.18200E-001	-6.29272E-004	10	...........	-0.07
	690	0.10365	-2.25609E-001	-1.84429E-004	0.00000E+000	-2.24500E-001	-8.29272E-004	10	...........	-0.07
	696	0.10455	-2.31709E-001	-1.82424E-004	0.00000E+000	-2.30800E-001	-7.29272E-004	10	...........	-0.07
	702	0.10545	-2.38209E-001	-1.83426E-004	0.00000E+000	-2.37100E-001	-8.29272E-004	10	...........	-0.07
	708	0.10635	-2.44409E-001	-1.79416E-004	0.00000E+000	-2.43400E-001	-6.29272E-004	10	...........	-0.07
	714	0.10725	-2.50809E-001	-1.88439E-004	0.00000E+000	-2.49700E-001	-5.29272E-004	10	...........	-0.07
	720	0.10815	-2.57209E-001	-1.86434E-004	0.00000E+000	-2.56000E-001	-6.29272E-004	10	...........	-0.07
	726	0.10905	-2.63509E-001	-1.86434E-004	0.00000E+000	-2.62300E-001	-8.29272E-004	10	...........	-0.07
	732	0.10995	-2.69609E-001	-1.91447E-004	0.00000E+000	-2.68600E-001	-7.29272E-004	10	...........	-0.07
	738	0.11085	-2.76109E-001	-1.96460E-004	0.00000E+000	-2.74900E-001	-8.29272E-004	10	...........	-0.07
	744	0.11175	-2.82209E-001	-1.93452E-004	0.00000E+000	-2.81200E-001	-7.29272E-004	10	...........	-0.07
	750	0.11265	-2.88509E-001	-1.92450E-004	0.00000E+000	-2.87500E-001	-8.29272E-004	10	...........	-0.07
	756	0.11355	-2.95009E-001	-1.96460E-004	0.00000E+000	-2.93800E-001	-6.29272E-004	10	...........	-0.07
	762	0.11445	-3.01109E-001	-2.00470E-004	0.00000E+000	-3.00100E-001	-6.29272E-004	10	...........	-0.07
	768	0.11535	-3.07509E-001	-2.02475E-004	0.00000E+000	-3.06400E-001	-7.29272E-004	10	...........	-0.07
	774	0.11625	-3.13809E-001	-2.01473E-004	0.00000E+000	-3.12700E-001	-7.29272E-004	10	...........	-0.07
	780	0.11715	-3.20209E-001	-2.08491E-004	0.00000E+000	-3.19000E-001	-8.29272E-004	10	...........	-0.07
	786	0.11805	-3.26409E-001	-2.12501E-004	0.00000E+000	-3.25300E-001	-9.29272E-004	10	...........	-0.07
	792	0.11895	-3.32609E-001	-2.13504E-004	0.00000E+000	-3.31600E-001	-7.29272E-004	10	...........	-0.07
	798	0.11985	-3.39009E-001	-2.17514E-004	0.00000E+000	-3.37900E-001	-6.29272E-004	10	...........	-0.07
	804	0.12075	-3.45209E-001	-2.23530E-004	0.00000E+000	-3.44200E-001	-6.29272E-004	10	...........	-0.07
	810	0.12165	-3.51609E-001	-2.27540E-004	0.00000E+000	-3.50500E-001	-6.29272E-004	10	...........	-0.07
	816	0.12255	-3.57909E-001	-2.34559E-004	0.00000E+000	-3.56800E-001	-8.29272E-004	10	...........	-0.07
	822	0.12345	-3.64309E-001	-2.34559E-004	0.00000E+000	-3.63100E-001	-8.29272E-004	10	...........	-0.07
	828	0.12435	-3.70309E-001	-2.42579E-004	0.00000E+000	-3.69400E-001	-9.29272E-004	10	...........	-0.07
	834	0.12525	-3.76609E-001	-2.50600E-004	0.00000E+000	-3.75700E-001	-5.29272E-004	10	...........	-0.07
	840	0.12615	-3.83009E-001	-2.54610E-004	0.00000E+000	-3.82000E-001	-7.29272E-004	10	...........	-0.07
	846	0.12705	-3.89409E-001	-2.65639E-004	0.00000E+000	-3.88300E-001	-6.29272E-004	10	...........	-0.07
	852	0.12795	-3.95609E-001	-2.74662E-004	0.00000E+000	-3.94600E-001	-5.29272E-004	10	...........	-0.07
	858	0.12885	-4.01909E-001	-2.92709E-004	0.00000E+000	-4.00900E-001	-6.29272E-004	10	...........	-0.07
	864	0.12975	-4.08309E-001	-3.02735E-004	0.00000E+000	-4.07200E-001	-7.29272E-004	10	...........	-0.07
	870	0.13065	-4.14409E-001	-3.14766E-004	0.00000E+000	-4.13500E-001	-7.29272E-004	10	...........	-0.07
	876	0.13155	-4.20909E-001	-3.41836E-004	0.00000E+000	-4.19800E-001	-9.29272E-004	10	...........	-0.07
	882	0.13245	-4.27009E-001	-3.53867E-004	0.00000E+000	-4.26100E-001	-5.29272E-004	10	...........	-0.07
	888	0.13335	-4.33409E-001	-3.81940E-004	0.00000E+000	-4.32400E-001	-7.29272E-004	10	...........	-0.07
	894	0.13425	-4.39809E-001	-4.18033E-004	0.00000E+000	-4.38700E-001	-7.29272E-004	10	...........	-0.07
	900	0.13515	-4.45909E-001	-4.57134E-004	0.00000E+000	-4.45000E-001	-7.29272E-004	10	...........	-0.07
	906	0.13605	-4.52309E-001	-4.99243E-004	0.00000E+000	-4.51300E-001	-6.29272E-004	10	...........	-0.07
	912	0.13695	-4.58709E-001	-5.46365E-004	0.00000E+000	-4.57600E-001	-7.29272E-004	10	...........	-0.07
	918	0.13785	-4.64909E-001	-6.01508E-004	0.00000E+000	-4.63900E-001	-8.29272E-004	10	...........	-0.07
	924	0.13875	-4.71109E-001	-6.67679E-004	0.00000E+000	-4.70200E-001	-7.29272E-004	10	...........	-0.07
	930	0.13965	-4.77209E-001	-7.32848E-004	0.00000E+000	-4.76500E-001	-6.29272E-004	10	...........	-0.07
	936	0.14055	-4.83709E-001	-8.00022E-004	0.00000E+000	-4.82800E-001	-8.29272E-004	10	...........	-0.07
	942	0.14145	-4.90009E-001	-8.71206E-004	0.00000E+000	-4.89100E-001	-7.29272E-004	10	...........	-0.07
	948	0.14235	-4.96509E-001	-9.54421E-004	0.00000E+000	-4.95400E-001	-8.29272E-004	10	...........	-0.07
	954	0.14325	-5.02809E-001	-1.03062E-003	0.00000E+000	-5.01700E-001	-7.29272E-004	10	...........	-0.07
	960	0.14415	-5.09009E-001	-1.11584E-003	0.00000E+000	-5.08000E-001	-7.29272E-004	10	...........	-0.07
	966	0.14505	-5.15209E-001	-1.20607E-003	0.00000E+000	-5.14300E-001	-6.29272E-004	10	...........	-0.07
	972	0.14595	-5.21409E-001	-1.29530E-003	0.00000E+000	-5.20600E-001	-7.29272E-004	10	...........	-0.07
	978	0.14685	-5.27809E-001	-1.40258E-003	0.00000E+000	-5.26900E-001	-8.29272E-004	10	...........	-0.07
	984	0.14775	-5.34209E-001	-1.52089E-003	0.00000E+000	-5.33200E-001	-6.29272E-004	10	...........	-0.07
	990	0.14865	-5.40409E-001	-1.64421E-003	0.00000E+000	-5.39500E-001	-7.29272E-004	10	...........	-0.07
	996	0.14955	-5.46809E-001	-1.77755E-003	0.00000E+000	-5.45800E-001	-7.29272E-004	10	...........	-0.07
	1002	0.15045	-5.53009E-001	-1.91791E-003	0.00000E+000	-5.52100E-001	-9.29272E-004	10	...........	-0.07
	1008	0.15135	-5.59409E-001	-2.07031E-003	0.00000E+000	-5.58400E-001	-7.29272E-004	10	...........	-0.07
	1014	0.15225	-5.65609E-001	-2.22270E-003	0.00000E+000	-5.64700E-001	-8.29272E-004	10	...........	-0.07
	1020	0.15315	-5.72309E-001	-2.37610E-003	0.00000E+000	-5.71000E-001	-8.29272E-004	10	...........	-0.07
	1026	0.15405	-5.78409E-001	-2.52749E-003	0.00000E+000	-5.77300E-001	-8.29272E-004	10	...........	-0.07
	1032	0.15495	-5.84409E-001	-2.66886E-003	0.00000E+000	-5.83600E-001	-7.29272E-004	10	...........	-0.07
	1038	0.15585	-5.90809E-001	-2.80822E-003	0.00000E+000	-5.89900E-001	-6.29272E-004	10	...........	-0.07
	1044	0.15675	-5.97109E-001	-2.92953E-003	0.00000E+000	-5.96200E-001	-8.29272E-004	10	...........	-0.07
	1050	0.15765	-6.03409E-001	-3.03480E-003	0.00000E+000	-6.02500E-001	-7.29272E-004	10	...........	-0.07
	1056	0.15855	-6.09609E-001	-3.12002E-003	0.00000E+000	-6.08800E-001	-8.29272E-004	10	...........	-0.07
	1062	0.15945	-6.16009E-001	-3.17817E-003	0.00000E+000	-6.15100E-001	-8.29272E-004	10	...........	-0.07
	1068	0.16035	-6.22309E-001	-3.21728E-003	0.00000E+000	-6.21400E-001	-6.29272E-004	10	...........	-0.07
	1074	0.16125	-6.28709E-001	-3.22931E-003	0.00000E+000	-6.27700E-001	-7.29272E-004	10	...........	-0.07
	1080	0.16215	-6.35009E-001	-3.21728E-003	0.00000E+000	-6.34000E-001	-7.29272E-004	10	...........	-0.07
	1086	0.16305	-6.41009E-001	-3.17617E-003	0.00000E+000	-6.40300E-001	-7.29272E-004	10	...........	-0.07
	1092	0.16395	-6.47609E-001	-3.12103E-003	0.00000E+000	-6.46600E-001	-7.29272E-004	10	...........	-0.07
	1098	0.16485	-6.53909E-001	-3.04483E-003	0.00000E+000	-6.52900E-001	-7.29272E-004	10	...........	-0.07
	1104	0.16575	-6.60209E-001	-2.97665E-003	0.00000E+000	-6.59200E-001	-7.29272E-004	10	...........	-0.07
	1110	0.16665	-6.66409E-001	-2.89043E-003	0.00000E+000	-6.65500E-001	-7.29272E-004	10	...........	-0.07
	1116	0.16755	-6.72709E-001	-2.81122E-003	0.00000E+000	-6.71800E-001	-6.29272E-004	10	...........	-0.07
	1122	0.16845	-6.79109E-001	-2.73703E-003	0.00000E+000	-6.78100E-001	-8.29272E-004	10	...........	-0.07
	1128	0.16935	-6.85309E-001	-2.67086E-003	0.00000E+000	-6.84400E-001	-9.29272E-004	10	...........	-0.07
	1134	0.17025	-6.91609E-001	-2.60569E-003	0.00000E+000	-6.90700E-001	-8.29272E-004	10	...........	-0.07
	1140	0.17115	-6.98009E-001	-2.54353E-003	0.00000E+000	-6.97000E-001	-6.29272E-004	10	...........	-0.07
	1146	0.17205	-7.04209E-001	-2.49140E-003	0.00000E+000	-7.03300E-001	-8.29272E-004	10	...........	-0.07
	1152	0.17295	-7.10609E-001	-2.43926E-003	0.00000E+000	-7.09600E-001	-6.29272E-004	10	...........	-0.07
	1158	0.17385	-7.16809E-001	-2.39415E-003	0.00000E+000	-7.15900E-001	-9.29272E-004	10	...........	-0.07
	1164	0.17475	-7.23009E-001	-2.34201E-003	0.00000E+000	-7.22200E-001	-7.29272E-004	10	...........	-0.07
	1170	0.17565	-7.29409E-001	-2.29489E-003	0.00000E+000	-7.28500E-001	-7.29272E-004	10	...........	-0.07
	1176	0.17655	-7.35709E-001	-2.24977E-003	0.00000E+000	-7.34800E-001	-6.29272E-004	10	...........	-0.07
	1182	0.17745	-7.42209E-001	-2.20666E-003	0.00000E+000	-7.41100E-001	-8.29272E-004	10	...........	-0.07
	1188	0.17835	-7.48409E-001	-2.16054E-003	0.00000E+000	-7.47400E-001	-8.29272E-004	10	...........	-0.07
	1194	0.17925	-7.54409E-001	-2.11542E-003	0.00000E+000	-7.53700E-001	-7.29272E-004	10	...........	-0.07
	1200	0.18015	-7.60909E-001	-2.07432E-003	0.00000E+000	-7.60000E-001	-7.29272E-004	10	...........	-0.07
	1206	0.18105	-7.67109E-001	-2.03321E-003	0.00000E+000	-7.66300E-001	-6.29272E-004	10	...........	-0.07
	1212	0.18195	-7.73409E-001	-1.99712E-003	0.00000E+000	-7.72600E-001	-6.29272E-004	10	...........	-0.07
	1218	0.18285	-7.79609E-001	-1.95401E-003	0.00000E+000	-7.78900E-001	-8.29272E-004	10	...........	-0.07
	1224	0.18375	-7.86009E-001	-1.91892E-003	0.00000E+000	-7.85200E-001	-7.29272E-004	10	...........	-0.07
	1230	0.18465	-7.92409E-001	-1.87982E-003	0.00000E+000	-7.91500E-001	-6.29272E-004	10	...........	-0.07
	1236	0.18555	-7.98409E-001	-1.84372E-003	0.00000E+000	-7.97800E-001	-5.29272E-004	10	...........	-0.07
	1242	0.18645	-8.04609E-001	-1.80863E-003	0.00000E+000	-8.04100E-001	-8.29272E-004	10	...........	-0.07
	1248	0.18735	-8.11409E-001	-1.77655E-003	0.00000E+000	-8.10400E-001	-8.29272E-004	10	...........	-0.07
	1254	0.18825	-8.17709E-001	-1.74446E-003	0.00000E+000	-8.16700E-001	-7.29272E-004	10	...........	-0.07
	1260	0.18915	-8.23809E-001	-1.70937E-003	0.00000E+000	-8.23000E-001	-6.29272E-004	10	...........	-0.07
	1266	0.19005	-8.30209E-001	-1.68531E-003	0.00000E+000	-8.29300E-001	-7.29272E-004	10	...........	-0.07
	1272	0.19095	-8.36409E-001	-1.65122E-003	0.00000E+000	-8.35600E-001	-5.29272E-004	10	...........	-0.07
	1278	0.19185	-8.42809E-001	-1.62516E-003	0.00000E+000	-8.41900E-001	-7.29272E-004	10	...........	-0.07
	1284	0.19275	-8.49009E-001	-1.60009E-003	0.00000E+000	-8.48200E-001	-8.29272E-004	10	...........	-0.07
	1290	0.19365	-8.55209E-001	-1.58204E-003	0.00000E+000	-8.54500E-001	-7.29272E-004	10	...........	-0.07
	1296	0.19455	-8.61509E-001	-1.55397E-003	0.00000E+000	-8.60800E-001	-7.29272E-004	10	...........	-0.07
	1302	0.19545	-8.67909E-001	-1.52590E-003	0.00000E+000	-8.67100E-001	-7.29272E-004	10	...........	-0.07
	1308	0.19635	-8.74009E-001	-1.50083E-003	0.00000E+000	-8.73400E-001	-6.29272E-004	10	...........	-0.07
	1314	0.19725	-8.80409E-001	-1.47978E-003	0.00000E+000	-8.79700E-001	-6.29272E-004	10	...........	-0.07
	1320	0.19815	-8.86809E-001	-1.45973E-003	0.00000E+000	-8.86000E-001	-7.29272E-004	10	...........	-0.07
	1326	0.19905	-8.93209E-001	-1.44268E-003	0.00000E+000	-8.92300E-001	-8.29272E-004	10	...........	-0.07
	1332	0.19995	-8.99509E-001	-1.42063E-003	0.00000E+000	-8.98600E-001	-7.29272E-004	10	...........	-0.07
	1338	0.20085	-9.05609E-001	-1.40158E-003	0.00000E+000	-9.04900E-001	-7.29272E-004	10	...........	-0.07
	1344	0.20175	-9.11809E-001	-1.38554E-003	0.00000E+000	-9.11200E-001	-6.29272E-004	10	...........	-0.07
	1350	0.20265	-9.18209E-001	-1.36448E-003	0.00000E+000	-9.17500E-001	-7.29272E-004	10	...........	-0.07
	1356	0.20355	-9.24509E-001	-1.35145E-003	0.00000E+000	-9.23800E-001	-6.29272E-004	10	...........	-0.07
	1362	0.20445	-9.30809E-001	-1.33741E-003	0.00000E+000	-9.30100E-001	-7.29272E-004	10	...........	-0.07
	1368	0.20535	-9.37209E-001	-1.31836E-003	0.00000E+000	-9.36400E-001	-9.29272E-004	10	...........	-0.07
	1374	0.20625	-9.43509E-001	-1.30934E-003	0.00000E+000	-9.42700E-001	-7.29272E-004	10	...........	-0.07
	1380	0.20715	-9.49809E-001	-1.29731E-003	0.00000E+000	-9.49000E-001	-8.29272E-004	10	...........	-0.07
	1386	0.20805	-9.56009E-001	-1.28127E-003	0.00000E+000	-9.55300E-001	-7.29272E-004	10	...........	-0.07
	1392	0.20895	-9.62409E-001	-1.26924E-003	0.00000E+000	-9.61600E-001	-5.29272E-004	10	...........	-0.07
	1398	0.20985	-9.68609E-001	-1.25620E-003	0.00000E+000	-9.67900E-001	-6.29272E-004	10	...........	-0.07
	1404	0.21075	-9.74909E-001	-1.24918E-003	0.00000E+000	-9.74200E-001	-7.29272E-004	10	...........	-0.07
	1410	0.21165	-9.81209E-001	-1.23214E-003	0.00000E+000	-9.80500E-001	-7.29272E-004	10	...........	-0.07
	1416	0.21255	-9.87709E-001	-1.22813E-003	0.00000E+000	-9.86800E-001	-7.29272E-004	10	...........	-0.07
	1422	0.21345	-9.93809E-001	-1.21510E-003	0.00000E+000	-9.93100E-001	-7.29272E-004	10	...........	-0.07
	1428	0.21435	-1.00001E+000	-1.20507E-003	0.00000E+000	-9.99400E-001	-8.29272E-004	10	...........	-0.07
	1434	0.21525	-9.96009E-001	-9.39382E-004	0.00000E+000	-9.95200E-001	-6.29272E-004	10	...........	-0.07
	1440	0.21615	-9.89709E-001	-8.55164E-004	0.00000E+000	-9.88900E-001	-6.29272E-004	10	...........	-0.07
	1446	0.21705	-9.83409E-001	-7.95008E-004	0.00000E+000	-9.82600E-001	-5.29272E-004	10	...........	-0.07
	1452	0.21795	-9.77109E-001	-7.55907E-004	0.00000E+000	-9.76300E-001	-6.29272E-004	10	...........	-0.07
	1458	0.21885	-9.70809E-001	-7.22822E-004	0.00000E+000	-9.70000E-001	-7.29272E-004	10	...........	-0.07
	1464	0.21975	-9.64609E-001	-6.98760E-004	0.00000E+000	-9.63700E-001	-7.29272E-004	10	...........	-0.07
	1470	0.22065	-9.58209E-001	-6.75700E-004	0.00000E+000	-9.57400E-001	-8.29272E-004	10	...........	-0.07
	1476	0.22155	-9.51809E-001	-6.61664E-004	0.00000E+000	-9.51100E-001	-8.29272E-004	10	...........	-0.07
	1482	0.22245	-9.45609E-001	-6.38604E-004	0.00000E+000	-9.44800E-001	-7.29272E-004	10	...........	-0.07
	1488	0.22335	-9.39009E-001	-6.27575E-004	0.00000E+000	-9.38500E-001	-7.29272E-004	10	...........	-0.07
	1494	0.22425	-9.32609E-001	-6.08526E-004	0.00000E+000	-9.32200E-001	-5.29272E-004	10	...........	-0.07
	1500	0.22515	-9.26709E-001	-5.95492E-004	0.00000E+000	-9.25900E-001	-8.29272E-004	10	...........	-0.07
	1506	0.22605	-9.20409E-001	-5.88474E-004	0.00000E+000	-9.19600E-001	-8.29272E-004	10	...........	-0.07
	1512	0.22695	-9.14109E-001	-5.82459E-004	0.00000E+000	-9.13300E-001	-7.29272E-004	10	...........	-0.07
	1518	0.22785	-9.07509E-001	-5.71430E-004	0.00000E+000	-9.07000E-001	-7.29272E-004	10	...........	-0.07
	1524	0.22875	-9.01409E-001	-5.60402E-004	0.00000E+000	-9.00700E-001	-7.29272E-004	10	...........	-0.07
	1530	0.22965	-8.95309E-001	-5.54386E-004	0.00000E+000	-8.94400E-001	-6.29272E-004	10	...........	-0.07
	1536	0.23055	-8.89009E-001	-5.46365E-004	0.00000E+000	-8.88100E-001	-7.29272E-004	10	...........	-0.07
	1542	0.23145	-8.82609E-001	-5.46365E-004	0.00000E+000	-8.81800E-001	-9.29272E-004	10	...........	-0.07
	1548	0.23235	-8.76309E-001	-5.32329E-004	0.00000E+000	-8.75500E-001	-3.29272E-004	10	...........	-0.07
	1554	0.23325	-8.70009E-001	-5.22303E-004	0.00000E+000	-8.69200E-001	-7.29272E-004	10	...........	-0.07
	1560	0.23415	-8.63709E-001	-5.18293E-004	0.00000E+000	-8.62900E-001	-5.29272E-004	10	...........	-0.07
	1566	0.23505	-8.57209E-001	-5.10272E-004	0.00000E+000	-8.56600E-001	-8.29272E-004	10	...........	-0.07
	1572	0.23595	-8.51009E-001	-5.08267E-004	0.00000E+000	-8.50300E-001	-8.29272E-004	10	...........	-0.07
	1578	0.23685	-8.44609E-001	-4.92225E-004	0.00000E+000	-8.44000E-001	-7.29272E-004	10	...........	-0.07
	1584	0.23775	-8.38309E-001	-4.89217E-004	0.00000E+000	-8.37700E-001	-7.29272E-004	10	...........	-0.07
	1590	0.23865	-8.32009E-001	-4.88215E-004	0.00000E+000	-8.31400E-001	-8.29272E-004	10	...........	-0.07
	1596	0.23955	-8.25909E-001	-4.82199E-004	0.00000E+000	-8.25100E-001	-7.29272E-004	10	...........	-0.07
	1602	0.24045	-8.19509E-001	-4.71171E-004	0.00000E+000	-8.18800E-001	-7.29272E-004	10	...........	-0.07
	1608	0.24135	-8.13209E-001	-4.68163E-004	0.00000E+000	-8.12500E-001	-6.29272E-004	10	...........	-0.07
	1614	0.24225	-8.07109E-001	-4.65155E-004	0.00000E+000	-8.06200E-001	-6.29272E-004	10	...........	-0.07
	1620	0.24315	-8.00409E-001	-4.55129E-004	0.00000E+000	-7.99900E-001	-6.29272E-004	10	...........	-0.07
	1626	0.24405	-7.94209E-001	-4.49114E-004	0.00000E+000	-7.93600E-001	-8.29272E-004	10	...........	-0.07
	1632	0.24495	-7.88109E-001	-4.50116E-004	0.00000E+000	-7.87300E-001	-9.29272E-004	10	...........	-0.07
	1638	0.24585	-7.81909E-001	-4.42095E-004	0.00000E+000	-7.81000E-001	-6.29272E-004	10	...........	-0.07
	1644	0.24675	-7.75509E-001	-4.37082E-004	0.00000E+000	-7.74700E-001	-8.29272E-004	10	...........	-0.07
	1650	0.24765	-7.69309E-001	-4.28059E-004	0.00000E+000	-7.68400E-001	-8.29272E-004	10	...........	-0.07
	1656	0.24855	-7.63009E-001	-4.22044E-004	0.00000E+000	-7.62100E-001	-7.29272E-004	10	...........	-0.07
	1662	0.24945	-7.56509E-001	-4.17031E-004	0.00000E+000	-7.55800E-001	-8.29272E-004	10	...........	-0.07
	1668	0.25035	-7.50209E-001	-4.11015E-004	0.00000E+000	-7.49500E-001	-7.29272E-004	10	...........	-0.07
	1674	0.25125	-7.44009E-001	-4.06002E-004	0.00000E+000	-7.43200E-001	-6.29272E-004	10	...........	-0.07
	1680	0.25215	-7.37809E-001	-3.97981E-004	0.00000E+000	-7.36900E-001	-6.29272E-004	10	...........	-0.07
	1686	0.25305	-7.31509E-001	-3.95976E-004	0.00000E+000	-7.30600E-001	-8.29272E-004	10	...........	-0.07
	1692	0.25395	-7.25209E-001	-3.83945E-004	0.00000E+000	-7.24300E-001	-7.29272E-004	10	...........	-0.07
	1698	0.25485	-7.18709E-001	-3.76927E-004	0.00000E+000	-7.18000E-001	-9.29272E-004	10	...........	-0.07
	1704	0.25575	-7.12409E-001	-3.67903E-004	0.00000E+000	-7.11700E-001	-7.29272E-004	10	...........	-0.07
	1710	0.25665	-7.06309E-001	-3.58880E-004	0.00000E+000	-7.05400E-001	-7.29272E-004	10	...........	-0.07
	1716	0.25755	-6.99809E-001	-3.53867E-004	0.00000E+000	-6.99100E-001	-5.29272E-004	10	...........	-0.07
	1722	0.25845	-6.93609E-001	-3.42839E-004	0.00000E+000	-6.92800E-001	-6.29272E-004	10	...........	-0.07
	1728	0.25935	-6.87209E-001	-3.30808E-004	0.00000E+000	-6.86500E-001	-7.29272E-004	10	...........	-0.07
	1734	0.26025	-6.81109E-001	-3.17774E-004	0.00000E+000	-6.80200E-001	-7.29272E-004	10	...........	-0.07
	1740	0.26115	-6.74709E-001	-3.12761E-004	0.00000E+000	-6.73900E-001	-6.29272E-004	10	...........	-0.07
	1746	0.26205	-6.68609E-001	-2.93712E-004	0.00000E+000	-6.67600E-001	-6.29272E-004	10	...........	-0.07
	1752	0.26295	-6.62209E-001	-2.79675E-004	0.00000E+000	-6.61300E-001	-7.29272E-004	10	...........	-0.07
	1758	0.26385	-6.55809E-001	-2.62631E-004	0.00000E+000	-6.55000E-001	-7.29272E-004	10	...........	-0.07
	1764	0.26475	-6.49409E-001	-2.46590E-004	0.00000E+000	-6.48700E-001	-7.29272E-004	10	...........	-0.07
	1770	0.26565	-6.43009E-001	-2.24533E-004	0.00000E+000	-6.42400E-001	-7.29272E-004	10	...........	-0.07
	1776	0.26655	-6.36809E-001	-2.01473E-004	0.00000E+000	-6.36100E-001	-7.29272E-004	10	...........	-0.07
	1782	0.26745	-6.30809E-001	-1.75405E-004	0.00000E+000	-6.29800E-001	-7.29272E-004	10	...........	-0.07
	1788	0.26835	-6.24409E-001	-1.48335E-004	0.00000E+000	-6.23500E-001	-7.29272E-004	10	...........	-0.07
	1794	0.26925	-6.18109E-001	-1.12242E-004	0.00000E+000	-6.17200E-001	-7.29272E-004	10	...........	-0.07
	1800	0.27015	-6.11809E-001	-7.31409E-005	0.00000E+000	-6.10900E-001	-7.29272E-004	10	...........	-0.07
	1806	0.27105	-6.05509E-001	-3.30371E-005	0.00000E+000	-6.04600E-001	-7.29272E-004	10	...........	-0.07
	1812	0.27195	-5.99209E-001	1.70926E-005	0.00000E+000	-5.98300E-001	-8.29272E-004	10	...........	-0.07
	1818	0.27285	-5.93009E-001	7.12327E-005	0.00000E+000	-5.92000E-001	-6.29272E-004	10	...........	-0.07
	1824	0.27375	-5.86609E-001	1.28381E-004	0.00000E+000	-5.85700E-001	-8.29272E-004	10	...........	-0.07
	1830	0.27465	-5.80409E-001	1.93549E-004	0.00000E+000	-5.79400E-001	-7.29272E-004	10	...........	-0.07
	1836	0.27555	-5.74109E-001	2.70749E-004	0.00000E+000	-5.73100E-001	-8.29272E-004	10	...........	-0.07
	1842	0.27645	-5.67809E-001	3.43938E-004	0.00000E+000	-5.66800E-001	-8.29272E-004	10	...........	-0.07
	1848	0.27735	-5.61409E-001	4.22141E-004	0.00000E+000	-5.60500E-001	-8.29272E-004	10	...........	-0.07
	1854	0.27825	-5.55009E-001	5.00343E-004	0.00000E+000	-5.54200E-001	-7.29272E-004	10	...........	-0.07
	1860	0.27915	-5.48609E-001	5.91579E-004	0.00000E+000	-5.47900E-001	-8.29272E-004	10	...........	-0.07
	1866	0.28005	-5.42409E-001	6.74794E-004	0.00000E+000	-5.41600E-001	-6.29272E-004	10	...........	-0.07
	1872	0.28095	-5.36409E-001	7.63023E-004	0.00000E+000	-5.35300E-001	-6.29272E-004	10	...........	-0.07
	1878	0.28185	-5.30009E-001	8.55261E-004	0.00000E+000	-5.29000E-001	-8.29272E-004	10	...........	-0.07
	1884	0.28275	-5.23609E-001	9.36471E-004	0.00000E+000	-5.22700E-001	-8.29272E-004	10	...........	-0.07
	1890	0.28365	-5.17209E-001	1.01969E-003	0.00000E+000	-5.16400E-001	-8.29272E-004	10	...........	-0.07
	1896	0.28455	-5.11009E-001	1.09789E-003	0.00000E+000	-5.10100E-001	-8.29272E-004	10	...........	-0.07
	1902	0.28545	-5.04709E-001	1.16807E-003	0.00000E+000	-5.03800E-001	-8.29272E-004	10	...........	-0.07
	1908	0.28635	-4.98509E-001	1.24326E-003	0.00000E+000	-4.97500E-001	-8.29272E-004	10	...........	-0.07
	1914	0.28725	-4.92309E-001	1.30543E-003	0.00000E+000	-4.91200E-001	-8.29272E-004	10	...........	-0.07
	1920	0.28815	-4.86009E-001	1.35856E-003	0.00000E+000	-4.84900E-001	-6.29272E-004	10	...........	-0.07
	1926	0.28905	-4.79509E-001	1.41471E-003	0.00000E+000	-4.78600E-001	-8.29272E-004	10	...........	-0.07
	1932	0.28995	-4.73409E-001	1.45882E-003	0.00000E+000	-4.72300E-001	-7.29272E-004	10	...........	-0.07
	1938	0.29085	-4.67009E-001	1.50093E-003	0.00000E+000	-4.66000E-001	-6.29272E-004	10	...........	-0.07
	1944	0.29175	-4.60609E-001	1.51798E-003	0.00000E+000	-4.59700E-001	-7.29272E-004	10	...........	-0.07
	1950	0.29265	-4.54309E-001	1.54204E-003	0.00000E+000	-4.53400E-001	-8.29272E-004	10	...........	-0.07
	1956	0.29355	-4.48009E-001	1.54705E-003	0.00000E+000	-4.47100E-001	-6.29272E-004	10	...........	-0.07
	1962	0.29445	-4.41809E-001	1.54705E-003	0.00000E+000	-4.40800E-001	-6.29272E-004	10	...........	-0.07
	1968	0.29535	-4.35609E-001	1.54003E-003	0.00000E+000	-4.34500E-001	-6.29272E-004	10	...........	-0.07
	1974	0.29625	-4.29209E-001	1.52600E-003	0.00000E+000	-4.28200E-001	-8.29272E-004	10	...........	-0.07
	1980	0.29715	-4.23009E-001	1.50996E-003	0.00000E+000	-4.21900E-001	-8.29272E-004	10	...........	-0.07
	1986	0.29805	-4.16609E-001	1.49592E-003	0.00000E+000	-4.15600E-001	-9.29272E-004	10	...........	-0.07
	1992	0.29895	-4.10309E-001	1.47186E-003	0.00000E+000	-4.09300E-001	-6.29272E-004	10	...........	-0.07
	1998	0.29985	-4.04009E-001	1.44378E-003	0.00000E+000	-4.03000E-001	-6.29272E-004	10	...........	-0.07
	2004	0.30075	-3.97709E-001	1.42373E-003	0.00000E+000	-3.96700E-001	-6.29272E-004	10	...........	-0.07
	2010	0.30165	-3.91509E-001	1.40167E-003	0.00000E+000	-3.90400E-001	-8.29272E-004	10	...........	-0.07
	2016	0.30255	-3.85109E-001	1.37761E-003	0.00000E+000	-3.84100E-001	-8.29272E-004	10	...........	-0.07
	2022	0.30345	-3.78809E-001	1.35455E-003	0.00000E+000	-3.77800E-001	-8.29272E-004	10	...........	-0.07
	2028	0.30435	-3.72609E-001	1.33550E-003	0.00000E+000	-3.71500E-001	-8.29272E-004	10	...........	-0.07
	2034	0.30525	-3.66009E-001	1.31746E-003	0.00000E+000	-3.65200E-001	-8.29272E-004	10	...........	-0.07
	2040	0.30615	-3.59809E-001	1.30342E-003	0.00000E+000	-3.58900E-001	-8.29272E-004	10	...........	-0.07
	2046	0.30705	-3.53609E-001	1.28638E-003	0.00000E+000	-3.52600E-001	-8.29272E-004	10	...........	-0.07
	2052	0.30795	-3.47409E-001	1.27034E-003	0.00000E+000	-3.46300E-001	-7.29272E-004	10	...........	-0.07
	2058	0.30885	-3.40809E-001	1.25329E-003	0.00000E+000	-3.40000E-001	-6.29272E-004	10	...........	-0.07
	2064	0.30975	-3.34709E-001	1.24126E-003	0.00000E+000	-3.33700E-001	-8.29272E-004	10	...........	-0.07
	2070	0.31065	-3.28409E-001	1.22923E-003	0.00000E+000	-3.27400E-001	-8.29272E-004	10	...........	-0.07
	2076	0.31155	-3.22209E-001	1.21319E-003	0.00000E+000	-3.21100E-001	-6.29272E-004	10	...........	-0.07
	2082	0.31245	-3.15809E-001	1.20216E-003	0.00000E+000	-3.14800E-001	-6.29272E-004	10	...........	-0.07
	2088	0.31335	-3.09609E-001	1.18211E-003	0.00000E+000	-3.08500E-001	-8.29272E-004	10	...........	-0.07
	2094	0.31425	-3.03209E-001	1.17709E-003	0.00000E+000	-3.02200E-001	-8.29272E-004	10	...........	-0.07
	2100	0.31515	-2.96909E-001	1.16506E-003	0.00000E+000	-2.95900E-001	-6.29272E-004	10	...........	-0.07
	2106	0.31605	-2.90709E-001	1.15103E-003	0.00000E+000	-2.89600E-001	-6.29272E-004	10	...........	-0.07
	2112	0.31695	-2.84409E-001	1.14401E-003	0.00000E+000	-2.83300E-001	-8.29272E-004	10	...........	-0.07
	2118	0.31785	-2.78109E-001	1.13198E-003	0.00000E+000	-2.77000E-001	-8.29272E-004	10	...........	-0.07
	2124	0.31875	-2.71809E-001	1.11393E-003	0.00000E+000	-2.70700E-001	-6.29272E-004	10	...........	-0.07
	2130	0.31965	-2.65409E-001	1.10491E-003	0.00000E+000	-2.64400E-001	-8.29272E-004	10	...........	-0.07
	2136	0.32055	-2.59009E-001	1.09588E-003	0.00000E+000	-2.58100E-001	-8.29272E-004	10	...........	-0.07
	2142	0.32145	-2.52809E-001	1.07784E-003	0.00000E+000	-2.51800E-001	-7.29272E-004	10	...........	-0.07
	2148	0.32235	-2.46609E-001	1.06380E-003	0.00000E+000	-2.45500E-001	-8.29272E-004	10	...........	-0.07
	2154	0.32325	-2.40109E-001	1.05077E-003	0.00000E+000	-2.39200E-001	-6.29272E-004	10	...........	-0.07
	2160	0.32415	-2.33909E-001	1.03573E-003	0.00000E+000	-2.32900E-001	-8.29272E-004	10	...........	-0.07
	2166	0.32505	-2.27809E-001	1.02069E-003	0.00000E+000	-2.26600E-001	-6.29272E-004	10	...........	-0.07
	2172	0.32595	-2.21409E-001	1.00465E-003	0.00000E+000	-2.20300E-001	-6.29272E-004	10	...........	-0.07
	2178	0.32685	-2.15009E-001	9.93619E-004	0.00000E+000	-2.14000E-001	-9.29272E-004	10	...........	-0.07
	2184	0.32775	-2.08809E-001	9.78580E-004	0.00000E+000	-2.07700E-001	-8.29272E-004	10	...........	-0.07
	2190	0.32865	-2.02409E-001	9.59531E-004	0.00000E+000	-2.01400E-001	-6.29272E-004	10	...........	-0.07
	2196	0.32955	-1.96209E-001	9.39479E-004	0.00000E+000	-1.95100E-001	-6.29272E-004	10	...........	-0.07
	2202	0.33045	-1.89809E-001	9.29453E-004	0.00000E+000	-1.88800E-001	-8.29272E-004	10	...........	-0.07
	2208	0.33135	-1.83609E-001	9.13412E-004	0.00000E+000	-1.82500E-001	-6.29272E-004	10	...........	-0.07
	2214	0.33225	-1.77209E-001	9.06393E-004	0.00000E+000	-1.76200E-001	-1.02927E-003	10	...........	-0.07
	2220	0.33315	-1.71009E-001	8.88347E-004	0.00000E+000	-1.69900E-001	-6.29272E-004	10	...........	-0.07
	2226	0.33405	-1.64609E-001	8.67292E-004	0.00000E+000	-1.63600E-001	-8.29272E-004	10	...........	-0.07
	2232	0.33495	-1.58409E-001	8.59272E-004	0.00000E+000	-1.57300E-001	-8.29272E-004	10	...........	-0.07
	2238	0.33585	-1.52309E-001	8.45235E-004	0.00000E+000	-1.51000E-001	-8.29272E-004	10	...........	-0.07
	2244	0.33675	-1.45909E-001	8.31199E-004	0.00000E+000	-1.44700E-001	-6.29272E-004	10	...........	-0.07
	2250	0.33765	-1.39509E-001	8.22176E-004	0.00000E+000	-1.38400E-001	-8.29272E-004	10	...........	-0.07
	2256	0.33855	-1.33209E-001	8.07137E-004	0.00000E+000	-1.32100E-001	-6.29272E-004	10	...........	-0.07
	2262	0.33945	-1.27109E-001	7.99116E-004	0.00000E+000	-1.25800E-001	-8.29272E-004	10	...........	-0.07
	2268	0.34035	-1.20609E-001	7.85080E-004	0.00000E+000	-1.19500E-001	-9.29272E-004	10	...........	-0.07
	2274	0.34125	-1.14209E-001	7.72046E-004	0.00000E+000	-1.13200E-001	-6.29272E-004	10	...........	-0.07
	2280	0.34215	-1.07809E-001	7.69038E-004	0.00000E+000	-1.06900E-001	-8.29272E-004	10	...........	-0.07
	2286	0.34305	-1.01809E-001	7.60015E-004	0.00000E+000	-1.00600E-001	-4.29272E-004	10	...........	-0.07
	2292	0.34395	-9.54090E-002	7.52997E-004	0.00000E+000	-9.43000E-002	-9.29272E-004	10	...........	-0.07
	2298	0.34485	-8.92090E-002	7.40965E-004	0.00000E+000	-8.80000E-002	-8.29272E-004	10	...........	-0.07
	2304	0.34575	-8.28090E-002	7.34950E-004	0.00000E+000	-8.17000E-002	-6.29272E-004	10	...........	-0.07
	2310	0.34665	-7.64090E-002	7.33947E-004	0.00000E+000	-7.54000E-002	-9.29272E-004	10	...........	-0.07
	2316	0.34755	-7.02090E-002	7.25927E-004	0.00000E+000	-6.91000E-002	-7.29272E-004	10	...........	-0.07
	2322	0.34845	-6.39090E-002	7.14898E-004	0.00000E+000	-6.28000E-002	-6.29272E-004	10	...........	-0.07
	2328	0.34935	-5.76090E-002	7.11890E-004	0.00000E+000	-5.65000E-002	-8.29272E-004	10	...........	-0.07
	2334	0.35025	-5.13090E-002	7.12893E-004	0.00000E+000	-5.02000E-002	-8.29272E-004	10	...........	-0.07
	2340	0.35115	-4.50090E-002	7.10888E-004	0.00000E+000	-4.39000E-002	-6.29272E-004	10	...........	-0.07
	2346	0.35205	-3.87090E-002	7.07880E-004	0.00000E+000	-3.76000E-002	-8.29272E-004	10	...........	-0.07
	2352	0.35295	-3.26090E-002	7.08882E-004	0.00000E+000	-3.13000E-002	-8.29272E-004	10	...........	-0.07
	2358	0.35385	-2.61090E-002	7.13895E-004	0.00000E+000	-2.50000E-002	-6.29272E-004	10	...........	-0.07
	2364	0.35475	-1.99090E-002	6.98857E-004	0.00000E+000	-1.87000E-002	-7.29272E-004	10	...........	-0.07
	2370	0.35565	-1.35090E-002	7.05875E-004	0.00000E+000	-1.24000E-002	-8.29272E-004	10	...........	-0.07
	2376	0.35655	-7.10900E-003	7.13895E-004	0.00000E+000	-6.10000E-003	-8.29272E-004	10	...........	-0.07
	2382	0.35745	-1.10900E-003	7.11890E-004	0.00000E+000	2.00003E-004	-8.29272E-004	10	...........	-0.07
	2388	0.35835	5.29100E-003	7.11890E-004	0.00000E+000	6.50001E-003	-8.29272E-004	10	...........	-0.07
	2394	0.35925	1.16910E-002	7.22919E-004	0.00000E+000	1.28000E-002	-7.29272E-004	10	...........	-0.07
	2400	0.36015	1.79910E-002	7.26929E-004	0.00000E+000	1.91000E-002	-8.29272E-004	10	...........	-0.07
	2406	0.36105	2.43910E-002	7.32945E-004	0.00000E+000	2.54000E-002	-8.29272E-004	10	...........	-0.07
	2412	0.36195	3.05910E-002	7.35953E-004	0.00000E+000	3.17000E-002	-5.29272E-004	10	...........	-0.07
	2418	0.36285	3.67910E-002	7.39963E-004	0.00000E+000	3.80000E-002	-7.29272E-004	10	...........	-0.07
	2424	0.36375	4.33910E-002	7.55002E-004	0.00000E+000	4.43000E-002	-8.29272E-004	10	...........	-0.07
	2430	0.36465	4.97910E-002	7.53999E-004	0.00000E+000	5.06000E-002	-7.29272E-004	10	...........	-0.07
	2436	0.36555	5.56910E-002	7.62020E-004	0.00000E+000	5.69000E-002	-7.29272E-004	10	...........	-0.07
	2442	0.36645	6.20910E-002	7.72046E-004	0.00000E+000	6.32000E-002	-6.29272E-004	10	...........	-0.07
	2448	0.36735	6.83910E-002	7.77059E-004	0.00000E+000	6.95000E-002	-6.29272E-004	10	...........	-0.07
	2454	0.36825	7.45910E-002	7.91095E-004	0.00000E+000	7.58000E-002	-8.29272E-004	10	...........	-0.07
	2460	0.36915	8.08910E-002	7.92098E-004	0.00000E+000	8.21000E-002	-7.29272E-004	10	...........	-0.07
	2466	0.37005	8.71910E-002	7.98113E-004	0.00000E+000	8.84000E-002	-6.29272E-004	10	...........	-0.07
	2472	0.37095	9.32910E-002	8.08139E-004	0.00000E+000	9.47000E-002	-8.29272E-004	10	...........	-0.07
	2478	0.37185	9.96910E-002	8.14155E-004	0.00000E+000	1.01000E-001	-8.29272E-004	10	...........	-0.07
	2484	0.37275	1.06191E-001	8.18165E-004	0.00000E+000	1.07300E-001	-9.29272E-004	10	...........	-0.07
	2490	0.37365	1.12591E-001	8.27188E-004	0.00000E+000	1.13600E-001	-6.29272E-004	10	...........	-0.07
	2496	0.37455	1.18591E-001	8.31199E-004	0.00000E+000	1.19900E-001	-6.29272E-004	10	...........	-0.07
	2502	0.37545	1.24991E-001	8.33204E-004	0.00000E+000	1.26200E-001	-8.29272E-004	10	...........	-0.07
	2508	0.37635	1.31391E-001	8.33204E-004	0.00000E+000	1.32500E-001	-7.29272E-004	10	...........	-0.07
	2514	0.37725	1.37691E-001	8.34207E-004	0.00000E+000	1.38800E-001	-8.29272E-004	10	...........	-0.07
	2520	0.37815	1.43891E-001	8.38217E-004	0.00000E+000	1.45100E-001	-8.29272E-004	10	...........	-0.07
	2526	0.37905	1.50291E-001	8.30196E-004	0.00000E+000	1.51400E-001	-8.29272E-004	10	...........	-0.07
	2532	0.37995	1.56491E-001	8.22176E-004	0.00000E+000	1.57700E-001	-8.29272E-004	10	...........	-0.07
	2538	0.38085	1.62791E-001	8.18165E-004	0.00000E+000	1.64000E-001	-8.29272E-004	10	...........	-0.07
	2544	0.38175	1.68991E-001	8.09142E-004	0.00000E+000	1.70300E-001	-6.29272E-004	10	...........	-0.07
	2550	0.38265	1.75591E-001	7.96108E-004	0.00000E+000	1.76600E-001	-8.29272E-004	10	...........	-0.07
	2556	0.38355	1.81791E-001	7.86082E-004	0.00000E+000	1.82900E-001	-6.29272E-004	10	...........	-0.07
	2562	0.38445	1.87991E-001	7.72046E-004	0.00000E+000	1.89200E-001	-8.29272E-004	10	...........	-0.07
	2568	0.38535	1.94091E-001	7.58010E-004	0.00000E+000	1.95500E-001	-6.29272E-004	10	...........	-0.07
	2574	0.38625	2.00491E-001	7.41968E-004	0.00000E+000	2.01800E-001	-7.29272E-004	10	...........	-0.07
	2580	0.38715	2.06991E-001	7.23921E-004	0.00000E+000	2.08100E-001	-6.29272E-004	10	...........	-0.07
	2586	0.38805	2.13191E-001	7.10888E-004	0.00000E+000	2.14400E-001	-8.29272E-004	10	...........	-0.07
	2592	0.38895	2.19391E-001	7.02867E-004	0.00000E+000	2.20700E-001	-7.29272E-004	10	...........	-0.07
	2598	0.38985	2.25791E-001	6.88831E-004	0.00000E+000	2.27000E-001	-9.29272E-004	10	...........	-0.07
	2604	0.39075	2.32191E-001	6.68779E-004	0.00000E+000	2.33300E-001	-6.29272E-004	10	...........	-0.07
	2610	0.39165	2.38291E-001	6.57750E-004	0.00000E+000	2.39600E-001	-8.29272E-004	10	...........	-0.07
	2616	0.39255	2.44491E-001	6.45719E-004	0.00000E+000	2.45900E-001	-8.29272E-004	10	...........	-0.07
	2622	0.39345	2.50991E-001	6.33688E-004	0.00000E+000	2.52200E-001	-8.29272E-004	10	...........	-0.07
	2628	0.39435	2.57391E-001	6.18649E-004	0.00000E+000	2.58500E-001	-8.29272E-004	10	...........	-0.07
	2634	0.39525	2.63691E-001	6.13636E-004	0.00000E+000	2.64800E-001	-8.29272E-004	10	...........	-0.07
	2640	0.39615	2.69891E-001	6.03610E-004	0.00000E+000	2.71100E-001	-7.29272E-004	10	...........	-0.07
	2646	0.39705	2.76191E-001	5.87569E-004	0.00000E+000	2.77400E-001	-7.29272E-004	10	...........	-0.07
	2652	0.39795	2.82491E-001	5.79548E-004	0.00000E+000	2.83700E-001	-8.29272E-004	10	...........	-0.07
	2658	0.39885	2.88691E-001	5.67517E-004	0.00000E+000	2.90000E-001	-6.29272E-004	10	...........	-0.07
	2664	0.39975	2.94891E-001	5.57491E-004	0.00000E+000	2.96300E-001	-6.29272E-004	10	...........	-0.07
	2670	0.40065	3.01191E-001	5.54483E-004	0.00000E+000	3.02600E-001	-6.29272E-004	10	...........	-0.07
	2676	0.40155	3.07591E-001	5.52478E-004	0.00000E+000	3.08900E-001	-8.29272E-004	10	...........	-0.07
	2682	0.40245	3.13791E-001	5.40447E-004	0.00000E+000	3.15200E-001	-8.29272E-004	10	...........	-0.07
	2688	0.40335	3.20191E-001	5.34431E-004	0.00000E+000	3.21500E-001	-6.29272E-004	10	...........	-0.07
	2694	0.40425	3.26591E-001	5.31423E-004	0.00000E+000	3.27800E-001	-8.29272E-004	10	...........	-0.07
	2700	0.40515	3.32991E-001	5.26410E-004	0.00000E+000	3.34100E-001	-8.29272E-004	10	...........	-0.07
	2706	0.40605	3.39391E-001	5.15382E-004	0.00000E+000	3.40400E-001	-8.29272E-004	10	...........	-0.07
	2712	0.40695	3.45491E-001	5.13377E-004	0.00000E+000	3.46700E-001	-8.29272E-004	10	...........	-0.07
	2718	0.40785	3.51691E-001	5.05356E-004	0.00000E+000	3.53000E-001	-8.29272E-004	10	...........	-0.07
	2724	0.40875	3.57991E-001	5.01345E-004	0.00000E+000	3.59300E-001	-8.29272E-004	10	...........	-0.07
	2730	0.40965	3.64191E-001	5.00343E-004	0.00000E+000	3.65600E-001	-9.29272E-004	10	...........	-0.07
	2736	0.41055	3.70491E-001	4.93325E-004	0.00000E+000	3.71900E-001	-7.29272E-004	10	...........	-0.07
	2742	0.41145	3.76991E-001	4.97335E-004	0.00000E+000	3.78200E-001	-7.29272E-004	10	...........	-0.07
	2748	0.41235	3.83291E-001	4.93325E-004	0.00000E+000	3.84500E-001	-9.29272E-004	10	...........	-0.07
	2754	0.41325	3.89391E-001	4.88312E-004	0.00000E+000	3.90800E-001	-6.29272E-004	10	...........	-0.07
	2760	0.41415	3.95691E-001	4.86307E-004	0.00000E+000	3.97100E-001	-8.29272E-004	10	...........	-0.07
	2766	0.41505	4.01991E-001	4.88312E-004	0.00000E+000	4.03400E-001	-8.29272E-004	10	...........	-0.07
	2772	0.41595	4.08491E-001	4.81294E-004	0.00000E+000	4.09700E-001	-7.29272E-004	10	...........	-0.07
	2778	0.41685	4.14791E-001	4.82296E-004	0.00000E+000	4.16000E-001	-8.29272E-004	10	...........	-0.07
	2784	0.41775	4.21091E-001	4.79288E-004	0.00000E+000	4.22300E-001	-7.29272E-004	10	...........	-0.07
	2790	0.41865	4.27391E-001	4.82296E-004	0.00000E+000	4.28600E-001	-8.29272E-004	10	...........	-0.07
	2796	0.41955	4.33791E-001	4.81294E-004	0.00000E+000	4.34900E-001	-8.29272E-004	10	...........	-0.07
	2802	0.42045	4.39891E-001	4.77283E-004	0.00000E+000	4.41200E-001	-8.29272E-004	10	...........	-0.07
	2808	0.42135	4.46191E-001	4.80291E-004	0.00000E+000	4.47500E-001	-7.29272E-004	10	...........	-0.07
	2814	0.42225	4.52791E-001	4.75278E-004	0.00000E+000	4.53800E-001	-8.29272E-004	10	...........	-0.07
	2820	0.42315	4.58691E-001	4.73273E-004	0.00000E+000	4.60100E-001	-9.29272E-004	10	...........	-0.07
	2826	0.42405	4.64991E-001	4.75278E-004	0.00000E+000	4.66400E-001	-6.29272E-004	10	...........	-0.07
	2832	0.42495	4.71291E-001	4.71268E-004	0.00000E+000	4.72700E-001	-8.29272E-004	10	...........	-0.07
	2838	0.42585	4.77491E-001	4.68260E-004	0.00000E+000	4.79000E-001	-7.29272E-004	10	...........	-0.07
	2844	0.42675	4.83891E-001	4.70265E-004	0.00000E+000	4.85300E-001	-7.29272E-004	10	...........	-0.07
	2850	0.42765	4.90191E-001	4.68260E-004	0.00000E+000	4.91600E-001	-7.29272E-004	10	...........	-0.07
	2856	0.42855	4.96491E-001	4.61242E-004	0.00000E+000	4.97900E-001	-9.29272E-004	10	...........	-0.07
	2858	0.42885	4.98591E-001	4.60239E-004	0.00000E+000	5.00000E-001	-9.29272E-004	10	...........	-0.07
CURVE2	TABLE
	Pt	T	Vf	Im	Vu	Sig	Ach	IERange	Over	Temp
	#	s	V vs. Ref.	A	V	V	V	#	bits	deg C
	2859	0.429	4.98691E-001	4.13117E-004	0.00000E+000	5.00000E-001	-8.29272E-004	10	...........	-0.07