File: data/02-SI/Figures_S9_S11_RDE/14btmapaq-rde/1mkcl-5mmolar14btmapaq-nitrogen-800mvpers.DTA
EXPLAIN
TAG	CV
TITLE	LABEL	Cyclic Voltammetry	Test &Identifier
DATE	LABEL	1/31/2023	Date
TIME	LABEL	14:03:57	Time
NOTES	NOTES	1	&Notes...

PSTAT	PSTAT	REF3000-21108	Potentiostat
VINIT	POTEN	5.00000E-001	F	Initial &E (V)
VLIMIT1	POTEN	-1.00000E+000	F	Scan Limit &1 (V)
VLIMIT2	POTEN	5.00000E-001	F	Scan Limit &2 (V)
VFINAL	POTEN	5.00000E-001	F	Final &E (V)
SCANRATE	QUANT	7.99998E+002	&Scan Rate (mV/s)
STEPSIZE	QUANT	1.00000E+000	St&ep Size (mV)
CYCLES	IQUANT	1	C&ycles (#)
IMODE	SELECTOR	1	I/E Range &Mode
IRANGE	QUANT	1.00000E+001	&Max Current (mA)
AREA	QUANT	1.00000E+000	Electrode &Area (cm^2)
ELECTRODETYPE	SELECTOR	0	Electrode Type
STRIPPING	TOGGLE	F	Used for Stripping
POLARITY	TOGGLE	F	Signal Polarity
CONDIT	TWOPARAM	F	1.50000E+001	0.00000E+000	Conditionin&g	Time(s)	E(V)
DELAY	TWOPARAM	F	5.00000E+000	0.00000E+000	Init. De&lay	Time(s)	Stab.(mV/s)
EQDELAY	QUANT	0.00000E+000	Equil. &Time (s)
IRCOMP	SELECTOR	0	IRCom&p
PFCOR	QUANT	5.00000E+001	PF Corr. (ohm)
SAMPLINGMODE	SELECTOR	1	Sampling &Mode
EOC	QUANT	0	Open Circuit (V)
PSTATMODEL	IQUANT	5	Pstat Model
PSTATSECTION	LABEL	REF3000-21108	Pstat Section
PSTATSERIALNO	LABEL	21108	Pstat Serial Number
CTRLMODE	IQUANT	1	Control Mode
ELECTROMETER	IQUANT	0	RE=0 or CS=1
IESTAB	IQUANT	2	I/E Stability
CASPEED	IQUANT	4	Control Amp Speed
CONVENTION	IQUANT	1	Current Convention
ICHRANGE	IQUANT	2	Ich Range
ICHRANGEMODE	TOGGLE	F	Ich Auto Range
ICHOFFSETENABLE	TOGGLE	F	Ich Offset Enable
ICHOFFSET	QUANT	0	Ich Offset (V)
ICHFILTER	IQUANT	1	Ich Filter
VCHRANGE	IQUANT	2	Vch Range
VCHRANGEMODE	TOGGLE	F	Vch Auto Range
VCHOFFSETENABLE	TOGGLE	F	Vch Offset Enable
VCHOFFSET	QUANT	0	Vch Offset (V)
VCHFILTER	IQUANT	1	Vch Filter
ACHRANGE	IQUANT	2	Ach Range
ACHOFFSETENABLE	TOGGLE	F	Ach Offset Enable
ACHOFFSET	QUANT	0	Ach Offset (V)
ACHFILTER	IQUANT	0	Ach Filter
IERANGELOWERLIMIT	IQUANT	2	I/E Range Lower Limit
IERANGEMODE	TOGGLE	F	I/E AutoRange
IERANGE	IQUANT	10	I/E Range
POSFEEDENABLE	TOGGLE	F	Positive Feedback IR Comp
POSFEEDRESISTANCE	QUANT	0	Positive Feedback Resistance (ohm)
ACHSELECT	IQUANT	0	Ach Select
SENSECABLEID	IQUANT	14	Sense Cable ID
PWRCABLEID	IQUANT	7	Power Cable ID
DCCALDATE	LABEL	11/9/2022	DC Calibration Date
ACCALDATE	LABEL	11/9/2022	AC Calibration Date
THERMOSELECT	IQUANT	1	Thermo Select
FRAMEWORKVERSION	LABEL	7.8.2	Framework Version
INSTRUMENTVERSION	LABEL	4.40	Instrument Version
COMPLIANCEVOLTAGE	IQUANT	0	Compliance Voltage
CURVE1	TABLE
	Pt	T	Vf	Im	Vu	Sig	Ach	IERange	Over	Temp
	#	s	V vs. Ref.	A	V	V	V	#	bits	deg C
	0	0.00125	4.98738E-001	9.06830E-005	0.00000E+000	5.00000E-001	-8.91772E-004	10	..........a	-327.74
	7	0.01	4.91744E-001	7.71814E-005	0.00000E+000	4.93000E-001	-8.54272E-004	10	..........a	-327.74
	14	0.01875	4.84738E-001	6.85591E-005	0.00000E+000	4.86000E-001	-8.54272E-004	10	..........a	-327.74
	21	0.0275	4.77778E-001	6.06720E-005	0.00000E+000	4.79000E-001	-8.66772E-004	10	..........a	-327.74
	28	0.03625	4.70724E-001	5.65948E-005	0.00000E+000	4.72000E-001	-9.41772E-004	10	..........a	-327.74
	35	0.045	4.63711E-001	5.21834E-005	0.00000E+000	4.65000E-001	-8.54272E-004	10	..........a	-327.74
	42	0.05375	4.56738E-001	4.87746E-005	0.00000E+000	4.58000E-001	-8.66772E-004	10	..........a	-327.74
	49	0.0625	4.49671E-001	4.35611E-005	0.00000E+000	4.51000E-001	-9.29272E-004	10	..........a	-327.74
	56	0.07125	4.42744E-001	4.27590E-005	0.00000E+000	4.44000E-001	-8.79272E-004	10	..........a	-327.74
	63	0.08	4.35811E-001	4.00186E-005	0.00000E+000	4.37000E-001	-8.91772E-004	10	..........a	-327.74
	70	0.08875	4.28764E-001	3.94170E-005	0.00000E+000	4.30000E-001	-8.66772E-004	10	..........a	-327.74
	77	0.0975	4.21758E-001	3.58745E-005	0.00000E+000	4.23000E-001	-8.66772E-004	10	..........a	-327.74
	84	0.10625	4.14771E-001	3.41367E-005	0.00000E+000	4.16000E-001	-9.29272E-004	10	..........a	-327.74
	91	0.115	4.07778E-001	3.39362E-005	0.00000E+000	4.09000E-001	-9.04272E-004	10	..........a	-327.74
	98	0.12375	4.00671E-001	3.09952E-005	0.00000E+000	4.02000E-001	-8.79272E-004	10	..........a	-327.74
	105	0.1325	3.93751E-001	3.16636E-005	0.00000E+000	3.95000E-001	-9.29272E-004	10	..........a	-327.74
	112	0.14125	3.86784E-001	2.76532E-005	0.00000E+000	3.88000E-001	-8.66772E-004	10	..........a	-327.74
	119	0.15	3.79771E-001	2.71185E-005	0.00000E+000	3.81000E-001	-9.41772E-004	10	..........a	-327.74
	126	0.15875	3.72731E-001	2.73190E-005	0.00000E+000	3.74000E-001	-9.04272E-004	10	..........a	-327.74
	133	0.1675	3.65831E-001	2.48460E-005	0.00000E+000	3.67000E-001	-9.04272E-004	10	..........a	-327.74
	140	0.17625	3.58778E-001	2.38434E-005	0.00000E+000	3.60000E-001	-8.79272E-004	10	..........a	-327.74
	147	0.185	3.51744E-001	2.22392E-005	0.00000E+000	3.53000E-001	-9.41772E-004	10	..........a	-327.74
	154	0.19375	3.44818E-001	2.27071E-005	0.00000E+000	3.46000E-001	-9.29272E-004	10	..........a	-327.74
	161	0.2025	3.37798E-001	2.09693E-005	0.00000E+000	3.39000E-001	-9.04272E-004	10	..........a	-327.74
	168	0.21125	3.30818E-001	2.05682E-005	0.00000E+000	3.32000E-001	-9.41772E-004	10	..........a	-327.74
	175	0.22	3.23791E-001	1.85631E-005	0.00000E+000	3.25000E-001	-8.91772E-004	10	..........a	-327.74
	182	0.22875	3.16824E-001	1.78278E-005	0.00000E+000	3.18000E-001	-8.79272E-004	10	..........a	-327.74
	189	0.2375	3.09818E-001	1.74268E-005	0.00000E+000	3.11000E-001	-8.91772E-004	10	..........a	-327.74
	196	0.24625	3.02791E-001	1.58226E-005	0.00000E+000	3.04000E-001	-9.16772E-004	10	..........a	-327.74
	203	0.255	2.95764E-001	1.56890E-005	0.00000E+000	2.97000E-001	-9.79272E-004	10	..........a	-327.74
	210	0.26375	2.88784E-001	1.54884E-005	0.00000E+000	2.90000E-001	-9.16772E-004	10	..........a	-327.74
	217	0.2725	2.81884E-001	1.40848E-005	0.00000E+000	2.83000E-001	-9.16772E-004	10	..........a	-327.74
	224	0.28125	2.74838E-001	1.28149E-005	0.00000E+000	2.76000E-001	-9.41772E-004	10	..........a	-327.74
	231	0.29	2.67778E-001	1.36838E-005	0.00000E+000	2.69000E-001	-9.29272E-004	10	..........a	-327.74
	238	0.29875	2.60831E-001	1.28149E-005	0.00000E+000	2.62000E-001	-9.29272E-004	10	..........a	-327.74
	245	0.3075	2.53884E-001	1.17454E-005	0.00000E+000	2.55000E-001	-8.66772E-004	10	..........a	-327.74
	252	0.31625	2.46831E-001	1.17454E-005	0.00000E+000	2.48000E-001	-9.41772E-004	10	..........a	-327.74
	259	0.325	2.39804E-001	1.11439E-005	0.00000E+000	2.41000E-001	-8.79272E-004	10	..........a	-327.74
	266	0.33375	2.32831E-001	1.01413E-005	0.00000E+000	2.34000E-001	-9.29272E-004	10	..........a	-327.74
	273	0.3425	2.25904E-001	9.87391E-006	0.00000E+000	2.27000E-001	-9.16772E-004	10	..........a	-327.74
	280	0.35125	2.18864E-001	9.13868E-006	0.00000E+000	2.20000E-001	-8.91772E-004	10	..........a	-327.74
	287	0.36	2.11831E-001	7.73505E-006	0.00000E+000	2.13000E-001	-8.29272E-004	10	..........a	-327.74
	294	0.36875	2.04891E-001	8.26976E-006	0.00000E+000	2.06000E-001	-8.91772E-004	10	..........a	-327.74
	301	0.3775	1.97964E-001	7.33401E-006	0.00000E+000	1.99000E-001	-9.16772E-004	10	..........a	-327.74
	308	0.38625	1.90871E-001	8.00240E-006	0.00000E+000	1.92000E-001	-8.91772E-004	10	..........a	-327.74
	315	0.395	1.83871E-001	6.73245E-006	0.00000E+000	1.85000E-001	-9.41772E-004	10	..........a	-327.74
	322	0.40375	1.76984E-001	6.33142E-006	0.00000E+000	1.78000E-001	-8.04272E-004	10	..........a	-327.74
	329	0.4125	1.69798E-001	6.79929E-006	0.00000E+000	1.71000E-001	-8.41772E-004	10	..........a	-327.74
	336	0.42125	1.62871E-001	6.26457E-006	0.00000E+000	1.64000E-001	-8.91772E-004	10	..........a	-327.74
	343	0.43	1.55911E-001	5.79670E-006	0.00000E+000	1.57000E-001	-9.04272E-004	10	..........a	-327.74
	350	0.43875	1.48844E-001	5.32882E-006	0.00000E+000	1.50000E-001	-9.16772E-004	10	..........a	-327.74
	357	0.4475	1.41898E-001	4.52675E-006	0.00000E+000	1.43000E-001	-9.04272E-004	10	..........a	-327.74
	364	0.45625	1.34898E-001	4.05887E-006	0.00000E+000	1.36000E-001	-9.04272E-004	10	..........a	-327.74
	371	0.465	1.27891E-001	4.25939E-006	0.00000E+000	1.29000E-001	-9.04272E-004	10	..........a	-327.74
	378	0.47375	1.21024E-001	2.72208E-006	0.00000E+000	1.22000E-001	-9.66772E-004	10	..........a	-327.74
	385	0.4825	1.13904E-001	2.18736E-006	0.00000E+000	1.15000E-001	-8.54272E-004	10	..........a	-327.74
	392	0.49125	1.06911E-001	2.25420E-006	0.00000E+000	1.08000E-001	-8.91772E-004	10	..........a	-327.74
	399	0.5	9.98977E-002	6.50048E-007	0.00000E+000	1.01000E-001	-9.79272E-004	10	..........a	-327.74
	406	0.50875	9.28377E-002	4.49530E-007	0.00000E+000	9.40000E-002	-9.16772E-004	10	..........a	-327.74
	413	0.5175	8.59177E-002	5.16369E-007	0.00000E+000	8.70000E-002	-8.66772E-004	10	..........a	-327.74
	420	0.52625	7.89310E-002	-8.20423E-007	0.00000E+000	8.00000E-002	-8.41772E-004	10	..........a	-327.74
	427	0.535	7.19377E-002	-1.48882E-006	0.00000E+000	7.30000E-002	-8.29272E-004	10	..........a	-327.74
	434	0.54375	6.49510E-002	-1.22146E-006	0.00000E+000	6.60000E-002	-9.66772E-004	10	..........a	-327.74
	441	0.5525	5.78977E-002	-1.95670E-006	0.00000E+000	5.90000E-002	-8.79272E-004	10	..........a	-327.74
	448	0.56125	5.09510E-002	-3.22665E-006	0.00000E+000	5.20000E-002	-8.54272E-004	10	..........a	-327.74
	455	0.57	4.38577E-002	-3.49401E-006	0.00000E+000	4.50000E-002	-9.04272E-004	10	..........a	-327.74
	462	0.57875	3.69910E-002	-2.75877E-006	0.00000E+000	3.80000E-002	-8.91772E-004	10	..........a	-327.74
	469	0.5875	2.99243E-002	-3.49401E-006	0.00000E+000	3.10000E-002	-8.91772E-004	10	..........a	-327.74
	476	0.59625	2.29243E-002	-2.89245E-006	0.00000E+000	2.40000E-002	-8.91772E-004	10	..........a	-327.74
	483	0.605	1.58710E-002	-5.23184E-006	0.00000E+000	1.70000E-002	-8.91772E-004	10	..........a	-327.74
	490	0.61375	8.97100E-003	-6.36811E-006	0.00000E+000	9.99999E-003	-8.29272E-004	10	..........a	-327.74
	497	0.6225	1.94434E-003	-5.36552E-006	0.00000E+000	2.99999E-003	-9.16772E-004	10	..........a	-327.74
	504	0.63125	-5.06233E-003	-5.83339E-006	0.00000E+000	-4.00001E-003	-8.91772E-004	10	..........a	-327.74
	511	0.64	-1.21223E-002	-6.56863E-006	0.00000E+000	-1.10000E-002	-8.41772E-004	10	..........a	-327.74
	518	0.64875	-1.91157E-002	-6.70231E-006	0.00000E+000	-1.80000E-002	-8.79272E-004	10	..........a	-327.74
	525	0.6575	-2.60223E-002	-7.10335E-006	0.00000E+000	-2.50000E-002	-8.29272E-004	10	..........a	-327.74
	532	0.66625	-3.30957E-002	-7.37070E-006	0.00000E+000	-3.20000E-002	-8.41772E-004	10	..........a	-327.74
	539	0.675	-4.00623E-002	-7.77174E-006	0.00000E+000	-3.90000E-002	-8.54272E-004	10	..........a	-327.74
	546	0.68375	-4.70290E-002	-7.83858E-006	0.00000E+000	-4.60000E-002	-8.79272E-004	10	..........a	-327.74
	553	0.6925	-5.40223E-002	-7.90542E-006	0.00000E+000	-5.30000E-002	-8.54272E-004	10	..........a	-327.74
	560	0.70125	-6.11290E-002	-9.84377E-006	0.00000E+000	-6.00000E-002	-9.04272E-004	10	..........a	-327.74
	567	0.71	-6.80823E-002	-8.90801E-006	0.00000E+000	-6.70000E-002	-8.91772E-004	10	..........a	-327.74
	574	0.71875	-7.51357E-002	-8.17278E-006	0.00000E+000	-7.40000E-002	-8.91772E-004	10	..........a	-327.74
	581	0.7275	-8.20290E-002	-8.10594E-006	0.00000E+000	-8.10000E-002	-8.54272E-004	10	..........a	-327.74
	588	0.73625	-8.90423E-002	-9.97745E-006	0.00000E+000	-8.80000E-002	-8.91772E-004	10	..........a	-327.74
	595	0.745	-9.60623E-002	-9.97745E-006	0.00000E+000	-9.50000E-002	-8.54272E-004	10	..........a	-327.74
	602	0.75375	-1.02982E-001	-9.24221E-006	0.00000E+000	-1.02000E-001	-8.66772E-004	10	..........a	-327.74
	609	0.7625	-1.10016E-001	-1.04453E-005	0.00000E+000	-1.09000E-001	-8.79272E-004	10	..........a	-327.74
	616	0.77125	-1.17062E-001	-1.09132E-005	0.00000E+000	-1.16000E-001	-8.29272E-004	10	..........a	-327.74
	623	0.78	-1.24062E-001	-1.04453E-005	0.00000E+000	-1.23000E-001	-9.16772E-004	10	..........a	-327.74
	630	0.78875	-1.31082E-001	-1.14479E-005	0.00000E+000	-1.30000E-001	-8.29272E-004	10	..........a	-327.74
	637	0.7975	-1.38042E-001	-1.05122E-005	0.00000E+000	-1.37000E-001	-9.16772E-004	10	..........a	-327.74
	644	0.80625	-1.45089E-001	-1.21163E-005	0.00000E+000	-1.44000E-001	-7.91772E-004	10	..........a	-327.74
	651	0.815	-1.52036E-001	-1.15816E-005	0.00000E+000	-1.51000E-001	-8.41772E-004	10	..........a	-327.74
	658	0.82375	-1.59009E-001	-1.26510E-005	0.00000E+000	-1.58000E-001	-8.91772E-004	10	..........a	-327.74
	665	0.8325	-1.66036E-001	-1.25174E-005	0.00000E+000	-1.65000E-001	-8.66772E-004	10	..........a	-327.74
	672	0.84125	-1.73029E-001	-1.25174E-005	0.00000E+000	-1.72000E-001	-8.29272E-004	10	..........a	-327.74
	679	0.85	-1.80022E-001	-1.31857E-005	0.00000E+000	-1.79000E-001	-8.41772E-004	10	..........a	-327.74
	686	0.85875	-1.87049E-001	-1.15816E-005	0.00000E+000	-1.86000E-001	-9.16772E-004	10	..........a	-327.74
	693	0.8675	-1.94009E-001	-1.19158E-005	0.00000E+000	-1.93000E-001	-9.29272E-004	10	..........a	-327.74
	700	0.87625	-2.00996E-001	-1.24505E-005	0.00000E+000	-2.00000E-001	-8.66772E-004	10	..........a	-327.74
	707	0.885	-2.07989E-001	-1.43220E-005	0.00000E+000	-2.07000E-001	-8.91772E-004	10	..........a	-327.74
	714	0.89375	-2.14889E-001	-1.35868E-005	0.00000E+000	-2.14000E-001	-8.16772E-004	10	..........a	-327.74
	721	0.9025	-2.21996E-001	-1.31857E-005	0.00000E+000	-2.21000E-001	-8.29272E-004	10	..........a	-327.74
	728	0.91125	-2.29056E-001	-1.50573E-005	0.00000E+000	-2.28000E-001	-8.66772E-004	10	..........a	-327.74
	735	0.92	-2.35989E-001	-1.49904E-005	0.00000E+000	-2.35000E-001	-8.79272E-004	10	..........a	-327.74
	742	0.92875	-2.42936E-001	-1.57257E-005	0.00000E+000	-2.42000E-001	-8.66772E-004	10	..........a	-327.74
	749	0.9375	-2.50022E-001	-1.71961E-005	0.00000E+000	-2.49000E-001	-9.16772E-004	10	..........a	-327.74
	756	0.94625	-2.56982E-001	-1.66614E-005	0.00000E+000	-2.56000E-001	-9.29272E-004	10	..........a	-327.74
	763	0.955	-2.64036E-001	-1.84661E-005	0.00000E+000	-2.63000E-001	-8.91772E-004	10	..........a	-327.74
	770	0.96375	-2.70989E-001	-1.74635E-005	0.00000E+000	-2.70000E-001	-8.66772E-004	10	..........a	-327.74
	777	0.9725	-2.77989E-001	-2.00702E-005	0.00000E+000	-2.77000E-001	-8.66772E-004	10	..........a	-327.74
	784	0.98125	-2.85022E-001	-2.07386E-005	0.00000E+000	-2.84000E-001	-8.29272E-004	10	..........a	-327.74
	791	0.99	-2.92016E-001	-2.02039E-005	0.00000E+000	-2.91000E-001	-9.16772E-004	10	..........a	-327.74
	798	0.99875	-2.98949E-001	-2.29443E-005	0.00000E+000	-2.98000E-001	-8.54272E-004	10	..........a	-327.74
	805	1.0075	-3.05949E-001	-2.26770E-005	0.00000E+000	-3.05000E-001	-8.41772E-004	10	..........a	-327.74
	812	1.01625	-3.12969E-001	-2.33454E-005	0.00000E+000	-3.12000E-001	-8.79272E-004	10	..........a	-327.74
	819	1.025	-3.20002E-001	-2.44816E-005	0.00000E+000	-3.19000E-001	-9.04272E-004	10	..........a	-327.74
	826	1.03375	-3.26956E-001	-2.55511E-005	0.00000E+000	-3.26000E-001	-8.91772E-004	10	..........a	-327.74
	833	1.0425	-3.33976E-001	-2.70884E-005	0.00000E+000	-3.33000E-001	-9.04272E-004	10	..........a	-327.74
	840	1.05125	-3.40896E-001	-2.85589E-005	0.00000E+000	-3.40000E-001	-8.66772E-004	10	..........a	-327.74
	847	1.06	-3.47922E-001	-2.97620E-005	0.00000E+000	-3.47000E-001	-9.29272E-004	10	..........a	-327.74
	854	1.06875	-3.54929E-001	-3.12993E-005	0.00000E+000	-3.54000E-001	-8.91772E-004	10	..........a	-327.74
	861	1.0775	-3.61982E-001	-3.31039E-005	0.00000E+000	-3.61000E-001	-8.04272E-004	10	..........a	-327.74
	868	1.08625	-3.69036E-001	-3.52428E-005	0.00000E+000	-3.68000E-001	-7.91772E-004	10	..........a	-327.74
	875	1.095	-3.75949E-001	-3.81838E-005	0.00000E+000	-3.75000E-001	-8.29272E-004	10	..........a	-327.74
	882	1.10375	-3.82902E-001	-4.02558E-005	0.00000E+000	-3.82000E-001	-8.66772E-004	10	..........a	-327.74
	889	1.1125	-3.89942E-001	-4.41325E-005	0.00000E+000	-3.89000E-001	-9.29272E-004	10	..........a	-327.74
	896	1.12125	-3.96962E-001	-4.84102E-005	0.00000E+000	-3.96000E-001	-8.79272E-004	10	..........a	-327.74
	903	1.13	-4.03922E-001	-5.25543E-005	0.00000E+000	-4.03000E-001	-8.91772E-004	10	..........a	-327.74
	910	1.13875	-4.10936E-001	-6.01071E-005	0.00000E+000	-4.10000E-001	-9.04272E-004	10	..........a	-327.74
	917	1.1475	-4.17976E-001	-6.91305E-005	0.00000E+000	-4.17000E-001	-8.66772E-004	10	..........a	-327.74
	924	1.15625	-4.24942E-001	-7.84212E-005	0.00000E+000	-4.24000E-001	-8.91772E-004	10	..........a	-327.74
	931	1.165	-4.31936E-001	-9.05860E-005	0.00000E+000	-4.31000E-001	-8.41772E-004	10	..........a	-327.74
	938	1.17375	-4.38869E-001	-1.05692E-004	0.00000E+000	-4.38000E-001	-8.04272E-004	10	..........a	-327.74
	945	1.1825	-4.45942E-001	-1.21934E-004	0.00000E+000	-4.45000E-001	-9.16772E-004	10	..........a	-327.74
	952	1.19125	-4.52916E-001	-1.43723E-004	0.00000E+000	-4.52000E-001	-8.79272E-004	10	..........a	-327.74
	959	1.2	-4.59909E-001	-1.64778E-004	0.00000E+000	-4.59000E-001	-8.54272E-004	10	..........a	-327.74
	966	1.20875	-4.66909E-001	-1.87838E-004	0.00000E+000	-4.66000E-001	-9.04272E-004	10	..........a	-327.74
	973	1.2175	-4.73882E-001	-2.14707E-004	0.00000E+000	-4.73000E-001	-8.91772E-004	10	..........a	-327.74
	980	1.22625	-4.80942E-001	-2.42646E-004	0.00000E+000	-4.80000E-001	-8.91772E-004	10	..........a	-327.74
	987	1.235	-4.87936E-001	-2.72323E-004	0.00000E+000	-4.87000E-001	-8.41772E-004	10	..........a	-327.74
	994	1.24375	-4.94956E-001	-3.04941E-004	0.00000E+000	-4.94000E-001	-8.16772E-004	10	..........a	-327.74
	1001	1.2525	-5.01922E-001	-3.40833E-004	0.00000E+000	-5.01000E-001	-8.54272E-004	10	..........a	-327.74
	1008	1.26125	-5.08902E-001	-3.79534E-004	0.00000E+000	-5.08000E-001	-8.29272E-004	10	..........a	-327.74
	1015	1.27	-5.15816E-001	-4.24116E-004	0.00000E+000	-5.15000E-001	-8.16772E-004	10	..........a	-327.74
	1022	1.27875	-5.22862E-001	-4.71639E-004	0.00000E+000	-5.22000E-001	-8.91772E-004	10	..........a	-327.74
	1029	1.2875	-5.29889E-001	-5.24642E-004	0.00000E+000	-5.29000E-001	-8.79272E-004	10	..........a	-327.74
	1036	1.29625	-5.36876E-001	-5.80721E-004	0.00000E+000	-5.36000E-001	-8.91772E-004	10	..........a	-327.74
	1043	1.305	-5.43916E-001	-6.39874E-004	0.00000E+000	-5.43000E-001	-9.29272E-004	10	..........a	-327.74
	1050	1.31375	-5.50862E-001	-6.99695E-004	0.00000E+000	-5.50000E-001	-8.79272E-004	10	..........a	-327.74
	1057	1.3225	-5.57882E-001	-7.52164E-004	0.00000E+000	-5.57000E-001	-8.66772E-004	10	..........a	-327.74
	1064	1.33125	-5.64869E-001	-8.02762E-004	0.00000E+000	-5.64000E-001	-8.79272E-004	10	..........a	-327.74
	1071	1.34	-5.71909E-001	-8.41529E-004	0.00000E+000	-5.71000E-001	-8.66772E-004	10	..........a	-327.74
	1078	1.34875	-5.78856E-001	-8.64522E-004	0.00000E+000	-5.78000E-001	-8.91772E-004	10	..........a	-327.74
	1085	1.3575	-5.85936E-001	-8.74147E-004	0.00000E+000	-5.85000E-001	-8.79272E-004	10	..........a	-327.74
	1092	1.36625	-5.92862E-001	-8.67262E-004	0.00000E+000	-5.92000E-001	-8.41772E-004	10	..........a	-327.74
	1099	1.375	-5.99896E-001	-8.48012E-004	0.00000E+000	-5.99000E-001	-8.79272E-004	10	..........a	-327.74
	1106	1.38375	-6.06856E-001	-8.16932E-004	0.00000E+000	-6.06000E-001	-8.91772E-004	10	..........a	-327.74
	1113	1.3925	-6.13896E-001	-7.81106E-004	0.00000E+000	-6.13000E-001	-8.54272E-004	10	..........a	-327.74
	1120	1.40125	-6.20842E-001	-7.46282E-004	0.00000E+000	-6.20000E-001	-8.66772E-004	10	..........a	-327.74
	1127	1.41	-6.27836E-001	-7.10991E-004	0.00000E+000	-6.27000E-001	-8.91772E-004	10	..........a	-327.74
	1134	1.41875	-6.34809E-001	-6.78908E-004	0.00000E+000	-6.34000E-001	-8.54272E-004	10	..........a	-327.74
	1141	1.4275	-6.41789E-001	-6.50100E-004	0.00000E+000	-6.41000E-001	-8.41772E-004	10	..........a	-327.74
	1148	1.43625	-6.48869E-001	-6.26506E-004	0.00000E+000	-6.48000E-001	-8.66772E-004	10	..........a	-327.74
	1155	1.445	-6.55869E-001	-6.03647E-004	0.00000E+000	-6.55000E-001	-8.41772E-004	10	..........a	-327.74
	1162	1.45375	-6.62822E-001	-5.83795E-004	0.00000E+000	-6.62000E-001	-8.91772E-004	10	..........a	-327.74
	1169	1.4625	-6.69822E-001	-5.67620E-004	0.00000E+000	-6.69000E-001	-8.41772E-004	10	..........a	-327.74
	1176	1.47125	-6.76829E-001	-5.51311E-004	0.00000E+000	-6.76000E-001	-9.04272E-004	10	..........a	-327.74
	1183	1.48	-6.83802E-001	-5.35337E-004	0.00000E+000	-6.83000E-001	-7.91772E-004	10	..........a	-327.74
	1190	1.48875	-6.90842E-001	-5.21701E-004	0.00000E+000	-6.90000E-001	-8.91772E-004	10	..........a	-327.74
	1197	1.4975	-6.97822E-001	-5.06796E-004	0.00000E+000	-6.97000E-001	-8.04272E-004	10	..........a	-327.74
	1204	1.50625	-7.04749E-001	-4.94364E-004	0.00000E+000	-7.04000E-001	-9.16772E-004	10	..........a	-327.74
	1211	1.515	-7.11796E-001	-4.81999E-004	0.00000E+000	-7.11000E-001	-9.29272E-004	10	..........a	-327.74
	1218	1.52375	-7.18782E-001	-4.70235E-004	0.00000E+000	-7.18000E-001	-8.91772E-004	10	..........a	-327.74
	1225	1.5325	-7.25842E-001	-4.60476E-004	0.00000E+000	-7.25000E-001	-8.29272E-004	10	..........a	-327.74
	1232	1.54125	-7.32802E-001	-4.48044E-004	0.00000E+000	-7.32000E-001	-9.16772E-004	10	..........a	-327.74
	1239	1.55	-7.39762E-001	-4.40224E-004	0.00000E+000	-7.39000E-001	-8.66772E-004	10	..........a	-327.74
	1246	1.55875	-7.46796E-001	-4.29797E-004	0.00000E+000	-7.46000E-001	-8.91772E-004	10	..........a	-327.74
	1253	1.5675	-7.53789E-001	-4.21843E-004	0.00000E+000	-7.53000E-001	-8.54272E-004	10	..........a	-327.74
	1260	1.57625	-7.60769E-001	-4.13822E-004	0.00000E+000	-7.60000E-001	-8.91772E-004	10	..........a	-327.74
	1267	1.585	-7.67789E-001	-4.05133E-004	0.00000E+000	-7.67000E-001	-9.29272E-004	10	..........a	-327.74
	1274	1.59375	-7.74756E-001	-3.97380E-004	0.00000E+000	-7.74000E-001	-8.41772E-004	10	..........a	-327.74
	1281	1.6025	-7.81842E-001	-3.89359E-004	0.00000E+000	-7.81000E-001	-8.79272E-004	10	..........a	-327.74
	1288	1.61125	-7.88782E-001	-3.84279E-004	0.00000E+000	-7.88000E-001	-9.04272E-004	10	..........a	-327.74
	1295	1.62	-7.95729E-001	-3.78197E-004	0.00000E+000	-7.95000E-001	-8.79272E-004	10	..........a	-327.74
	1302	1.62875	-8.02816E-001	-3.70042E-004	0.00000E+000	-8.02000E-001	-9.16772E-004	10	..........a	-327.74
	1309	1.6375	-8.09782E-001	-3.64896E-004	0.00000E+000	-8.09000E-001	-8.91772E-004	10	..........a	-327.74
	1316	1.64625	-8.16742E-001	-3.59214E-004	0.00000E+000	-8.16000E-001	-9.04272E-004	10	..........a	-327.74
	1323	1.655	-8.23716E-001	-3.52798E-004	0.00000E+000	-8.23000E-001	-8.41772E-004	10	..........a	-327.74
	1330	1.66375	-8.30736E-001	-3.49523E-004	0.00000E+000	-8.30000E-001	-8.91772E-004	10	..........a	-327.74
	1337	1.6725	-8.37722E-001	-3.43774E-004	0.00000E+000	-8.37000E-001	-7.66772E-004	10	..........a	-327.74
	1344	1.68125	-8.44776E-001	-3.39697E-004	0.00000E+000	-8.44000E-001	-8.16772E-004	10	..........a	-327.74
	1351	1.69	-8.51656E-001	-3.34551E-004	0.00000E+000	-8.51000E-001	-8.16772E-004	10	..........a	-327.74
	1358	1.69875	-8.58702E-001	-3.30273E-004	0.00000E+000	-8.58000E-001	-8.79272E-004	10	..........a	-327.74
	1365	1.7075	-8.65729E-001	-3.27599E-004	0.00000E+000	-8.65000E-001	-8.41772E-004	10	..........a	-327.74
	1372	1.71625	-8.72689E-001	-3.22052E-004	0.00000E+000	-8.72000E-001	-8.91772E-004	10	..........a	-327.74
	1379	1.725	-8.79702E-001	-3.18375E-004	0.00000E+000	-8.79000E-001	-8.91772E-004	10	..........a	-327.74
	1386	1.73375	-8.86702E-001	-3.13496E-004	0.00000E+000	-8.86000E-001	-8.41772E-004	10	..........a	-327.74
	1393	1.7425	-8.93682E-001	-3.11491E-004	0.00000E+000	-8.93000E-001	-9.16772E-004	10	..........a	-327.74
	1400	1.75125	-9.00702E-001	-3.08349E-004	0.00000E+000	-9.00000E-001	-8.54272E-004	10	..........a	-327.74
	1407	1.76	-9.07682E-001	-3.04874E-004	0.00000E+000	-9.07000E-001	-9.04272E-004	10	..........a	-327.74
	1414	1.76875	-9.14689E-001	-3.02000E-004	0.00000E+000	-9.14000E-001	-8.91772E-004	10	..........a	-327.74
	1421	1.7775	-9.21696E-001	-2.99192E-004	0.00000E+000	-9.21000E-001	-8.54272E-004	10	..........a	-327.74
	1428	1.78625	-9.28702E-001	-2.95583E-004	0.00000E+000	-9.28000E-001	-8.41772E-004	10	..........a	-327.74
	1435	1.795	-9.35656E-001	-2.92909E-004	0.00000E+000	-9.35000E-001	-8.79272E-004	10	..........a	-327.74
	1442	1.80375	-9.42682E-001	-2.91439E-004	0.00000E+000	-9.42000E-001	-8.66772E-004	10	..........a	-327.74
	1449	1.8125	-9.49636E-001	-2.86961E-004	0.00000E+000	-9.49000E-001	-8.41772E-004	10	..........a	-327.74
	1456	1.82125	-9.56729E-001	-2.86025E-004	0.00000E+000	-9.56000E-001	-8.66772E-004	10	..........a	-327.74
	1463	1.83	-9.63662E-001	-2.83084E-004	0.00000E+000	-9.63000E-001	-9.41772E-004	10	..........a	-327.74
	1470	1.83875	-9.70662E-001	-2.80945E-004	0.00000E+000	-9.70000E-001	-8.54272E-004	10	..........a	-327.74
	1477	1.8475	-9.77676E-001	-2.79007E-004	0.00000E+000	-9.77000E-001	-8.91772E-004	10	..........a	-327.74
	1484	1.85625	-9.84616E-001	-2.76400E-004	0.00000E+000	-9.84000E-001	-9.04272E-004	10	..........a	-327.74
	1491	1.865	-9.91682E-001	-2.74863E-004	0.00000E+000	-9.91000E-001	-8.79272E-004	10	..........a	-327.74
	1498	1.87375	-9.98669E-001	-2.73259E-004	0.00000E+000	-9.98000E-001	-8.66772E-004	10	..........a	-327.74
	1505	1.8825	-9.95609E-001	-2.54209E-004	0.00000E+000	-9.95000E-001	-8.54272E-004	10	..........a	-327.74
	1512	1.89125	-9.88702E-001	-2.45921E-004	0.00000E+000	-9.88000E-001	-8.16772E-004	10	..........a	-327.74
	1519	1.9	-9.81689E-001	-2.39371E-004	0.00000E+000	-9.81000E-001	-8.54272E-004	10	..........a	-327.74
	1526	1.90875	-9.74702E-001	-2.34625E-004	0.00000E+000	-9.74000E-001	-8.54272E-004	10	..........a	-327.74
	1533	1.9175	-9.67689E-001	-2.31283E-004	0.00000E+000	-9.67000E-001	-8.54272E-004	10	..........a	-327.74
	1540	1.92625	-9.60662E-001	-2.25936E-004	0.00000E+000	-9.60000E-001	-8.66772E-004	10	..........a	-327.74
	1547	1.935	-9.53762E-001	-2.24198E-004	0.00000E+000	-9.53000E-001	-8.79272E-004	10	..........a	-327.74
	1554	1.94375	-9.46696E-001	-2.19921E-004	0.00000E+000	-9.46000E-001	-8.54272E-004	10	..........a	-327.74
	1561	1.9525	-9.39662E-001	-2.16846E-004	0.00000E+000	-9.39000E-001	-8.66772E-004	10	..........a	-327.74
	1568	1.96125	-9.32756E-001	-2.15777E-004	0.00000E+000	-9.32000E-001	-8.79272E-004	10	..........a	-327.74
	1575	1.97	-9.25669E-001	-2.12368E-004	0.00000E+000	-9.25000E-001	-8.79272E-004	10	..........a	-327.74
	1582	1.97875	-9.18716E-001	-2.10028E-004	0.00000E+000	-9.18000E-001	-9.29272E-004	10	..........a	-327.74
	1589	1.9875	-9.11656E-001	-2.08491E-004	0.00000E+000	-9.11000E-001	-9.04272E-004	10	..........a	-327.74
	1596	1.99625	-9.04636E-001	-2.06553E-004	0.00000E+000	-9.04000E-001	-8.91772E-004	10	..........a	-327.74
	1603	2.005	-8.97689E-001	-2.05015E-004	0.00000E+000	-8.97000E-001	-8.41772E-004	10	..........a	-327.74
	1610	2.01375	-8.90716E-001	-2.02877E-004	0.00000E+000	-8.90000E-001	-8.79272E-004	10	..........a	-327.74
	1617	2.0225	-8.83709E-001	-2.01005E-004	0.00000E+000	-8.83000E-001	-8.66772E-004	10	..........a	-327.74
	1624	2.03125	-8.76749E-001	-1.98265E-004	0.00000E+000	-8.76000E-001	-9.04272E-004	10	..........a	-327.74
	1631	2.04	-8.69776E-001	-1.98465E-004	0.00000E+000	-8.69000E-001	-8.54272E-004	10	..........a	-327.74
	1638	2.04875	-8.62702E-001	-1.97262E-004	0.00000E+000	-8.62000E-001	-8.29272E-004	10	..........a	-327.74
	1645	2.0575	-8.55736E-001	-1.94054E-004	0.00000E+000	-8.55000E-001	-8.79272E-004	10	..........a	-327.74
	1652	2.06625	-8.48636E-001	-1.92049E-004	0.00000E+000	-8.48000E-001	-8.79272E-004	10	..........a	-327.74
	1659	2.075	-8.41702E-001	-1.90444E-004	0.00000E+000	-8.41000E-001	-8.79272E-004	10	..........a	-327.74
	1666	2.08375	-8.34669E-001	-1.89509E-004	0.00000E+000	-8.34000E-001	-8.29272E-004	10	..........a	-327.74
	1673	2.0925	-8.27676E-001	-1.88372E-004	0.00000E+000	-8.27000E-001	-8.91772E-004	10	..........a	-327.74
	1680	2.10125	-8.20729E-001	-1.88506E-004	0.00000E+000	-8.20000E-001	-8.29272E-004	10	..........a	-327.74
	1687	2.11	-8.13769E-001	-1.85565E-004	0.00000E+000	-8.13000E-001	-8.54272E-004	10	..........a	-327.74
	1694	2.11875	-8.06756E-001	-1.84095E-004	0.00000E+000	-8.06000E-001	-9.29272E-004	10	..........a	-327.74
	1701	2.1275	-7.99742E-001	-1.83025E-004	0.00000E+000	-7.99000E-001	-8.41772E-004	10	..........a	-327.74
	1708	2.13625	-7.92816E-001	-1.83025E-004	0.00000E+000	-7.92000E-001	-9.04272E-004	10	..........a	-327.74
	1715	2.145	-7.85782E-001	-1.78881E-004	0.00000E+000	-7.85000E-001	-8.91772E-004	10	..........a	-327.74
	1722	2.15375	-7.78802E-001	-1.79750E-004	0.00000E+000	-7.78000E-001	-8.66772E-004	10	..........a	-327.74
	1729	2.1625	-7.71722E-001	-1.77879E-004	0.00000E+000	-7.71000E-001	-8.91772E-004	10	..........a	-327.74
	1736	2.17125	-7.64796E-001	-1.75405E-004	0.00000E+000	-7.64000E-001	-8.66772E-004	10	..........a	-327.74
	1743	2.18	-7.57789E-001	-1.72665E-004	0.00000E+000	-7.57000E-001	-8.79272E-004	10	..........a	-327.74
	1750	2.18875	-7.50796E-001	-1.72665E-004	0.00000E+000	-7.50000E-001	-8.54272E-004	10	..........a	-327.74
	1757	2.1975	-7.43836E-001	-1.71796E-004	0.00000E+000	-7.43000E-001	-8.16772E-004	10	..........a	-327.74
	1764	2.20625	-7.36796E-001	-1.69256E-004	0.00000E+000	-7.36000E-001	-8.29272E-004	10	..........a	-327.74
	1771	2.215	-7.29809E-001	-1.68120E-004	0.00000E+000	-7.29000E-001	-8.79272E-004	10	..........a	-327.74
	1778	2.22375	-7.22769E-001	-1.67652E-004	0.00000E+000	-7.22000E-001	-9.16772E-004	10	..........a	-327.74
	1785	2.2325	-7.15822E-001	-1.65847E-004	0.00000E+000	-7.15000E-001	-8.41772E-004	10	..........a	-327.74
	1792	2.24125	-7.08842E-001	-1.63174E-004	0.00000E+000	-7.08000E-001	-8.54272E-004	10	..........a	-327.74
	1799	2.25	-7.01862E-001	-1.61971E-004	0.00000E+000	-7.01000E-001	-8.29272E-004	10	..........a	-327.74
	1806	2.25875	-6.94789E-001	-1.61102E-004	0.00000E+000	-6.94000E-001	-8.91772E-004	10	..........a	-327.74
	1813	2.2675	-6.87796E-001	-1.56891E-004	0.00000E+000	-6.87000E-001	-8.79272E-004	10	..........a	-327.74
	1820	2.27625	-6.80862E-001	-1.55955E-004	0.00000E+000	-6.80000E-001	-8.91772E-004	10	..........a	-327.74
	1827	2.285	-6.73836E-001	-1.51945E-004	0.00000E+000	-6.73000E-001	-8.66772E-004	10	..........a	-327.74
	1834	2.29375	-6.66836E-001	-1.49873E-004	0.00000E+000	-6.66000E-001	-8.66772E-004	10	..........a	-327.74
	1841	2.3025	-6.59822E-001	-1.47734E-004	0.00000E+000	-6.59000E-001	-8.54272E-004	10	..........a	-327.74
	1848	2.31125	-6.52836E-001	-1.44191E-004	0.00000E+000	-6.52000E-001	-9.04272E-004	10	..........a	-327.74
	1855	2.32	-6.45856E-001	-1.40181E-004	0.00000E+000	-6.45000E-001	-8.79272E-004	10	..........a	-327.74
	1862	2.32875	-6.38776E-001	-1.33898E-004	0.00000E+000	-6.38000E-001	-8.66772E-004	10	..........a	-327.74
	1869	2.3375	-6.31829E-001	-1.30489E-004	0.00000E+000	-6.31000E-001	-8.29272E-004	10	..........a	-327.74
	1876	2.34625	-6.24909E-001	-1.24942E-004	0.00000E+000	-6.24000E-001	-8.66772E-004	10	..........a	-327.74
	1883	2.355	-6.17876E-001	-1.17188E-004	0.00000E+000	-6.17000E-001	-8.41772E-004	10	..........a	-327.74
	1890	2.36375	-6.10896E-001	-1.07496E-004	0.00000E+000	-6.10000E-001	-8.79272E-004	10	..........a	-327.74
	1897	2.3725	-6.03829E-001	-9.39280E-005	0.00000E+000	-6.03000E-001	-9.04272E-004	10	..........a	-327.74
	1904	2.38125	-5.96862E-001	-7.76860E-005	0.00000E+000	-5.96000E-001	-8.04272E-004	10	..........a	-327.74
	1911	2.39	-5.89856E-001	-5.62973E-005	0.00000E+000	-5.89000E-001	-8.79272E-004	10	..........a	-327.74
	1918	2.39875	-5.82882E-001	-2.86925E-005	0.00000E+000	-5.82000E-001	-8.66772E-004	10	..........a	-327.74
	1925	2.4075	-5.75842E-001	5.93038E-006	0.00000E+000	-5.75000E-001	-9.54272E-004	10	..........a	-327.74
	1932	2.41625	-5.68876E-001	4.34274E-005	0.00000E+000	-5.68000E-001	-9.29272E-004	10	..........a	-327.74
	1939	2.425	-5.61902E-001	8.69400E-005	0.00000E+000	-5.61000E-001	-8.91772E-004	10	..........a	-327.74
	1946	2.43375	-5.54896E-001	1.35599E-004	0.00000E+000	-5.54000E-001	-9.29272E-004	10	..........a	-327.74
	1953	2.4425	-5.47876E-001	1.85729E-004	0.00000E+000	-5.47000E-001	-9.16772E-004	10	..........a	-327.74
	1960	2.45125	-5.40896E-001	2.33920E-004	0.00000E+000	-5.40000E-001	-8.79272E-004	10	..........a	-327.74
	1967	2.46	-5.33889E-001	2.81310E-004	0.00000E+000	-5.33000E-001	-8.66772E-004	10	..........a	-327.74
	1974	2.46875	-5.26922E-001	3.26025E-004	0.00000E+000	-5.26000E-001	-9.16772E-004	10	..........a	-327.74
	1981	2.4775	-5.19929E-001	3.64792E-004	0.00000E+000	-5.19000E-001	-9.04272E-004	10	..........a	-327.74
	1988	2.48625	-5.12876E-001	3.99348E-004	0.00000E+000	-5.12000E-001	-8.79272E-004	10	..........a	-327.74
	1995	2.495	-5.05909E-001	4.28089E-004	0.00000E+000	-5.05000E-001	-8.79272E-004	10	..........a	-327.74
	2002	2.50375	-4.98936E-001	4.50280E-004	0.00000E+000	-4.98000E-001	-8.91772E-004	10	..........a	-327.74
	2009	2.5125	-4.91862E-001	4.67725E-004	0.00000E+000	-4.91000E-001	-9.54272E-004	10	..........a	-327.74
	2016	2.52125	-4.84916E-001	4.80492E-004	0.00000E+000	-4.84000E-001	-9.04272E-004	10	..........a	-327.74
	2023	2.53	-4.77909E-001	4.86373E-004	0.00000E+000	-4.77000E-001	-9.41772E-004	10	..........a	-327.74
	2030	2.53875	-4.70849E-001	4.89649E-004	0.00000E+000	-4.70000E-001	-7.91772E-004	10	..........a	-327.74
	2037	2.5475	-4.63922E-001	4.86975E-004	0.00000E+000	-4.63000E-001	-8.79272E-004	10	..........a	-327.74
	2044	2.55625	-4.56942E-001	4.81361E-004	0.00000E+000	-4.56000E-001	-8.91772E-004	10	..........a	-327.74
	2051	2.565	-4.49936E-001	4.72003E-004	0.00000E+000	-4.49000E-001	-8.91772E-004	10	..........a	-327.74
	2058	2.57375	-4.42922E-001	4.60974E-004	0.00000E+000	-4.42000E-001	-9.16772E-004	10	..........a	-327.74
	2065	2.5825	-4.35882E-001	4.47540E-004	0.00000E+000	-4.35000E-001	-9.29272E-004	10	..........a	-327.74
	2072	2.59125	-4.29002E-001	4.34372E-004	0.00000E+000	-4.28000E-001	-8.66772E-004	10	..........a	-327.74
	2079	2.6	-4.21942E-001	4.21673E-004	0.00000E+000	-4.21000E-001	-9.29272E-004	10	..........a	-327.74
	2086	2.60875	-4.14876E-001	4.07436E-004	0.00000E+000	-4.14000E-001	-8.54272E-004	10	..........a	-327.74
	2093	2.6175	-4.08002E-001	3.94536E-004	0.00000E+000	-4.07000E-001	-8.91772E-004	10	..........a	-327.74
	2100	2.62625	-4.00969E-001	3.82037E-004	0.00000E+000	-4.00000E-001	-8.79272E-004	10	..........a	-327.74
	2107	2.635	-3.93956E-001	3.69872E-004	0.00000E+000	-3.93000E-001	-9.41772E-004	10	..........a	-327.74
	2114	2.64375	-3.86982E-001	3.59913E-004	0.00000E+000	-3.86000E-001	-8.79272E-004	10	..........a	-327.74
	2121	2.6525	-3.79869E-001	3.49954E-004	0.00000E+000	-3.79000E-001	-8.54272E-004	10	..........a	-327.74
	2128	2.66125	-3.72969E-001	3.40529E-004	0.00000E+000	-3.72000E-001	-8.79272E-004	10	..........a	-327.74
	2135	2.67	-3.65929E-001	3.31306E-004	0.00000E+000	-3.65000E-001	-8.41772E-004	10	..........a	-327.74
	2142	2.67875	-3.58876E-001	3.23017E-004	0.00000E+000	-3.58000E-001	-8.79272E-004	10	..........a	-327.74
	2149	2.6875	-3.51976E-001	3.15465E-004	0.00000E+000	-3.51000E-001	-8.41772E-004	10	..........a	-327.74
	2156	2.69625	-3.44976E-001	3.09182E-004	0.00000E+000	-3.44000E-001	-9.04272E-004	10	..........a	-327.74
	2163	2.705	-3.37916E-001	3.00760E-004	0.00000E+000	-3.37000E-001	-8.91772E-004	10	..........a	-327.74
	2170	2.71375	-3.30982E-001	2.94945E-004	0.00000E+000	-3.30000E-001	-9.04272E-004	10	..........a	-327.74
	2177	2.7225	-3.23929E-001	2.88595E-004	0.00000E+000	-3.23000E-001	-8.91772E-004	10	..........a	-327.74
	2184	2.73125	-3.16956E-001	2.83582E-004	0.00000E+000	-3.16000E-001	-9.16772E-004	10	..........a	-327.74
	2191	2.74	-3.09922E-001	2.78369E-004	0.00000E+000	-3.09000E-001	-9.54272E-004	10	..........a	-327.74
	2198	2.74875	-3.02922E-001	2.71685E-004	0.00000E+000	-3.02000E-001	-9.04272E-004	10	..........a	-327.74
	2205	2.7575	-2.95956E-001	2.67340E-004	0.00000E+000	-2.95000E-001	-8.41772E-004	10	..........a	-327.74
	2212	2.76625	-2.88989E-001	2.63664E-004	0.00000E+000	-2.88000E-001	-9.41772E-004	10	..........a	-327.74
	2219	2.775	-2.81922E-001	2.58183E-004	0.00000E+000	-2.81000E-001	-8.91772E-004	10	..........a	-327.74
	2226	2.78375	-2.74969E-001	2.52368E-004	0.00000E+000	-2.74000E-001	-9.41772E-004	10	..........a	-327.74
	2233	2.7925	-2.67889E-001	2.48759E-004	0.00000E+000	-2.67000E-001	-9.16772E-004	10	..........a	-327.74
	2240	2.80125	-2.60969E-001	2.42944E-004	0.00000E+000	-2.60000E-001	-9.41772E-004	10	..........a	-327.74
	2247	2.81	-2.54002E-001	2.39134E-004	0.00000E+000	-2.53000E-001	-9.41772E-004	10	..........a	-327.74
	2254	2.81875	-2.46989E-001	2.34121E-004	0.00000E+000	-2.46000E-001	-8.66772E-004	10	..........a	-327.74
	2261	2.8275	-2.40036E-001	2.29308E-004	0.00000E+000	-2.39000E-001	-8.79272E-004	10	..........a	-327.74
	2268	2.83625	-2.33029E-001	2.25699E-004	0.00000E+000	-2.32000E-001	-9.29272E-004	10	..........a	-327.74
	2275	2.845	-2.25976E-001	2.19817E-004	0.00000E+000	-2.25000E-001	-8.66772E-004	10	..........a	-327.74
	2282	2.85375	-2.18989E-001	2.16809E-004	0.00000E+000	-2.18000E-001	-9.04272E-004	10	..........a	-327.74
	2289	2.8625	-2.11969E-001	2.12064E-004	0.00000E+000	-2.11000E-001	-8.66772E-004	10	..........a	-327.74
	2296	2.87125	-2.04949E-001	2.07385E-004	0.00000E+000	-2.04000E-001	-9.16772E-004	10	..........a	-327.74
	2303	2.88	-1.98022E-001	2.04979E-004	0.00000E+000	-1.97000E-001	-8.54272E-004	10	..........a	-327.74
	2310	2.88875	-1.90989E-001	1.99832E-004	0.00000E+000	-1.90000E-001	-8.91772E-004	10	..........a	-327.74
	2317	2.8975	-1.84056E-001	1.96757E-004	0.00000E+000	-1.83000E-001	-8.91772E-004	10	..........a	-327.74
	2324	2.90625	-1.76989E-001	1.92948E-004	0.00000E+000	-1.76000E-001	-9.29272E-004	10	..........a	-327.74
	2331	2.915	-1.70002E-001	1.90541E-004	0.00000E+000	-1.69000E-001	-8.79272E-004	10	..........a	-327.74
	2338	2.92375	-1.63089E-001	1.85662E-004	0.00000E+000	-1.62000E-001	-8.41772E-004	10	..........a	-327.74
	2345	2.9325	-1.56016E-001	1.83456E-004	0.00000E+000	-1.55000E-001	-8.41772E-004	10	..........a	-327.74
	2352	2.94125	-1.49016E-001	1.79379E-004	0.00000E+000	-1.48000E-001	-9.04272E-004	10	..........a	-327.74
	2359	2.95	-1.42042E-001	1.77374E-004	0.00000E+000	-1.41000E-001	-8.66772E-004	10	..........a	-327.74
	2366	2.95875	-1.34969E-001	1.73297E-004	0.00000E+000	-1.34000E-001	-8.91772E-004	10	..........a	-327.74
	2373	2.9675	-1.28022E-001	1.72227E-004	0.00000E+000	-1.27000E-001	-8.79272E-004	10	..........a	-327.74
	2380	2.97625	-1.21029E-001	1.69220E-004	0.00000E+000	-1.20000E-001	-9.29272E-004	10	..........a	-327.74
	2387	2.985	-1.13976E-001	1.66746E-004	0.00000E+000	-1.13000E-001	-8.79272E-004	10	..........a	-327.74
	2394	2.99375	-1.07069E-001	1.66078E-004	0.00000E+000	-1.06000E-001	-8.91772E-004	10	..........a	-327.74
	2401	3.0025	-1.00029E-001	1.63204E-004	0.00000E+000	-9.90000E-002	-9.16772E-004	10	..........a	-327.74
	2408	3.01125	-9.30223E-002	1.61466E-004	0.00000E+000	-9.20000E-002	-9.04272E-004	10	..........a	-327.74
	2415	3.02	-8.60423E-002	1.59528E-004	0.00000E+000	-8.50000E-002	-8.54272E-004	10	..........a	-327.74
	2422	3.02875	-7.89490E-002	1.58458E-004	0.00000E+000	-7.80000E-002	-9.29272E-004	10	..........a	-327.74
	2429	3.0375	-7.20290E-002	1.57122E-004	0.00000E+000	-7.10000E-002	-9.16772E-004	10	..........a	-327.74
	2436	3.04625	-6.51023E-002	1.55584E-004	0.00000E+000	-6.40000E-002	-8.66772E-004	10	..........a	-327.74
	2443	3.055	-5.80690E-002	1.55451E-004	0.00000E+000	-5.70000E-002	-8.41772E-004	10	..........a	-327.74
	2450	3.06375	-5.11290E-002	1.54916E-004	0.00000E+000	-5.00000E-002	-8.79272E-004	10	..........a	-327.74
	2457	3.0725	-4.40357E-002	1.55384E-004	0.00000E+000	-4.30000E-002	-9.04272E-004	10	..........a	-327.74
	2464	3.08125	-3.71023E-002	1.54047E-004	0.00000E+000	-3.60000E-002	-8.66772E-004	10	..........a	-327.74
	2471	3.09	-3.00557E-002	1.54314E-004	0.00000E+000	-2.90000E-002	-8.66772E-004	10	..........a	-327.74
	2478	3.09875	-2.30890E-002	1.54114E-004	0.00000E+000	-2.20000E-002	-8.79272E-004	10	..........a	-327.74
	2485	3.1075	-1.60423E-002	1.55651E-004	0.00000E+000	-1.50000E-002	-8.91772E-004	10	..........a	-327.74
	2492	3.11625	-9.08900E-003	1.55584E-004	0.00000E+000	-8.00000E-003	-9.16772E-004	10	..........a	-327.74
	2499	3.125	-2.02233E-003	1.55985E-004	0.00000E+000	-1.00000E-003	-8.66772E-004	10	..........a	-327.74
	2506	3.13375	4.90434E-003	1.57322E-004	0.00000E+000	5.99998E-003	-8.54272E-004	10	..........a	-327.74
	2513	3.1425	1.19043E-002	1.56854E-004	0.00000E+000	1.30000E-002	-9.04272E-004	10	..........a	-327.74
	2520	3.15125	1.89243E-002	1.57723E-004	0.00000E+000	2.00000E-002	-8.41772E-004	10	..........a	-327.74
	2527	3.16	2.59643E-002	1.58659E-004	0.00000E+000	2.70000E-002	-9.16772E-004	10	..........a	-327.74
	2534	3.16875	3.29643E-002	1.58859E-004	0.00000E+000	3.40000E-002	-9.54272E-004	10	..........a	-327.74
	2541	3.1775	3.98310E-002	1.57255E-004	0.00000E+000	4.10000E-002	-8.66772E-004	10	..........a	-327.74
	2548	3.18625	4.69043E-002	1.58325E-004	0.00000E+000	4.80000E-002	-9.04272E-004	10	..........a	-327.74
	2555	3.195	5.39310E-002	1.58124E-004	0.00000E+000	5.50000E-002	-9.16772E-004	10	..........a	-327.74
	2562	3.20375	6.08910E-002	1.58258E-004	0.00000E+000	6.20000E-002	-8.91772E-004	10	..........a	-327.74
	2569	3.2125	6.79243E-002	1.56654E-004	0.00000E+000	6.90000E-002	-8.91772E-004	10	..........a	-327.74
	2576	3.22125	7.48910E-002	1.54648E-004	0.00000E+000	7.60000E-002	-8.41772E-004	10	..........a	-327.74
	2583	3.23	8.19043E-002	1.54114E-004	0.00000E+000	8.30000E-002	-9.16772E-004	10	..........a	-327.74
	2590	3.23875	8.89177E-002	1.53579E-004	0.00000E+000	9.00000E-002	-9.04272E-004	10	..........a	-327.74
	2597	3.2475	9.59243E-002	1.50905E-004	0.00000E+000	9.70000E-002	-8.91772E-004	10	..........a	-327.74
	2604	3.25625	1.02918E-001	1.48767E-004	0.00000E+000	1.04000E-001	-9.04272E-004	10	..........a	-327.74
	2611	3.265	1.09898E-001	1.46828E-004	0.00000E+000	1.11000E-001	-8.54272E-004	10	..........a	-327.74
	2618	3.27375	1.16824E-001	1.44221E-004	0.00000E+000	1.18000E-001	-8.79272E-004	10	..........a	-327.74
	2625	3.2825	1.23944E-001	1.42551E-004	0.00000E+000	1.25000E-001	-8.91772E-004	10	..........a	-327.74
	2632	3.29125	1.30904E-001	1.40612E-004	0.00000E+000	1.32000E-001	-9.41772E-004	10	..........a	-327.74
	2639	3.3	1.37898E-001	1.38941E-004	0.00000E+000	1.39000E-001	-8.66772E-004	10	..........a	-327.74
	2646	3.30875	1.44884E-001	1.35131E-004	0.00000E+000	1.46000E-001	-8.91772E-004	10	..........a	-327.74
	2653	3.3175	1.51838E-001	1.32257E-004	0.00000E+000	1.53000E-001	-8.79272E-004	10	..........a	-327.74
	2660	3.32625	1.58891E-001	1.29985E-004	0.00000E+000	1.60000E-001	-8.41772E-004	10	..........a	-327.74
	2667	3.335	1.65898E-001	1.29918E-004	0.00000E+000	1.67000E-001	-9.16772E-004	10	..........a	-327.74
	2674	3.34375	1.72858E-001	1.25707E-004	0.00000E+000	1.74000E-001	-9.16772E-004	10	..........a	-327.74
	2681	3.3525	1.79844E-001	1.24370E-004	0.00000E+000	1.81000E-001	-8.79272E-004	10	..........a	-327.74
	2688	3.36125	1.86851E-001	1.21763E-004	0.00000E+000	1.88000E-001	-8.29272E-004	10	..........a	-327.74
	2695	3.37	1.93818E-001	1.19290E-004	0.00000E+000	1.95000E-001	-9.04272E-004	10	..........a	-327.74
	2702	3.37875	2.00878E-001	1.19023E-004	0.00000E+000	2.02000E-001	-8.79272E-004	10	..........a	-327.74
	2709	3.3875	2.07824E-001	1.15815E-004	0.00000E+000	2.09000E-001	-8.91772E-004	10	..........a	-327.74
	2716	3.39625	2.14851E-001	1.16149E-004	0.00000E+000	2.16000E-001	-9.66772E-004	10	..........a	-327.74
	2723	3.405	2.21871E-001	1.13408E-004	0.00000E+000	2.23000E-001	-9.29272E-004	10	..........a	-327.74
	2730	3.41375	2.28858E-001	1.12673E-004	0.00000E+000	2.30000E-001	-9.04272E-004	10	..........a	-327.74
	2737	3.4225	2.35818E-001	1.11737E-004	0.00000E+000	2.37000E-001	-9.29272E-004	10	..........a	-327.74
	2744	3.43125	2.42838E-001	1.09064E-004	0.00000E+000	2.44000E-001	-8.41772E-004	10	..........a	-327.74
	2751	3.44	2.49811E-001	1.08462E-004	0.00000E+000	2.51000E-001	-9.41772E-004	10	..........a	-327.74
	2758	3.44875	2.56844E-001	1.07861E-004	0.00000E+000	2.58000E-001	-9.04272E-004	10	..........a	-327.74
	2765	3.4575	2.63811E-001	1.05321E-004	0.00000E+000	2.65000E-001	-9.04272E-004	10	..........a	-327.74
	2772	3.46625	2.70838E-001	1.05455E-004	0.00000E+000	2.72000E-001	-8.91772E-004	10	..........a	-327.74
	2779	3.475	2.77891E-001	1.04185E-004	0.00000E+000	2.79000E-001	-8.54272E-004	10	..........a	-327.74
	2786	3.48375	2.84771E-001	1.04251E-004	0.00000E+000	2.86000E-001	-8.66772E-004	10	..........a	-327.74
	2793	3.4925	2.91784E-001	1.01979E-004	0.00000E+000	2.93000E-001	-9.41772E-004	10	..........a	-327.74
	2800	3.50125	2.98784E-001	1.02580E-004	0.00000E+000	3.00000E-001	-8.66772E-004	10	..........a	-327.74
	2807	3.51	3.05831E-001	1.01244E-004	0.00000E+000	3.07000E-001	-9.16772E-004	10	..........a	-327.74
	2814	3.51875	3.12824E-001	1.00308E-004	0.00000E+000	3.14000E-001	-9.04272E-004	10	..........a	-327.74
	2821	3.5275	3.19831E-001	1.00041E-004	0.00000E+000	3.21000E-001	-8.66772E-004	10	..........a	-327.74
	2828	3.53625	3.26804E-001	1.00709E-004	0.00000E+000	3.28000E-001	-9.79272E-004	10	..........a	-327.74
	2835	3.545	3.33831E-001	1.00776E-004	0.00000E+000	3.35000E-001	-9.29272E-004	10	..........a	-327.74
	2842	3.55375	3.40784E-001	9.89043E-005	0.00000E+000	3.42000E-001	-9.04272E-004	10	..........a	-327.74
	2849	3.5625	3.47778E-001	9.75675E-005	0.00000E+000	3.49000E-001	-9.16772E-004	10	..........a	-327.74
	2856	3.57125	3.54858E-001	9.88374E-005	0.00000E+000	3.56000E-001	-9.41772E-004	10	..........a	-327.74
	2863	3.58	3.61784E-001	9.75675E-005	0.00000E+000	3.63000E-001	-8.79272E-004	10	..........a	-327.74
	2870	3.58875	3.68771E-001	9.83027E-005	0.00000E+000	3.70000E-001	-9.41772E-004	10	..........a	-327.74
	2877	3.5975	3.75784E-001	9.71664E-005	0.00000E+000	3.77000E-001	-9.04272E-004	10	..........a	-327.74
	2884	3.60625	3.82811E-001	9.68991E-005	0.00000E+000	3.84000E-001	-8.54272E-004	10	..........a	-327.74
	2891	3.615	3.89778E-001	9.66986E-005	0.00000E+000	3.91000E-001	-8.54272E-004	10	..........a	-327.74
	2898	3.62375	3.96824E-001	9.61638E-005	0.00000E+000	3.98000E-001	-9.16772E-004	10	..........a	-327.74
	2905	3.6325	4.03744E-001	9.50944E-005	0.00000E+000	4.05000E-001	-9.04272E-004	10	..........a	-327.74
	2912	3.64125	4.10784E-001	9.48939E-005	0.00000E+000	4.12000E-001	-8.66772E-004	10	..........a	-327.74
	2919	3.65	4.17738E-001	9.68991E-005	0.00000E+000	4.19000E-001	-9.04272E-004	10	..........a	-327.74
	2926	3.65875	4.24704E-001	9.56291E-005	0.00000E+000	4.26000E-001	-9.29272E-004	10	..........a	-327.74
	2933	3.6675	4.31771E-001	9.32229E-005	0.00000E+000	4.33000E-001	-8.91772E-004	10	..........a	-327.74
	2940	3.67625	4.38751E-001	9.51612E-005	0.00000E+000	4.40000E-001	-9.41772E-004	10	..........a	-327.74
	2947	3.685	4.45778E-001	9.27550E-005	0.00000E+000	4.47000E-001	-8.91772E-004	10	..........a	-327.74
	2954	3.69375	4.52778E-001	9.43592E-005	0.00000E+000	4.54000E-001	-8.66772E-004	10	..........a	-327.74
	2961	3.7025	4.59818E-001	9.21535E-005	0.00000E+000	4.61000E-001	-8.79272E-004	10	..........a	-327.74
	2968	3.71125	4.66764E-001	9.12845E-005	0.00000E+000	4.68000E-001	-8.79272E-004	10	..........a	-327.74
	2975	3.72	4.73731E-001	9.10172E-005	0.00000E+000	4.75000E-001	-8.41772E-004	10	..........a	-327.74
	2982	3.72875	4.80711E-001	9.12845E-005	0.00000E+000	4.82000E-001	-8.54272E-004	10	..........a	-327.74
	2989	3.7375	4.87718E-001	8.94130E-005	0.00000E+000	4.89000E-001	-8.91772E-004	10	..........a	-327.74
	2996	3.74625	4.94731E-001	8.94799E-005	0.00000E+000	4.96000E-001	-8.54272E-004	10	..........a	-327.74
	3000	3.75125	4.98744E-001	8.89452E-005	0.00000E+000	5.00000E-001	-9.16772E-004	10	..........a	-327.74
CURVE2	TABLE
	Pt	T	Vf	Im	Vu	Sig	Ach	IERange	Over	Temp
	#	s	V vs. Ref.	A	V	V	V	#	bits	deg C
	3001	3.7525	4.98764E-001	8.50016E-005	0.00000E+000	5.00000E-001	-9.04272E-004	10	..........a	-327.74