File: data/02-SI/Figures_S9_S11_RDE/14btmapaq-rde/1mkcl--5mmolar14btmapaq-nitrogen-rde-900-50mvpers.DTA
EXPLAIN
TAG	LSV
TITLE	LABEL	Linear Sweep Voltammetry	Test &Identifier
DATE	LABEL	1/31/2023	Date
TIME	LABEL	13:10:54	Time
NOTES	NOTES	1	&Notes...

PSTAT	PSTAT	REF3000-21108	Potentiostat
VINIT	POTEN	3.00000E-001	F	&Initial E (V)
VFINAL	POTEN	-1.00000E+000	F	&Final E (V)
SCANRATE	QUANT	4.99999E+001	&Scan Rate (mV/s)
STEPSIZE	QUANT	1.00000E-001	St&ep Size (mV)
IMODE	SELECTOR	0	I/E Range &Mode
IRANGE	QUANT	1.00000E+002	&Max Current (mA)
AREA	QUANT	1.00000E+000	Electrode &Area (cm^2)
ELECTRODETYPE	SELECTOR	0	Electrode Type
STRIPPING	TOGGLE	F	Used for Stripping
POLARITY	TOGGLE	F	Signal Polarity
CONDIT	TWOPARAM	F	1.50000E+001	0.00000E+000	Conditionin&g	Time(s)	E(V)
DELAY	TWOPARAM	F	3.00000E+001	0.00000E+000	Init. De&lay	Time(s)	Stab.(mV/s)
EQDELAY	QUANT	0.00000E+000	Equil. &Time (s)
IRCOMP	SELECTOR	0	IRCom&p
PFCOR	QUANT	5.00000E+001	PF Corr. (ohm)
SAMPLINGMODE	SELECTOR	1	Sampling &Mode
EOC	QUANT	0	Open Circuit (V)
PSTATMODEL	IQUANT	5	Pstat Model
PSTATSECTION	LABEL	REF3000-21108	Pstat Section
PSTATSERIALNO	LABEL	21108	Pstat Serial Number
CTRLMODE	IQUANT	1	Control Mode
ELECTROMETER	IQUANT	0	RE=0 or CS=1
IESTAB	IQUANT	2	I/E Stability
CASPEED	IQUANT	4	Control Amp Speed
CONVENTION	IQUANT	1	Current Convention
ICHRANGE	IQUANT	2	Ich Range
ICHRANGEMODE	TOGGLE	F	Ich Auto Range
ICHOFFSETENABLE	TOGGLE	F	Ich Offset Enable
ICHOFFSET	QUANT	0	Ich Offset (V)
ICHFILTER	IQUANT	2	Ich Filter
VCHRANGE	IQUANT	2	Vch Range
VCHRANGEMODE	TOGGLE	T	Vch Auto Range
VCHOFFSETENABLE	TOGGLE	F	Vch Offset Enable
VCHOFFSET	QUANT	0	Vch Offset (V)
VCHFILTER	IQUANT	2	Vch Filter
ACHRANGE	IQUANT	2	Ach Range
ACHOFFSETENABLE	TOGGLE	F	Ach Offset Enable
ACHOFFSET	QUANT	0	Ach Offset (V)
ACHFILTER	IQUANT	0	Ach Filter
IERANGELOWERLIMIT	IQUANT	2	I/E Range Lower Limit
IERANGEMODE	TOGGLE	T	I/E AutoRange
IERANGE	IQUANT	11	I/E Range
POSFEEDENABLE	TOGGLE	F	Positive Feedback IR Comp
POSFEEDRESISTANCE	QUANT	0	Positive Feedback Resistance (ohm)
ACHSELECT	IQUANT	0	Ach Select
SENSECABLEID	IQUANT	14	Sense Cable ID
PWRCABLEID	IQUANT	7	Power Cable ID
DCCALDATE	LABEL	11/9/2022	DC Calibration Date
ACCALDATE	LABEL	11/9/2022	AC Calibration Date
THERMOSELECT	IQUANT	1	Thermo Select
FRAMEWORKVERSION	LABEL	7.8.2	Framework Version
INSTRUMENTVERSION	LABEL	4.40	Instrument Version
COMPLIANCEVOLTAGE	IQUANT	0	Compliance Voltage
CURVE	TABLE	13001
	Pt	T	Vf	Im	Vu	Sig	Ach	IERange	Over	Cycle	Temp
	#	s	V vs. Ref.	A	V	V	V	#	bits	#	deg C
	0	0.002	3.00021E-001	-4.71451E-005	0.00000E+000	3.00000E-001	-2.95939E-004	11	..........a	0	-327.74
	28	0.058	2.96164E-001	1.34275E-005	0.00000E+000	2.97200E-001	-5.20939E-004	8	..........a	0	-327.74
	56	0.114	2.93452E-001	9.16164E-006	0.00000E+000	2.94400E-001	-3.45939E-004	8	..........a	0	-327.74
	84	0.17	2.90639E-001	7.52969E-006	0.00000E+000	2.91600E-001	-5.04272E-004	8	..........a	0	-327.74
	112	0.226	2.87839E-001	5.86441E-006	0.00000E+000	2.88800E-001	-4.29272E-004	8	..........a	0	-327.74
	140	0.282	2.85081E-001	5.18904E-006	0.00000E+000	2.86000E-001	-3.12606E-004	8	..........a	0	-327.74
	168	0.338	2.82231E-001	4.80324E-006	0.00000E+000	2.83200E-001	-3.79272E-004	8	..........a	0	-327.74
	196	0.394	2.79502E-001	4.40244E-006	0.00000E+000	2.80400E-001	-2.04272E-004	8	..........a	0	-327.74
	224	0.45	2.76747E-001	3.67166E-006	0.00000E+000	2.77600E-001	-1.12606E-004	8	..........a	0	-327.74
	252	0.506	2.73827E-001	3.45335E-006	0.00000E+000	2.74800E-001	-3.87606E-004	8	..........a	0	-327.74
	280	0.562	2.71068E-001	3.21962E-006	0.00000E+000	2.72000E-001	-3.29272E-004	8	..........a	0	-327.74
	308	0.618	2.68297E-001	3.42960E-006	0.00000E+000	2.69200E-001	-3.20939E-004	8	..........a	0	-327.74
	336	0.674	2.65472E-001	3.09296E-006	0.00000E+000	2.66400E-001	-4.12606E-004	8	..........a	0	-327.74
	364	0.73	2.62614E-001	3.25837E-006	0.00000E+000	2.63600E-001	-3.95939E-004	8	..........a	0	-327.74
	392	0.786	2.59872E-001	3.17712E-006	0.00000E+000	2.60800E-001	-2.79272E-004	8	..........a	0	-327.74
	420	0.842	2.57022E-001	2.99839E-006	0.00000E+000	2.58000E-001	-4.79272E-004	8	..........a	0	-327.74
	448	0.898	2.54297E-001	2.56134E-006	0.00000E+000	2.55200E-001	-2.87606E-004	8	..........a	0	-327.74
	476	0.954	2.51510E-001	2.41218E-006	0.00000E+000	2.52400E-001	-2.37606E-004	8	..........a	0	-327.74
	504	1.01	2.48702E-001	2.62008E-006	0.00000E+000	2.49600E-001	-1.45939E-004	8	..........a	0	-327.74
	532	1.066	2.45877E-001	2.47843E-006	0.00000E+000	2.46800E-001	-4.20939E-004	8	..........a	0	-327.74
	560	1.122	2.42801E-001	2.53759E-006	0.00000E+000	2.44000E-001	-4.37606E-004	8	......s...a	0	-327.74
	588	1.178	2.40000E-001	2.52759E-006	0.00000E+000	2.41200E-001	-3.54272E-004	8	..........a	0	-327.74
	616	1.234	2.37205E-001	2.41427E-006	0.00000E+000	2.38400E-001	-1.62606E-004	8	..........a	0	-327.74
	644	1.29	2.34423E-001	2.29261E-006	0.00000E+000	2.35600E-001	-3.87606E-004	8	..........a	0	-327.74
	672	1.346	2.31626E-001	2.40385E-006	0.00000E+000	2.32800E-001	-2.79272E-004	8	..........a	0	-327.74
	700	1.402	2.28812E-001	2.24761E-006	0.00000E+000	2.30000E-001	-4.04272E-004	8	..........a	0	-327.74
	728	1.458	2.26011E-001	1.66308E-006	0.00000E+000	2.27200E-001	-3.54272E-004	8	..........a	0	-327.74
	756	1.514	2.23218E-001	2.00847E-006	0.00000E+000	2.24400E-001	-3.45939E-004	8	..........a	0	-327.74
	784	1.57	2.20431E-001	1.99347E-006	0.00000E+000	2.21600E-001	-3.45939E-004	8	..........a	0	-327.74
	812	1.626	2.17618E-001	1.81223E-006	0.00000E+000	2.18800E-001	-2.54272E-004	8	..........a	0	-327.74
	840	1.682	2.14826E-001	1.77515E-006	0.00000E+000	2.16000E-001	-2.54272E-004	8	..........a	0	-327.74
	868	1.738	2.12033E-001	2.26761E-006	0.00000E+000	2.13200E-001	-2.20939E-004	8	..........a	0	-327.74
	896	1.794	2.09237E-001	1.75557E-006	0.00000E+000	2.10400E-001	-6.04272E-004	8	..........a	0	-327.74
	924	1.85	2.06428E-001	1.91931E-006	0.00000E+000	2.07600E-001	-4.87606E-004	8	..........a	0	-327.74
	952	1.906	2.03630E-001	1.95264E-006	0.00000E+000	2.04800E-001	-2.54272E-004	8	..........a	0	-327.74
	980	1.962	2.00826E-001	1.65266E-006	0.00000E+000	2.02000E-001	-3.70939E-004	8	..........a	0	-327.74
	1008	2.018	1.98026E-001	1.75599E-006	0.00000E+000	1.99200E-001	-3.12606E-004	8	..........a	0	-327.74
	1036	2.074	1.95227E-001	2.10429E-006	0.00000E+000	1.96400E-001	-1.79272E-004	8	..........a	0	-327.74
	1064	2.13	1.92428E-001	1.56475E-006	0.00000E+000	1.93600E-001	-3.54272E-004	8	..........a	0	-327.74
	1092	2.186	1.89620E-001	1.35852E-006	0.00000E+000	1.90800E-001	-2.95939E-004	8	..........a	0	-327.74
	1120	2.242	1.86830E-001	1.49517E-006	0.00000E+000	1.88000E-001	-3.70939E-004	8	..........a	0	-327.74
	1148	2.298	1.84034E-001	9.81881E-007	0.00000E+000	1.85200E-001	-2.45939E-004	8	..........a	0	-327.74
	1176	2.354	1.81248E-001	1.11979E-006	0.00000E+000	1.82400E-001	-2.54272E-004	8	..........a	0	-327.74
	1204	2.41	1.78435E-001	1.17853E-006	0.00000E+000	1.79600E-001	-2.29272E-004	8	..........a	0	-327.74
	1232	2.466	1.75634E-001	1.41476E-006	0.00000E+000	1.76800E-001	-4.12606E-004	8	..........a	0	-327.74
	1260	2.522	1.72851E-001	7.85230E-007	0.00000E+000	1.74000E-001	-3.20939E-004	8	..........a	0	-327.74
	1288	2.578	1.70056E-001	1.18478E-006	0.00000E+000	1.71200E-001	-3.04272E-004	8	..........a	0	-327.74
	1316	2.634	1.67262E-001	1.16520E-006	0.00000E+000	1.68400E-001	-1.79272E-004	8	..........a	0	-327.74
	1344	2.69	1.64456E-001	6.20660E-007	0.00000E+000	1.65600E-001	-2.20939E-004	8	..........a	0	-327.74
	1372	2.746	1.61659E-001	1.02229E-006	0.00000E+000	1.62800E-001	-2.70939E-004	8	..........a	0	-327.74
	1400	2.802	1.58855E-001	6.57324E-007	0.00000E+000	1.60000E-001	-1.04272E-004	8	..........a	0	-327.74
	1428	2.858	1.56049E-001	6.33576E-007	0.00000E+000	1.57200E-001	-3.45939E-004	8	..........a	0	-327.74
	1456	2.914	1.53244E-001	7.04820E-007	0.00000E+000	1.54400E-001	-3.04272E-004	8	..........a	0	-327.74
	1484	2.97	1.50463E-001	6.94821E-007	0.00000E+000	1.51600E-001	-9.59389E-005	8	..........a	0	-327.74
	1512	3.026	1.47671E-001	5.59415E-007	0.00000E+000	1.48800E-001	-1.45939E-004	8	..........a	0	-327.74
	1540	3.082	1.44839E-001	2.34858E-007	0.00000E+000	1.46000E-001	-1.12606E-004	8	..........a	0	-327.74
	1568	3.138	1.42069E-001	6.51491E-007	0.00000E+000	1.43200E-001	-1.04272E-004	8	..........a	0	-327.74
	1596	3.194	1.39244E-001	2.97769E-007	0.00000E+000	1.40400E-001	-1.54272E-004	8	..........a	0	-327.74
	1624	3.25	1.36462E-001	5.20251E-007	0.00000E+000	1.37600E-001	-2.45939E-004	8	..........a	0	-327.74
	1652	3.306	1.33660E-001	4.46091E-007	0.00000E+000	1.34800E-001	-3.45939E-004	8	..........a	0	-327.74
	1680	3.362	1.30858E-001	1.25700E-007	0.00000E+000	1.32000E-001	-3.12606E-004	8	..........a	0	-327.74
	1708	3.418	1.28069E-001	4.61090E-007	0.00000E+000	1.29200E-001	-1.70939E-004	8	..........a	0	-327.74
	1736	3.474	1.25264E-001	3.73597E-007	0.00000E+000	1.26400E-001	-3.20939E-004	8	..........a	0	-327.74
	1764	3.53	1.22463E-001	3.69430E-007	0.00000E+000	1.23600E-001	-3.62606E-004	8	..........a	0	-327.74
	1792	3.586	1.19672E-001	2.56106E-007	0.00000E+000	1.20800E-001	-4.37606E-004	8	..........a	0	-327.74
	1820	3.642	1.16878E-001	3.15268E-007	0.00000E+000	1.18000E-001	-3.04272E-004	8	..........a	0	-327.74
	1848	3.698	1.14063E-001	1.76112E-007	0.00000E+000	1.15200E-001	-2.95939E-004	8	..........a	0	-327.74
	1876	3.754	1.11271E-001	4.36231E-008	0.00000E+000	1.12400E-001	-1.54272E-004	8	..........a	0	-327.74
	1904	3.81	1.08482E-001	-1.38446E-007	0.00000E+000	1.09600E-001	-2.12606E-004	8	..........a	0	-327.74
	1932	3.866	1.05667E-001	-2.84545E-008	0.00000E+000	1.06800E-001	-3.12606E-004	8	..........a	0	-327.74
	1960	3.922	1.02881E-001	-4.55364E-008	0.00000E+000	1.04000E-001	-2.20939E-004	8	..........a	0	-327.74
	1988	3.978	1.00071E-001	9.86187E-008	0.00000E+000	1.01200E-001	-3.62606E-004	8	..........a	0	-327.74
	2016	4.034	9.72872E-002	-2.98849E-007	0.00000E+000	9.84000E-002	-2.04272E-004	8	..........a	0	-327.74
	2044	4.09	9.44918E-002	1.17367E-007	0.00000E+000	9.56000E-002	-1.45939E-004	8	..........a	0	-327.74
	2072	4.146	9.16868E-002	7.57038E-008	0.00000E+000	9.28000E-002	-3.79272E-004	8	..........a	0	-327.74
	2100	4.202	8.88635E-002	-3.09265E-007	0.00000E+000	9.00000E-002	-6.62606E-004	8	..........a	0	-327.74
	2128	4.258	8.60685E-002	-2.30938E-007	0.00000E+000	8.72000E-002	-3.95939E-004	8	..........a	0	-327.74
	2156	4.314	8.32893E-002	1.99861E-007	0.00000E+000	8.44000E-002	-6.87606E-004	8	..........a	0	-327.74
	2184	4.37	8.04897E-002	-4.05508E-007	0.00000E+000	8.16000E-002	-2.87606E-004	8	..........a	0	-327.74
	2212	4.426	7.77114E-002	-4.23006E-007	0.00000E+000	7.88000E-002	-1.62606E-004	8	..........a	0	-327.74
	2240	4.482	7.48797E-002	5.98718E-008	0.00000E+000	7.60000E-002	-3.87606E-004	8	..........a	0	-327.74
	2268	4.538	7.20972E-002	-4.70637E-009	0.00000E+000	7.32000E-002	-3.37606E-004	8	..........a	0	-327.74
	2296	4.594	6.92993E-002	-1.27613E-007	0.00000E+000	7.04000E-002	-3.37606E-004	8	..........a	0	-327.74
	2324	4.65	6.64935E-002	-1.94691E-007	0.00000E+000	6.76000E-002	-2.70939E-004	8	..........a	0	-327.74
	2352	4.706	6.36964E-002	-3.27597E-007	0.00000E+000	6.48000E-002	-4.87606E-004	8	..........a	0	-327.74
	2380	4.762	6.09089E-002	-1.44695E-007	0.00000E+000	6.20000E-002	-4.04272E-004	8	..........a	0	-327.74
	2408	4.818	5.81076E-002	-1.85942E-007	0.00000E+000	5.92000E-002	-4.54272E-004	8	..........a	0	-327.74
	2436	4.874	5.53101E-002	-2.21356E-007	0.00000E+000	5.64000E-002	-1.87606E-004	8	..........a	0	-327.74
	2464	4.93	5.25031E-002	-3.50095E-007	0.00000E+000	5.36000E-002	-3.29272E-004	8	..........a	0	-327.74
	2492	4.986	4.97297E-002	2.46107E-007	0.00000E+000	5.08000E-002	-4.45939E-004	8	..........a	0	-327.74
	2520	5.042	4.69043E-002	-4.80362E-008	0.00000E+000	4.80000E-002	-3.54272E-004	8	..........a	0	-327.74
	2548	5.098	4.41022E-002	-1.56777E-007	0.00000E+000	4.52000E-002	-3.37606E-004	8	..........a	0	-327.74
	2576	5.154	4.13014E-002	-1.57611E-007	0.00000E+000	4.24000E-002	-4.04272E-004	8	..........a	0	-327.74
	2604	5.21	3.85131E-002	-4.52587E-007	0.00000E+000	3.96000E-002	-1.62606E-004	8	..........a	0	-327.74
	2632	5.266	3.57010E-002	-6.60904E-007	0.00000E+000	3.68000E-002	-3.45939E-004	8	..........a	0	-327.74
	2660	5.322	3.29018E-002	-2.07607E-007	0.00000E+000	3.40000E-002	-3.70939E-004	8	..........a	0	-327.74
	2688	5.378	3.01039E-002	7.27874E-008	0.00000E+000	3.12000E-002	-6.62606E-004	8	..........a	0	-327.74
	2716	5.434	2.73110E-002	-3.99258E-007	0.00000E+000	2.84000E-002	-2.87606E-004	8	..........a	0	-327.74
	2744	5.49	2.45043E-002	-1.55111E-007	0.00000E+000	2.56000E-002	-3.45939E-004	8	..........a	0	-327.74
	2772	5.546	2.16939E-002	-2.98016E-007	0.00000E+000	2.28000E-002	-3.62606E-004	8	..........a	0	-327.74
	2800	5.602	1.88971E-002	-2.50103E-007	0.00000E+000	2.00000E-002	-2.45939E-004	8	..........a	0	-327.74
	2828	5.658	1.60865E-002	-4.80918E-007	0.00000E+000	1.72000E-002	-3.12606E-004	8	..........a	0	-327.74
	2856	5.714	1.32859E-002	-3.12182E-007	0.00000E+000	1.44000E-002	-4.45939E-004	8	..........a	0	-327.74
	2884	5.77	1.04877E-002	-4.79668E-007	0.00000E+000	1.16000E-002	-4.20939E-004	8	..........a	0	-327.74
	2912	5.826	7.69564E-003	-6.48821E-007	0.00000E+000	8.79997E-003	-3.20939E-004	8	..........a	0	-327.74
	2940	5.882	4.90089E-003	-1.30946E-007	0.00000E+000	5.99995E-003	-6.04272E-004	8	..........a	0	-327.74
	2968	5.938	2.08256E-003	-5.38413E-007	0.00000E+000	3.19996E-003	-5.37606E-004	8	..........a	0	-327.74
	2996	5.994	-6.85484E-004	-3.14265E-007	0.00000E+000	3.99977E-004	-3.20939E-004	8	..........a	0	-327.74
	3024	6.05	-3.48157E-003	-2.78851E-007	0.00000E+000	-2.40004E-003	-3.45939E-004	8	..........a	0	-327.74
	3052	6.106	-6.27936E-003	-3.73843E-007	0.00000E+000	-5.20003E-003	-3.70939E-004	8	..........a	0	-327.74
	3080	6.162	-9.10494E-003	-4.83835E-007	0.00000E+000	-8.00005E-003	-5.29272E-004	8	..........a	0	-327.74
	3108	6.218	-1.18944E-002	-4.83001E-007	0.00000E+000	-1.08000E-002	-1.87606E-004	8	..........a	0	-327.74
	3136	6.274	-1.46957E-002	-3.67177E-007	0.00000E+000	-1.36000E-002	-5.04272E-004	8	..........a	0	-327.74
	3164	6.33	-1.74830E-002	-6.12574E-007	0.00000E+000	-1.64000E-002	-4.29272E-004	8	..........a	0	-327.74
	3192	6.386	-2.02809E-002	-4.77168E-007	0.00000E+000	-1.92000E-002	-3.20939E-004	8	..........a	0	-327.74
	3220	6.442	-2.30837E-002	-4.79252E-007	0.00000E+000	-2.20000E-002	-4.45939E-004	8	..........a	0	-327.74
	3248	6.498	-2.58827E-002	-3.16765E-007	0.00000E+000	-2.48000E-002	-2.62606E-004	8	..........a	0	-327.74
	3276	6.554	-2.86469E-002	-5.22581E-007	0.00000E+000	-2.76000E-002	-1.04272E-004	8	..........a	0	-327.74
	3304	6.61	-3.14540E-002	-3.02599E-007	0.00000E+000	-3.04000E-002	-2.45939E-004	8	..........a	0	-327.74
	3332	6.666	-3.42728E-002	-4.77168E-007	0.00000E+000	-3.32000E-002	-4.70939E-004	8	..........a	0	-327.74
	3360	6.722	-3.70507E-002	-4.96334E-007	0.00000E+000	-3.60000E-002	-4.20939E-004	8	..........a	0	-327.74
	3388	6.778	-3.98569E-002	-8.94635E-007	0.00000E+000	-3.88000E-002	-2.20939E-004	8	..........a	0	-327.74
	3416	6.834	-4.26603E-002	-6.79652E-007	0.00000E+000	-4.16000E-002	-1.54272E-004	8	..........a	0	-327.74
	3444	6.89	-4.54661E-002	-5.58829E-007	0.00000E+000	-4.44000E-002	-2.45939E-004	8	..........a	0	-327.74
	3472	6.946	-4.82611E-002	-8.58804E-007	0.00000E+000	-4.72000E-002	-2.12606E-004	8	..........a	0	-327.74
	3500	7.002	-5.10628E-002	-3.88842E-007	0.00000E+000	-5.00000E-002	-2.04272E-004	8	..........a	0	-327.74
	3528	7.058	-5.38482E-002	-6.27990E-007	0.00000E+000	-5.28000E-002	-2.95939E-004	8	..........a	0	-327.74
	3556	7.114	-5.66532E-002	-6.85902E-007	0.00000E+000	-5.56000E-002	-1.87606E-004	8	..........a	0	-327.74
	3584	7.17	-5.94461E-002	-5.03416E-007	0.00000E+000	-5.84000E-002	-4.04272E-004	8	..........a	0	-327.74
	3612	7.226	-6.22457E-002	-7.50480E-007	0.00000E+000	-6.12000E-002	-1.45939E-004	8	..........a	0	-327.74
	3640	7.282	-6.50686E-002	-5.88826E-007	0.00000E+000	-6.40000E-002	-3.79272E-004	8	..........a	0	-327.74
	3668	7.338	-6.78544E-002	-6.31739E-007	0.00000E+000	-6.68000E-002	-6.20939E-004	8	..........a	0	-327.74
	3696	7.394	-7.06469E-002	-5.04250E-007	0.00000E+000	-6.96000E-002	-4.45939E-004	8	..........a	0	-327.74
	3724	7.45	-7.34328E-002	-2.42604E-007	0.00000E+000	-7.24000E-002	-3.12606E-004	8	..........a	0	-327.74
	3752	7.506	-7.62453E-002	-4.90917E-007	0.00000E+000	-7.52000E-002	-3.79272E-004	8	..........a	0	-327.74
	3780	7.562	-7.90374E-002	-7.67562E-007	0.00000E+000	-7.80000E-002	-4.54272E-004	8	..........a	0	-327.74
	3808	7.618	-8.18419E-002	-1.09420E-006	0.00000E+000	-8.08000E-002	-2.37606E-004	8	..........a	0	-327.74
	3836	7.674	-8.46328E-002	-5.06333E-007	0.00000E+000	-8.36000E-002	-4.04272E-004	8	..........a	0	-327.74
	3864	7.73	-8.74244E-002	-5.87576E-007	0.00000E+000	-8.64000E-002	-3.95939E-004	8	..........a	0	-327.74
	3892	7.786	-9.02378E-002	-4.97583E-007	0.00000E+000	-8.92000E-002	-3.45939E-004	8	..........a	0	-327.74
	3920	7.842	-9.30407E-002	-7.98809E-007	0.00000E+000	-9.20000E-002	-2.87606E-004	8	..........a	0	-327.74
	3948	7.898	-9.58444E-002	-6.78819E-007	0.00000E+000	-9.48000E-002	-2.12606E-004	8	..........a	0	-327.74
	3976	7.954	-9.86090E-002	-6.99234E-007	0.00000E+000	-9.76000E-002	-1.37606E-004	8	..........a	0	-327.74
	4004	8.01	-1.01421E-001	-2.93017E-007	0.00000E+000	-1.00400E-001	-4.62606E-004	8	..........a	0	-327.74
	4032	8.066	-1.04210E-001	-9.17550E-007	0.00000E+000	-1.03200E-001	-3.04272E-004	8	..........a	0	-327.74
	4060	8.122	-1.07014E-001	-7.52980E-007	0.00000E+000	-1.06000E-001	-2.29272E-004	8	..........a	0	-327.74
	4088	8.178	-1.09833E-001	-4.29256E-007	0.00000E+000	-1.08800E-001	-3.70939E-004	8	..........a	0	-327.74
	4116	8.234	-1.12633E-001	-5.17165E-007	0.00000E+000	-1.11600E-001	-3.70939E-004	8	..........a	0	-327.74
	4144	8.29	-1.15415E-001	-7.42980E-007	0.00000E+000	-1.14400E-001	-2.54272E-004	8	..........a	0	-327.74
	4172	8.346	-1.18225E-001	-6.61320E-007	0.00000E+000	-1.17200E-001	-3.04272E-004	8	..........a	0	-327.74
	4200	8.402	-1.21017E-001	-6.56737E-007	0.00000E+000	-1.20000E-001	-4.95939E-004	8	..........a	0	-327.74
	4228	8.458	-1.23818E-001	-8.69637E-007	0.00000E+000	-1.22800E-001	-4.45939E-004	8	..........a	0	-327.74
	4256	8.514	-1.26627E-001	-9.16300E-007	0.00000E+000	-1.25600E-001	-3.12606E-004	8	..........a	0	-327.74
	4284	8.57	-1.29413E-001	-9.90877E-007	0.00000E+000	-1.28400E-001	-2.45939E-004	8	..........a	0	-327.74
	4312	8.626	-1.32213E-001	-5.51329E-007	0.00000E+000	-1.31200E-001	-3.54272E-004	8	..........a	0	-327.74
	4340	8.682	-1.35018E-001	-7.35064E-007	0.00000E+000	-1.34000E-001	-4.20939E-004	8	..........a	0	-327.74
	4368	8.738	-1.37807E-001	-8.60888E-007	0.00000E+000	-1.36800E-001	-4.04272E-004	8	..........a	0	-327.74
	4396	8.794	-1.40609E-001	-7.00067E-007	0.00000E+000	-1.39600E-001	-2.79272E-004	8	..........a	0	-327.74
	4424	8.85	-1.43414E-001	-5.85076E-007	0.00000E+000	-1.42400E-001	-5.45939E-004	8	..........a	0	-327.74
	4452	8.906	-1.46199E-001	-6.71319E-007	0.00000E+000	-1.45200E-001	-8.76056E-005	8	..........a	0	-327.74
	4480	8.962	-1.48998E-001	-9.24216E-007	0.00000E+000	-1.48000E-001	-3.37606E-004	8	..........a	0	-327.74
	4508	9.018	-1.51789E-001	-7.76311E-007	0.00000E+000	-1.50800E-001	-1.45939E-004	8	..........a	0	-327.74
	4536	9.074	-1.54605E-001	-1.03671E-006	0.00000E+000	-1.53600E-001	-2.87606E-004	8	..........a	0	-327.74
	4564	9.13	-1.57407E-001	-1.12087E-006	0.00000E+000	-1.56400E-001	-4.95939E-004	8	..........a	0	-327.74
	4592	9.186	-1.60194E-001	-4.90917E-007	0.00000E+000	-1.59200E-001	-5.37606E-004	8	..........a	0	-327.74
	4620	9.242	-1.62998E-001	-7.98809E-007	0.00000E+000	-1.62000E-001	-3.12606E-004	8	..........a	0	-327.74
	4648	9.298	-1.65804E-001	-1.28794E-006	0.00000E+000	-1.64800E-001	-3.29272E-004	8	..........a	0	-327.74
	4676	9.354	-1.68601E-001	-1.21294E-006	0.00000E+000	-1.67600E-001	-3.87606E-004	8	..........a	0	-327.74
	4704	9.41	-1.71402E-001	-8.36723E-007	0.00000E+000	-1.70400E-001	-3.79272E-004	8	..........a	0	-327.74
	4732	9.466	-1.74204E-001	-1.12878E-006	0.00000E+000	-1.73200E-001	-3.45939E-004	8	..........a	0	-327.74
	4760	9.522	-1.76982E-001	-1.43459E-006	0.00000E+000	-1.76000E-001	-2.54272E-004	8	..........a	0	-327.74
	4788	9.578	-1.79800E-001	-1.22961E-006	0.00000E+000	-1.78800E-001	-3.04272E-004	8	..........a	0	-327.74
	4816	9.634	-1.82586E-001	-1.11295E-006	0.00000E+000	-1.81600E-001	-2.12606E-004	8	..........a	0	-327.74
	4844	9.69	-1.85388E-001	-9.76712E-007	0.00000E+000	-1.84400E-001	-3.29272E-004	8	..........a	0	-327.74
	4872	9.746	-1.88198E-001	-7.95060E-007	0.00000E+000	-1.87200E-001	-4.70939E-004	8	..........a	0	-327.74
	4900	9.802	-1.90984E-001	-1.16711E-006	0.00000E+000	-1.90000E-001	-1.79272E-004	8	..........a	0	-327.74
	4928	9.858	-1.93779E-001	-1.26877E-006	0.00000E+000	-1.92800E-001	-2.12606E-004	8	..........a	0	-327.74
	4956	9.914	-1.96588E-001	-1.48542E-006	0.00000E+000	-1.95600E-001	-3.70939E-004	8	..........a	0	-327.74
	4984	9.97	-1.99386E-001	-1.44251E-006	0.00000E+000	-1.98400E-001	-3.45939E-004	8	..........a	0	-327.74
	5012	10.026	-2.02184E-001	-1.14711E-006	0.00000E+000	-2.01200E-001	-3.12606E-004	8	..........a	0	-327.74
	5040	10.082	-2.04983E-001	-1.35626E-006	0.00000E+000	-2.04000E-001	-1.70939E-004	8	..........a	0	-327.74
	5068	10.138	-2.07777E-001	-1.43584E-006	0.00000E+000	-2.06800E-001	-2.45939E-004	8	..........a	0	-327.74
	5096	10.194	-2.10574E-001	-1.09462E-006	0.00000E+000	-2.09600E-001	-1.29272E-004	8	..........a	0	-327.74
	5124	10.25	-2.13376E-001	-1.27710E-006	0.00000E+000	-2.12400E-001	-1.70939E-004	8	..........a	0	-327.74
	5152	10.306	-2.16173E-001	-9.89211E-007	0.00000E+000	-2.15200E-001	-2.20939E-004	8	..........a	0	-327.74
	5180	10.362	-2.18970E-001	-1.32835E-006	0.00000E+000	-2.18000E-001	-2.45939E-004	8	..........a	0	-327.74
	5208	10.418	-2.21779E-001	-1.10045E-006	0.00000E+000	-2.20800E-001	-3.54272E-004	8	..........a	0	-327.74
	5236	10.474	-2.24586E-001	-1.41918E-006	0.00000E+000	-2.23600E-001	-3.12606E-004	8	..........a	0	-327.74
	5264	10.53	-2.27379E-001	-1.29794E-006	0.00000E+000	-2.26400E-001	-4.29272E-004	8	..........a	0	-327.74
	5292	10.586	-2.30171E-001	-1.64707E-006	0.00000E+000	-2.29200E-001	-4.62606E-004	8	..........a	0	-327.74
	5320	10.642	-2.32969E-001	-1.64207E-006	0.00000E+000	-2.32000E-001	-2.12606E-004	8	..........a	0	-327.74
	5348	10.698	-2.35765E-001	-1.82998E-006	0.00000E+000	-2.34800E-001	-2.20939E-004	8	..........a	0	-327.74
	5376	10.754	-2.38568E-001	-1.37501E-006	0.00000E+000	-2.37600E-001	-1.95939E-004	8	..........a	0	-327.74
	5404	10.81	-2.41349E-001	-1.20003E-006	0.00000E+000	-2.40400E-001	-2.87606E-004	8	..........a	0	-327.74
	5432	10.866	-2.44160E-001	-1.75582E-006	0.00000E+000	-2.43200E-001	-3.04272E-004	8	..........a	0	-327.74
	5460	10.922	-2.46959E-001	-1.34710E-006	0.00000E+000	-2.46000E-001	-2.20939E-004	8	..........a	0	-327.74
	5488	10.978	-2.49756E-001	-1.39126E-006	0.00000E+000	-2.48800E-001	-3.04272E-004	8	..........a	0	-327.74
	5516	11.034	-2.52563E-001	-1.46209E-006	0.00000E+000	-2.51600E-001	-2.95939E-004	8	..........a	0	-327.74
	5544	11.09	-2.55355E-001	-1.38918E-006	0.00000E+000	-2.54400E-001	-3.70939E-004	8	..........a	0	-327.74
	5572	11.146	-2.58150E-001	-1.50209E-006	0.00000E+000	-2.57200E-001	-3.62606E-004	8	..........a	0	-327.74
	5600	11.202	-2.60940E-001	-1.55833E-006	0.00000E+000	-2.60000E-001	-3.45939E-004	8	..........a	0	-327.74
	5628	11.258	-2.63751E-001	-1.63374E-006	0.00000E+000	-2.62800E-001	-1.70939E-004	8	..........a	0	-327.74
	5656	11.314	-2.66265E-001	-1.75498E-006	0.00000E+000	-2.65600E-001	-4.95939E-004	8	......s...a	0	-327.74
	5684	11.37	-2.69086E-001	-1.47251E-006	0.00000E+000	-2.68400E-001	-2.62606E-004	8	..........a	0	-327.74
	5712	11.426	-2.71894E-001	-1.50417E-006	0.00000E+000	-2.71200E-001	-2.37606E-004	8	..........a	0	-327.74
	5740	11.482	-2.74623E-001	-1.31168E-006	0.00000E+000	-2.74000E-001	-2.29272E-004	8	..........a	0	-327.74
	5768	11.538	-2.77411E-001	-1.67707E-006	0.00000E+000	-2.76800E-001	-1.45939E-004	8	..........a	0	-327.74
	5796	11.594	-2.80303E-001	-1.54083E-006	0.00000E+000	-2.79600E-001	-3.79272E-004	8	..........a	0	-327.74
	5824	11.65	-2.83148E-001	-1.51042E-006	0.00000E+000	-2.82400E-001	-4.04272E-004	8	..........a	0	-327.74
	5852	11.706	-2.85861E-001	-1.62583E-006	0.00000E+000	-2.85200E-001	-1.04272E-004	8	..........a	0	-327.74
	5880	11.762	-2.88690E-001	-1.93580E-006	0.00000E+000	-2.88000E-001	-3.04272E-004	8	..........a	0	-327.74
	5908	11.818	-2.91490E-001	-1.71040E-006	0.00000E+000	-2.90800E-001	-2.12606E-004	8	..........a	0	-327.74
	5936	11.874	-2.94265E-001	-1.87664E-006	0.00000E+000	-2.93600E-001	-3.54272E-004	8	..........a	0	-327.74
	5964	11.93	-2.97119E-001	-2.12912E-006	0.00000E+000	-2.96400E-001	-3.54272E-004	8	..........a	0	-327.74
	5992	11.986	-2.99869E-001	-1.47959E-006	0.00000E+000	-2.99200E-001	-2.70939E-004	8	..........a	0	-327.74
	6020	12.042	-3.02707E-001	-1.98955E-006	0.00000E+000	-3.02000E-001	-3.37606E-004	8	..........a	0	-327.74
	6048	12.098	-3.05486E-001	-2.44201E-006	0.00000E+000	-3.04800E-001	-1.79272E-004	8	..........a	0	-327.74
	6076	12.154	-3.08290E-001	-2.21453E-006	0.00000E+000	-3.07600E-001	-2.70939E-004	8	..........a	0	-327.74
	6104	12.21	-3.11086E-001	-1.88164E-006	0.00000E+000	-3.10400E-001	-3.95939E-004	8	..........a	0	-327.74
	6132	12.266	-3.13961E-001	-2.49242E-006	0.00000E+000	-3.13200E-001	-6.04272E-004	8	..........a	0	-327.74
	6160	12.322	-3.16694E-001	-2.17287E-006	0.00000E+000	-3.16000E-001	-3.54272E-004	8	..........a	0	-327.74
	6188	12.378	-3.19440E-001	-2.45284E-006	0.00000E+000	-3.18800E-001	-3.54272E-004	8	..........a	0	-327.74
	6216	12.434	-3.22236E-001	-2.52492E-006	0.00000E+000	-3.21600E-001	-1.79272E-004	8	..........a	0	-327.74
	6244	12.49	-3.25086E-001	-2.74990E-006	0.00000E+000	-3.24400E-001	-3.37606E-004	8	..........a	0	-327.74
	6272	12.546	-3.27919E-001	-2.67991E-006	0.00000E+000	-3.27200E-001	-3.45939E-004	8	..........a	0	-327.74
	6300	12.602	-3.30773E-001	-2.37535E-006	0.00000E+000	-3.30000E-001	-4.29272E-004	8	..........a	0	-327.74
	6328	12.658	-3.33394E-001	-2.77990E-006	0.00000E+000	-3.32800E-001	-2.87606E-004	8	..........a	0	-327.74
	6356	12.714	-3.36265E-001	-2.65366E-006	0.00000E+000	-3.35600E-001	-3.87606E-004	8	..........a	0	-327.74
	6384	12.77	-3.39082E-001	-3.01280E-006	0.00000E+000	-3.38400E-001	-2.37606E-004	8	..........a	0	-327.74
	6412	12.826	-3.41890E-001	-3.15612E-006	0.00000E+000	-3.41200E-001	-3.04272E-004	8	..........a	0	-327.74
	6440	12.882	-3.44669E-001	-3.31402E-006	0.00000E+000	-3.44000E-001	-3.62606E-004	8	..........a	0	-327.74
	6468	12.938	-3.47511E-001	-3.96106E-006	0.00000E+000	-3.46800E-001	-4.04272E-004	8	..........a	0	-327.74
	6496	12.994	-3.50315E-001	-4.30186E-006	0.00000E+000	-3.49600E-001	-3.37606E-004	8	..........a	0	-327.74
	6524	13.05	-3.53082E-001	-4.39977E-006	0.00000E+000	-3.52400E-001	-4.54272E-004	8	..........a	0	-327.74
	6552	13.106	-3.55823E-001	-4.79682E-006	0.00000E+000	-3.55200E-001	-2.95939E-004	8	..........a	0	-327.74
	6580	13.162	-3.58673E-001	-5.34011E-006	0.00000E+000	-3.58000E-001	-2.04272E-004	8	..........a	0	-327.74
	6608	13.218	-3.61444E-001	-5.09055E-006	0.00000E+000	-3.60800E-001	-1.62606E-004	8	..........a	0	-327.74
	6636	13.274	-3.64307E-001	-6.02089E-006	0.00000E+000	-3.63600E-001	-3.45939E-004	8	..........a	0	-327.74
	6664	13.33	-3.67082E-001	-6.69042E-006	0.00000E+000	-3.66400E-001	-2.79272E-004	8	..........a	0	-327.74
	6692	13.386	-3.69903E-001	-6.80166E-006	0.00000E+000	-3.69200E-001	-3.87606E-004	8	..........a	0	-327.74
	6720	13.442	-3.72694E-001	-7.67826E-006	0.00000E+000	-3.72000E-001	-2.87606E-004	8	..........a	0	-327.74
	6748	13.498	-3.75457E-001	-8.45236E-006	0.00000E+000	-3.74800E-001	-1.29272E-004	8	..........a	0	-327.74
	6776	13.554	-3.78211E-001	-9.13981E-006	0.00000E+000	-3.77600E-001	-2.04272E-004	8	..........a	0	-327.74
	6804	13.61	-3.81069E-001	-9.60685E-006	0.00000E+000	-3.80400E-001	-2.79272E-004	8	..........a	0	-327.74
	6832	13.666	-3.83882E-001	-1.07126E-005	0.00000E+000	-3.83200E-001	-3.12606E-004	8	..........a	0	-327.74
	6860	13.722	-3.86611E-001	-1.12826E-005	0.00000E+000	-3.86000E-001	-2.29272E-004	8	..........a	0	-327.74
	6888	13.778	-3.89386E-001	-1.24308E-005	0.00000E+000	-3.88800E-001	-4.45939E-004	8	..........a	0	-327.74
	6916	13.834	-3.92248E-001	-1.34215E-005	0.00000E+000	-3.91600E-001	-2.04272E-004	8	..........a	0	-327.74
	6944	13.89	-3.95082E-001	-1.44652E-005	0.00000E+000	-3.94400E-001	-2.87606E-004	8	..........a	0	-327.74
	6972	13.946	-3.97823E-001	-1.56289E-005	0.00000E+000	-3.97200E-001	-9.59389E-005	8	..........a	0	-327.74
	7000	14.002	-4.00615E-001	-1.75595E-005	0.00000E+000	-4.00000E-001	-2.79272E-004	8	..........a	0	-327.74
	7028	14.058	-4.03415E-001	-1.88774E-005	0.00000E+000	-4.02800E-001	-6.26056E-005	8	..........a	0	-327.74
	7056	14.114	-4.06203E-001	-2.04635E-005	0.00000E+000	-4.05600E-001	-3.12606E-004	8	..........a	0	-327.74
	7084	14.17	-4.09036E-001	-2.20463E-005	0.00000E+000	-4.08400E-001	-1.79272E-004	8	..........a	0	-327.74
	7112	14.226	-4.11782E-001	-2.37936E-005	0.00000E+000	-4.11200E-001	-2.45939E-004	8	..........a	0	-327.74
	7140	14.282	-4.14648E-001	-2.55002E-005	0.00000E+000	-4.14000E-001	-3.04272E-004	8	..........a	0	-327.74
	7168	14.338	-4.17473E-001	-2.81912E-005	0.00000E+000	-4.16800E-001	-3.20939E-004	8	..........a	0	-327.74
	7196	14.394	-4.20261E-001	-2.95711E-005	0.00000E+000	-4.19600E-001	-3.87606E-004	8	..........a	0	-327.74
	7224	14.45	-4.23019E-001	-3.25833E-005	0.00000E+000	-4.22400E-001	-1.95939E-004	8	..........a	0	-327.74
	7252	14.506	-4.25773E-001	-3.52098E-005	0.00000E+000	-4.25200E-001	-3.20939E-004	8	..........a	0	-327.74
	7280	14.562	-4.28661E-001	-3.75596E-005	0.00000E+000	-4.28000E-001	-3.04272E-004	8	..........a	0	-327.74
	7308	14.618	-4.31432E-001	-4.00927E-005	0.00000E+000	-4.30800E-001	-2.54272E-004	8	..........a	0	-327.74
	7336	14.674	-4.34232E-001	-4.39070E-005	0.00000E+000	-4.33600E-001	-4.54272E-004	8	..........a	0	-327.74
	7364	14.73	-4.36986E-001	-4.69880E-005	0.00000E+000	-4.36400E-001	-2.87606E-004	8	..........a	0	-327.74
	7392	14.786	-4.39798E-001	-5.01286E-005	0.00000E+000	-4.39200E-001	-2.95939E-004	8	..........a	0	-327.74
	7420	14.842	-4.42611E-001	-5.36991E-005	0.00000E+000	-4.42000E-001	-4.20939E-004	8	..........a	0	-327.74
	7448	14.898	-4.45348E-001	-5.71505E-005	0.00000E+000	-4.44800E-001	-3.70939E-004	8	..........a	0	-327.74
	7476	14.954	-4.48153E-001	-6.06148E-005	0.00000E+000	-4.47600E-001	-2.45939E-004	8	..........a	0	-327.74
	7504	15.01	-4.50903E-001	-6.46158E-005	0.00000E+000	-4.50400E-001	2.90611E-005	8	..........a	0	-327.74
	7532	15.066	-4.53757E-001	-6.92521E-005	0.00000E+000	-4.53200E-001	-1.95939E-004	8	..........a	0	-327.74
	7560	15.122	-4.56603E-001	-7.34734E-005	0.00000E+000	-4.56000E-001	-2.29272E-004	8	..........a	0	-327.74
	7588	15.178	-4.59473E-001	-7.78585E-005	0.00000E+000	-4.58800E-001	-7.04272E-004	8	..........a	0	-327.74
	7616	15.234	-4.62132E-001	-8.22169E-005	0.00000E+000	-4.61600E-001	-3.54272E-004	8	..........a	0	-327.74
	7644	15.29	-4.64961E-001	-8.66948E-005	0.00000E+000	-4.64400E-001	-5.04272E-004	8	..........a	0	-327.74
	7672	15.346	-4.67748E-001	-9.24369E-005	0.00000E+000	-4.67200E-001	-2.95939E-004	8	..........a	0	-327.74
	7700	15.402	-4.70611E-001	-9.81718E-005	0.00000E+000	-4.70000E-001	-3.87606E-004	8	..........a	0	-327.74
	7728	15.458	-4.73348E-001	-1.02916E-004	0.00000E+000	-4.72800E-001	-3.62606E-004	8	..........a	0	-327.74
	7756	15.514	-4.76086E-001	-1.09431E-004	0.00000E+000	-4.75600E-001	-2.87606E-004	8	..........a	0	-327.74
	7784	15.57	-4.78898E-001	-1.15143E-004	0.00000E+000	-4.78400E-001	-3.87606E-004	8	..........a	0	-327.74
	7812	15.626	-4.81690E-001	-1.21066E-004	0.00000E+000	-4.81200E-001	-2.95939E-004	8	..........a	0	-327.74
	7840	15.682	-4.84498E-001	-1.27400E-004	0.00000E+000	-4.84000E-001	-2.70939E-004	8	..........a	0	-327.74
	7868	15.738	-4.87265E-001	-1.34310E-004	0.00000E+000	-4.86800E-001	-3.45939E-004	8	..........a	0	-327.74
	7896	15.794	-4.90032E-001	-1.40900E-004	0.00000E+000	-4.89600E-001	-4.20939E-004	8	..........a	0	-327.74
	7924	15.85	-4.92882E-001	-1.47972E-004	0.00000E+000	-4.92400E-001	-4.04272E-004	8	..........a	0	-327.74
	7952	15.906	-4.95653E-001	-1.55931E-004	0.00000E+000	-4.95200E-001	-2.95939E-004	8	..........a	0	-327.74
	7980	15.962	-4.98365E-001	-1.63352E-004	0.00000E+000	-4.98000E-001	-3.20939E-004	8	..........a	0	-327.74
	8008	16.018	-5.01198E-001	-1.71645E-004	0.00000E+000	-5.00800E-001	-3.87606E-004	8	..........a	0	-327.74
	8036	16.074	-5.04032E-001	-1.81172E-004	0.00000E+000	-5.03600E-001	-3.54272E-004	8	..........a	0	-327.74
	8064	16.13	-5.06828E-001	-1.89733E-004	0.00000E+000	-5.06400E-001	-3.37606E-004	8	..........a	0	-327.74
	8092	16.186	-5.09653E-001	-1.99303E-004	0.00000E+000	-5.09200E-001	-2.54272E-004	8	..........a	0	-327.74
	8120	16.242	-5.12361E-001	-2.09060E-004	0.00000E+000	-5.12000E-001	-2.45939E-004	8	..........a	0	-327.74
	8148	16.298	-5.15207E-001	-2.18859E-004	0.00000E+000	-5.14800E-001	-2.79272E-004	8	..........a	0	-327.74
	8176	16.354	-5.17969E-001	-2.29193E-004	0.00000E+000	-5.17600E-001	-3.20939E-004	8	..........a	0	-327.74
	8204	16.41	-5.20707E-001	-2.40579E-004	0.00000E+000	-5.20400E-001	-3.54272E-004	8	..........a	0	-327.74
	8232	16.466	-5.23515E-001	-2.51149E-004	0.00000E+000	-5.23200E-001	-1.45939E-004	8	..........a	0	-327.74
	8260	16.522	-5.26303E-001	-2.62361E-004	0.00000E+000	-5.26000E-001	-3.37606E-004	8	..........a	0	-327.74
	8288	16.578	-5.29321E-001	-2.75941E-004	0.00000E+000	-5.28800E-001	-1.45939E-004	9	..........a	0	-327.74
	8316	16.634	-5.32083E-001	-2.86709E-004	0.00000E+000	-5.31600E-001	-1.04272E-004	9	..........a	0	-327.74
	8344	16.69	-5.34854E-001	-2.98071E-004	0.00000E+000	-5.34400E-001	-1.20939E-004	9	..........a	0	-327.74
	8372	16.746	-5.37696E-001	-3.10273E-004	0.00000E+000	-5.37200E-001	-2.45939E-004	9	..........a	0	-327.74
	8400	16.802	-5.40512E-001	-3.21819E-004	0.00000E+000	-5.40000E-001	-3.04272E-004	9	..........a	0	-327.74
	8428	16.858	-5.43358E-001	-3.32967E-004	0.00000E+000	-5.42800E-001	-1.79272E-004	9	..........a	0	-327.74
	8456	16.914	-5.46092E-001	-3.44028E-004	0.00000E+000	-5.45600E-001	-8.76056E-005	9	..........a	0	-327.74
	8484	16.97	-5.48925E-001	-3.54751E-004	0.00000E+000	-5.48400E-001	-1.45939E-004	9	..........a	0	-327.74
	8512	17.026	-5.51700E-001	-3.64692E-004	0.00000E+000	-5.51200E-001	-1.70939E-004	9	..........a	0	-327.74
	8540	17.082	-5.54483E-001	-3.75832E-004	0.00000E+000	-5.54000E-001	-2.62606E-004	9	..........a	0	-327.74
	8568	17.138	-5.57267E-001	-3.86939E-004	0.00000E+000	-5.56800E-001	-1.54272E-004	9	..........a	0	-327.74
	8596	17.194	-5.60129E-001	-3.95815E-004	0.00000E+000	-5.59600E-001	-2.62606E-004	9	..........a	0	-327.74
	8624	17.25	-5.62917E-001	-4.05225E-004	0.00000E+000	-5.62400E-001	-3.29272E-004	9	..........a	0	-327.74
	8652	17.306	-5.65687E-001	-4.12404E-004	0.00000E+000	-5.65200E-001	-2.37606E-004	9	..........a	0	-327.74
	8680	17.362	-5.68462E-001	-4.18421E-004	0.00000E+000	-5.68000E-001	-1.04272E-004	9	..........a	0	-327.74
	8708	17.418	-5.71242E-001	-4.24936E-004	0.00000E+000	-5.70800E-001	-1.70939E-004	9	..........a	0	-327.74
	8736	17.474	-5.74108E-001	-4.31108E-004	0.00000E+000	-5.73600E-001	-2.04272E-004	9	..........a	0	-327.74
	8764	17.53	-5.76912E-001	-4.34330E-004	0.00000E+000	-5.76400E-001	-4.04272E-004	9	..........a	0	-327.74
	8792	17.586	-5.79742E-001	-4.38721E-004	0.00000E+000	-5.79200E-001	-4.12606E-004	9	..........a	0	-327.74
	8820	17.642	-5.82508E-001	-4.42190E-004	0.00000E+000	-5.82000E-001	-3.12606E-004	9	..........a	0	-327.74
	8848	17.698	-5.85312E-001	-4.46368E-004	0.00000E+000	-5.84800E-001	-3.45939E-004	9	..........a	0	-327.74
	8876	17.754	-5.88083E-001	-4.50271E-004	0.00000E+000	-5.87600E-001	1.04061E-004	9	..........a	0	-327.74
	8904	17.81	-5.90908E-001	-4.53740E-004	0.00000E+000	-5.90400E-001	-2.54272E-004	9	..........a	0	-327.74
	8932	17.866	-5.93700E-001	-4.56485E-004	0.00000E+000	-5.93200E-001	-2.87606E-004	9	..........a	0	-327.74
	8960	17.922	-5.96425E-001	-4.58516E-004	0.00000E+000	-5.96000E-001	-3.12606E-004	9	..........a	0	-327.74
	8988	17.978	-5.99321E-001	-4.61148E-004	0.00000E+000	-5.98800E-001	-2.04272E-004	9	..........a	0	-327.74
	9016	18.034	-6.02046E-001	-4.62431E-004	0.00000E+000	-6.01600E-001	-8.76056E-005	9	..........a	0	-327.74
	9044	18.09	-6.04900E-001	-4.63413E-004	0.00000E+000	-6.04400E-001	-1.79272E-004	9	..........a	0	-327.74
	9072	18.146	-6.07667E-001	-4.65260E-004	0.00000E+000	-6.07200E-001	-1.29272E-004	9	..........a	0	-327.74
	9100	18.202	-6.10500E-001	-4.65620E-004	0.00000E+000	-6.10000E-001	-3.95939E-004	9	..........a	0	-327.74
	9128	18.258	-6.13250E-001	-4.66539E-004	0.00000E+000	-6.12800E-001	-2.12606E-004	9	..........a	0	-327.74
	9156	18.314	-6.16083E-001	-4.67943E-004	0.00000E+000	-6.15600E-001	-2.45939E-004	9	..........a	0	-327.74
	9184	18.37	-6.18767E-001	-4.69105E-004	0.00000E+000	-6.18400E-001	-1.54272E-004	9	..........a	0	-327.74
	9212	18.426	-6.21617E-001	-4.70241E-004	0.00000E+000	-6.21200E-001	-7.09389E-005	9	..........a	0	-327.74
	9240	18.482	-6.24412E-001	-4.70291E-004	0.00000E+000	-6.24000E-001	-2.37606E-004	9	..........a	0	-327.74
	9268	18.538	-6.27262E-001	-4.71382E-004	0.00000E+000	-6.26800E-001	-3.20939E-004	9	..........a	0	-327.74
	9296	18.594	-6.30037E-001	-4.72385E-004	0.00000E+000	-6.29600E-001	-1.37606E-004	9	..........a	0	-327.74
	9324	18.65	-6.32867E-001	-4.72966E-004	0.00000E+000	-6.32400E-001	-2.29272E-004	9	..........a	0	-327.74
	9352	18.706	-6.35554E-001	-4.73735E-004	0.00000E+000	-6.35200E-001	-1.26055E-005	9	..........a	0	-327.74
	9380	18.762	-6.38437E-001	-4.75644E-004	0.00000E+000	-6.38000E-001	-2.70939E-004	9	..........a	0	-327.74
	9408	18.818	-6.41275E-001	-4.76083E-004	0.00000E+000	-6.40800E-001	-2.29272E-004	9	..........a	0	-327.74
	9436	18.874	-6.44083E-001	-4.75987E-004	0.00000E+000	-6.43600E-001	-1.79272E-004	9	..........a	0	-327.74
	9464	18.93	-6.46837E-001	-4.75043E-004	0.00000E+000	-6.46400E-001	-2.12606E-004	9	..........a	0	-327.74
	9492	18.986	-6.49671E-001	-4.74441E-004	0.00000E+000	-6.49200E-001	-2.29272E-004	9	..........a	0	-327.74
	9520	19.042	-6.52429E-001	-4.74742E-004	0.00000E+000	-6.52000E-001	-1.95939E-004	9	..........a	0	-327.74
	9548	19.098	-6.55196E-001	-4.73956E-004	0.00000E+000	-6.54800E-001	-1.54272E-004	9	..........a	0	-327.74
	9576	19.154	-6.58017E-001	-4.74855E-004	0.00000E+000	-6.57600E-001	-2.37606E-004	9	..........a	0	-327.74
	9604	19.21	-6.60804E-001	-4.75636E-004	0.00000E+000	-6.60400E-001	-2.09389E-005	9	..........a	0	-327.74
	9632	19.266	-6.63646E-001	-4.76050E-004	0.00000E+000	-6.63200E-001	-1.87606E-004	9	..........a	0	-327.74
	9660	19.322	-6.66471E-001	-4.76555E-004	0.00000E+000	-6.66000E-001	-2.87606E-004	9	..........a	0	-327.74
	9688	19.378	-6.69154E-001	-4.77207E-004	0.00000E+000	-6.68800E-001	-1.37606E-004	9	..........a	0	-327.74
	9716	19.434	-6.72033E-001	-4.77709E-004	0.00000E+000	-6.71600E-001	4.06111E-006	9	..........a	0	-327.74
	9744	19.49	-6.74733E-001	-4.76062E-004	0.00000E+000	-6.74400E-001	-7.09389E-005	9	..........a	0	-327.74
	9772	19.546	-6.77596E-001	-4.76685E-004	0.00000E+000	-6.77200E-001	-9.59389E-005	9	..........a	0	-327.74
	9800	19.602	-6.80433E-001	-4.76873E-004	0.00000E+000	-6.80000E-001	-3.04272E-004	9	..........a	0	-327.74
	9828	19.658	-6.83204E-001	-4.76188E-004	0.00000E+000	-6.82800E-001	-2.20939E-004	9	..........a	0	-327.74
	9856	19.714	-6.86012E-001	-4.77416E-004	0.00000E+000	-6.85600E-001	-1.04272E-004	9	..........a	0	-327.74
	9884	19.77	-6.88837E-001	-4.77775E-004	0.00000E+000	-6.88400E-001	-1.95939E-004	9	..........a	0	-327.74
	9912	19.826	-6.91558E-001	-4.77408E-004	0.00000E+000	-6.91200E-001	-1.04272E-004	9	..........a	0	-327.74
	9940	19.882	-6.94433E-001	-4.77537E-004	0.00000E+000	-6.94000E-001	-1.95939E-004	9	..........a	0	-327.74
	9968	19.938	-6.97250E-001	-4.78837E-004	0.00000E+000	-6.96800E-001	-2.79272E-004	9	..........a	0	-327.74
	9996	19.994	-6.99967E-001	-4.79109E-004	0.00000E+000	-6.99600E-001	-3.76056E-005	9	..........a	0	-327.74
	10024	20.05	-7.02817E-001	-4.79719E-004	0.00000E+000	-7.02400E-001	-2.45939E-004	9	..........a	0	-327.74
	10052	20.106	-7.05587E-001	-4.79982E-004	0.00000E+000	-7.05200E-001	-4.27222E-006	9	..........a	0	-327.74
	10080	20.162	-7.08417E-001	-4.79618E-004	0.00000E+000	-7.08000E-001	-9.59389E-005	9	..........a	0	-327.74
	10108	20.218	-7.11158E-001	-4.79535E-004	0.00000E+000	-7.10800E-001	-7.09389E-005	9	..........a	0	-327.74
	10136	20.274	-7.14008E-001	-4.79489E-004	0.00000E+000	-7.13600E-001	-2.54272E-004	9	..........a	0	-327.74
	10164	20.33	-7.16783E-001	-4.80044E-004	0.00000E+000	-7.16400E-001	-1.12606E-004	9	..........a	0	-327.74
	10192	20.386	-7.19546E-001	-4.80216E-004	0.00000E+000	-7.19200E-001	-4.59389E-005	9	..........a	0	-327.74
	10220	20.442	-7.22337E-001	-4.80007E-004	0.00000E+000	-7.22000E-001	3.73944E-005	9	..........a	0	-327.74
	10248	20.498	-7.25179E-001	-4.79923E-004	0.00000E+000	-7.24800E-001	9.57278E-005	9	..........a	0	-327.74
	10276	20.554	-7.27996E-001	-4.79234E-004	0.00000E+000	-7.27600E-001	8.73944E-005	9	..........a	0	-327.74
	10304	20.61	-7.30758E-001	-4.78816E-004	0.00000E+000	-7.30400E-001	4.57278E-005	9	..........a	0	-327.74
	10332	20.666	-7.33533E-001	-4.78691E-004	0.00000E+000	-7.33200E-001	-8.76056E-005	9	..........a	0	-327.74
	10360	20.722	-7.36367E-001	-4.79777E-004	0.00000E+000	-7.36000E-001	-3.76056E-005	9	..........a	0	-327.74
	10388	20.778	-7.39192E-001	-4.78829E-004	0.00000E+000	-7.38800E-001	-1.26055E-005	9	..........a	0	-327.74
	10416	20.834	-7.41975E-001	-4.79071E-004	0.00000E+000	-7.41600E-001	2.07278E-005	9	..........a	0	-327.74
	10444	20.89	-7.44662E-001	-4.79986E-004	0.00000E+000	-7.44400E-001	1.45728E-004	9	..........a	0	-327.74
	10472	20.946	-7.47512E-001	-4.79510E-004	0.00000E+000	-7.47200E-001	-6.26056E-005	9	..........a	0	-327.74
	10500	21.002	-7.50446E-001	-4.79961E-004	0.00000E+000	-7.50000E-001	-2.92722E-005	9	..........a	0	-327.74
	10528	21.058	-7.53150E-001	-4.79886E-004	0.00000E+000	-7.52800E-001	-6.26056E-005	9	..........a	0	-327.74
	10556	21.114	-7.55983E-001	-4.79288E-004	0.00000E+000	-7.55600E-001	-1.45939E-004	9	..........a	0	-327.74
	10584	21.17	-7.58783E-001	-4.79271E-004	0.00000E+000	-7.58400E-001	-1.29272E-004	9	..........a	0	-327.74
	10612	21.226	-7.61558E-001	-4.79840E-004	0.00000E+000	-7.61200E-001	5.40611E-005	9	..........a	0	-327.74
	10640	21.282	-7.64396E-001	-4.81181E-004	0.00000E+000	-7.64000E-001	-8.76056E-005	9	..........a	0	-327.74
	10668	21.338	-7.67142E-001	-4.81156E-004	0.00000E+000	-7.66800E-001	-2.92722E-005	9	..........a	0	-327.74
	10696	21.394	-7.69929E-001	-4.80166E-004	0.00000E+000	-7.69600E-001	-7.09389E-005	9	..........a	0	-327.74
	10724	21.45	-7.72800E-001	-4.79765E-004	0.00000E+000	-7.72400E-001	-8.76056E-005	9	..........a	0	-327.74
	10752	21.506	-7.75554E-001	-4.80044E-004	0.00000E+000	-7.75200E-001	-2.92722E-005	9	..........a	0	-327.74
	10780	21.562	-7.78296E-001	-4.78900E-004	0.00000E+000	-7.78000E-001	3.73944E-005	9	..........a	0	-327.74
	10808	21.618	-7.81133E-001	-4.78248E-004	0.00000E+000	-7.80800E-001	-7.09389E-005	9	..........a	0	-327.74
	10836	21.674	-7.83933E-001	-4.78327E-004	0.00000E+000	-7.83600E-001	2.90611E-005	9	..........a	0	-327.74
	10864	21.73	-7.86771E-001	-4.78093E-004	0.00000E+000	-7.86400E-001	-7.92722E-005	9	..........a	0	-327.74
	10892	21.786	-7.89525E-001	-4.78724E-004	0.00000E+000	-7.89200E-001	-3.76056E-005	9	..........a	0	-327.74
	10920	21.842	-7.92350E-001	-4.80425E-004	0.00000E+000	-7.92000E-001	1.23945E-005	9	..........a	0	-327.74
	10948	21.898	-7.95096E-001	-4.81545E-004	0.00000E+000	-7.94800E-001	6.23944E-005	9	..........a	0	-327.74
	10976	21.954	-7.97892E-001	-4.80976E-004	0.00000E+000	-7.97600E-001	-7.92722E-005	9	..........a	0	-327.74
	11004	22.01	-8.00733E-001	-4.80592E-004	0.00000E+000	-8.00400E-001	5.40611E-005	9	..........a	0	-327.74
	11032	22.066	-8.03596E-001	-4.79735E-004	0.00000E+000	-8.03200E-001	-7.09389E-005	9	..........a	0	-327.74
	11060	22.122	-8.06325E-001	-4.80525E-004	0.00000E+000	-8.06000E-001	-1.37606E-004	9	..........a	0	-327.74
	11088	22.178	-8.09146E-001	-4.79735E-004	0.00000E+000	-8.08800E-001	-4.59389E-005	9	..........a	0	-327.74
	11116	22.234	-8.11933E-001	-4.77470E-004	0.00000E+000	-8.11600E-001	-3.76056E-005	9	..........a	0	-327.74
	11144	22.29	-8.14742E-001	-4.77667E-004	0.00000E+000	-8.14400E-001	-7.09389E-005	9	..........a	0	-327.74
	11172	22.346	-8.17542E-001	-4.78975E-004	0.00000E+000	-8.17200E-001	5.40611E-005	9	..........a	0	-327.74
	11200	22.402	-8.20321E-001	-4.81950E-004	0.00000E+000	-8.20000E-001	-1.95939E-004	9	..........a	0	-327.74
	11228	22.458	-8.23112E-001	-4.82865E-004	0.00000E+000	-8.22800E-001	-2.04272E-004	9	..........a	0	-327.74
	11256	22.514	-8.25917E-001	-4.81478E-004	0.00000E+000	-8.25600E-001	-1.62606E-004	9	..........a	0	-327.74
	11284	22.57	-8.28767E-001	-4.79200E-004	0.00000E+000	-8.28400E-001	1.29061E-004	9	..........a	0	-327.74
	11312	22.626	-8.31512E-001	-4.78415E-004	0.00000E+000	-8.31200E-001	7.07278E-005	9	..........a	0	-327.74
	11340	22.682	-8.34237E-001	-4.78599E-004	0.00000E+000	-8.34000E-001	1.29061E-004	9	..........a	0	-327.74
	11368	22.738	-8.37096E-001	-4.78411E-004	0.00000E+000	-8.36800E-001	-1.70939E-004	9	..........a	0	-327.74
	11396	22.794	-8.39833E-001	-4.79213E-004	0.00000E+000	-8.39600E-001	4.06111E-006	9	..........a	0	-327.74
	11424	22.85	-8.42683E-001	-4.80095E-004	0.00000E+000	-8.42400E-001	2.07278E-005	9	..........a	0	-327.74
	11452	22.906	-8.45458E-001	-4.80496E-004	0.00000E+000	-8.45200E-001	-4.27222E-006	9	..........a	0	-327.74
	11480	22.962	-8.48250E-001	-4.79522E-004	0.00000E+000	-8.48000E-001	-7.09389E-005	9	..........a	0	-327.74
	11508	23.018	-8.51100E-001	-4.79309E-004	0.00000E+000	-8.50800E-001	-3.76056E-005	9	..........a	0	-327.74
	11536	23.074	-8.53908E-001	-4.78285E-004	0.00000E+000	-8.53600E-001	-1.70939E-004	9	..........a	0	-327.74
	11564	23.13	-8.56571E-001	-4.77475E-004	0.00000E+000	-8.56400E-001	1.20728E-004	9	..........a	0	-327.74
	11592	23.186	-8.59446E-001	-4.77270E-004	0.00000E+000	-8.59200E-001	-5.42722E-005	9	..........a	0	-327.74
	11620	23.242	-8.62267E-001	-4.77750E-004	0.00000E+000	-8.62000E-001	-2.09389E-005	9	..........a	0	-327.74
	11648	23.298	-8.65108E-001	-4.77546E-004	0.00000E+000	-8.64800E-001	-1.12606E-004	9	..........a	0	-327.74
	11676	23.354	-8.67796E-001	-4.78323E-004	0.00000E+000	-8.67600E-001	-1.04272E-004	9	..........a	0	-327.74
	11704	23.41	-8.70642E-001	-4.79685E-004	0.00000E+000	-8.70400E-001	1.29061E-004	9	..........a	0	-327.74
	11732	23.466	-8.73496E-001	-4.80508E-004	0.00000E+000	-8.73200E-001	-1.26055E-005	9	..........a	0	-327.74
	11760	23.522	-8.76221E-001	-4.80684E-004	0.00000E+000	-8.76000E-001	-4.27222E-006	9	..........a	0	-327.74
	11788	23.578	-8.79050E-001	-4.81449E-004	0.00000E+000	-8.78800E-001	2.07278E-005	9	..........a	0	-327.74
	11816	23.634	-8.81812E-001	-4.81946E-004	0.00000E+000	-8.81600E-001	1.54061E-004	9	..........a	0	-327.74
	11844	23.69	-8.84654E-001	-4.81093E-004	0.00000E+000	-8.84400E-001	8.73944E-005	9	..........a	0	-327.74
	11872	23.746	-8.87446E-001	-4.79347E-004	0.00000E+000	-8.87200E-001	1.29061E-004	9	..........a	0	-327.74
	11900	23.802	-8.90225E-001	-4.78198E-004	0.00000E+000	-8.90000E-001	-4.59389E-005	9	..........a	0	-327.74
	11928	23.858	-8.93104E-001	-4.78620E-004	0.00000E+000	-8.92800E-001	-2.20939E-004	9	..........a	0	-327.74
	11956	23.914	-8.95842E-001	-4.80116E-004	0.00000E+000	-8.95600E-001	4.06111E-006	9	..........a	0	-327.74
	11984	23.97	-8.98629E-001	-4.79698E-004	0.00000E+000	-8.98400E-001	-3.76056E-005	9	..........a	0	-327.74
	12012	24.026	-9.01487E-001	-4.79673E-004	0.00000E+000	-9.01200E-001	7.90611E-005	9	..........a	0	-327.74
	12040	24.082	-9.04287E-001	-4.79639E-004	0.00000E+000	-9.04000E-001	8.73944E-005	9	..........a	0	-327.74
	12068	24.138	-9.07112E-001	-4.79443E-004	0.00000E+000	-9.06800E-001	6.23944E-005	9	..........a	0	-327.74
	12096	24.194	-9.09879E-001	-4.80496E-004	0.00000E+000	-9.09600E-001	-1.37606E-004	9	..........a	0	-327.74
	12124	24.25	-9.12621E-001	-4.80024E-004	0.00000E+000	-9.12400E-001	-7.09389E-005	9	..........a	0	-327.74
	12152	24.306	-9.15467E-001	-4.78916E-004	0.00000E+000	-9.15200E-001	-2.92722E-005	9	..........a	0	-327.74
	12180	24.362	-9.18242E-001	-4.78691E-004	0.00000E+000	-9.18000E-001	1.23945E-005	9	..........a	0	-327.74
	12208	24.418	-9.21029E-001	-4.80634E-004	0.00000E+000	-9.20800E-001	1.45728E-004	9	..........a	0	-327.74
	12236	24.474	-9.23846E-001	-4.78712E-004	0.00000E+000	-9.23600E-001	-1.54272E-004	9	..........a	0	-327.74
	12264	24.53	-9.26637E-001	-4.77157E-004	0.00000E+000	-9.26400E-001	1.23945E-005	9	..........a	0	-327.74
	12292	24.586	-9.29479E-001	-4.79564E-004	0.00000E+000	-9.29200E-001	7.07278E-005	9	..........a	0	-327.74
	12320	24.642	-9.32242E-001	-4.80763E-004	0.00000E+000	-9.32000E-001	4.57278E-005	9	..........a	0	-327.74
	12348	24.698	-9.35029E-001	-4.81156E-004	0.00000E+000	-9.34800E-001	4.06111E-006	9	..........a	0	-327.74
	12376	24.754	-9.37850E-001	-4.81557E-004	0.00000E+000	-9.37600E-001	-1.26055E-005	9	..........a	0	-327.74
	12404	24.81	-9.40675E-001	-4.81373E-004	0.00000E+000	-9.40400E-001	-2.09389E-005	9	..........a	0	-327.74
	12432	24.866	-9.43462E-001	-4.80375E-004	0.00000E+000	-9.43200E-001	-1.54272E-004	9	..........a	0	-327.74
	12460	24.922	-9.46271E-001	-4.79856E-004	0.00000E+000	-9.46000E-001	-1.12606E-004	9	..........a	0	-327.74
	12488	24.978	-9.49017E-001	-4.79334E-004	0.00000E+000	-9.48800E-001	-3.76056E-005	9	..........a	0	-327.74
	12516	25.034	-9.51862E-001	-4.79627E-004	0.00000E+000	-9.51600E-001	-2.92722E-005	9	..........a	0	-327.74
	12544	25.09	-9.54600E-001	-4.80049E-004	0.00000E+000	-9.54400E-001	-2.09389E-005	9	..........a	0	-327.74
	12572	25.146	-9.57375E-001	-4.80441E-004	0.00000E+000	-9.57200E-001	3.73944E-005	9	..........a	0	-327.74
	12600	25.202	-9.60196E-001	-4.80838E-004	0.00000E+000	-9.60000E-001	7.90611E-005	9	..........a	0	-327.74
	12628	25.258	-9.63071E-001	-4.81306E-004	0.00000E+000	-9.62800E-001	-1.62606E-004	9	..........a	0	-327.74
	12656	25.314	-9.65862E-001	-4.82635E-004	0.00000E+000	-9.65600E-001	-5.42722E-005	9	..........a	0	-327.74
	12684	25.37	-9.68587E-001	-4.82848E-004	0.00000E+000	-9.68400E-001	-1.26055E-005	9	..........a	0	-327.74
	12712	25.426	-9.71437E-001	-4.82406E-004	0.00000E+000	-9.71200E-001	-2.09389E-005	9	..........a	0	-327.74
	12740	25.482	-9.74204E-001	-4.82259E-004	0.00000E+000	-9.74000E-001	5.40611E-005	9	..........a	0	-327.74
	12768	25.538	-9.77050E-001	-4.81286E-004	0.00000E+000	-9.76800E-001	-3.76056E-005	9	..........a	0	-327.74
	12796	25.594	-9.79712E-001	-4.80922E-004	0.00000E+000	-9.79600E-001	-2.09389E-005	9	..........a	0	-327.74
	12824	25.65	-9.82671E-001	-4.80350E-004	0.00000E+000	-9.82400E-001	-6.26056E-005	9	..........a	0	-327.74
	12852	25.706	-9.85400E-001	-4.79902E-004	0.00000E+000	-9.85200E-001	5.40611E-005	9	..........a	0	-327.74
	12880	25.762	-9.88262E-001	-4.80454E-004	0.00000E+000	-9.88000E-001	-1.54272E-004	9	..........a	0	-327.74
	12908	25.818	-9.90946E-001	-4.80780E-004	0.00000E+000	-9.90800E-001	-6.26056E-005	9	..........a	0	-327.74
	12936	25.874	-9.93854E-001	-4.81528E-004	0.00000E+000	-9.93600E-001	-9.59389E-005	9	..........a	0	-327.74
	12964	25.93	-9.96592E-001	-4.81758E-004	0.00000E+000	-9.96400E-001	2.07278E-005	9	..........a	0	-327.74
	12992	25.986	-9.99404E-001	-4.82314E-004	0.00000E+000	-9.99200E-001	3.73944E-005	9	..........a	0	-327.74
	13000	26.002	-1.00023E+000	-4.82167E-004	0.00000E+000	-1.00000E+000	-4.27222E-006	9	..........a	0	-327.74