File: data/02-SI/Figures_S9_S11_RDE/14btmapaq-rde/1mkcl--5mmolar14btmapaq-nitrogen-rde-2500-50mvpers.DTA
EXPLAIN
TAG	LSV
TITLE	LABEL	Linear Sweep Voltammetry	Test &Identifier
DATE	LABEL	1/31/2023	Date
TIME	LABEL	13:14:01	Time
NOTES	NOTES	1	&Notes...

PSTAT	PSTAT	REF3000-21108	Potentiostat
VINIT	POTEN	3.00000E-001	F	&Initial E (V)
VFINAL	POTEN	-1.00000E+000	F	&Final E (V)
SCANRATE	QUANT	4.99999E+001	&Scan Rate (mV/s)
STEPSIZE	QUANT	1.00000E-001	St&ep Size (mV)
IMODE	SELECTOR	0	I/E Range &Mode
IRANGE	QUANT	1.00000E+002	&Max Current (mA)
AREA	QUANT	1.00000E+000	Electrode &Area (cm^2)
ELECTRODETYPE	SELECTOR	0	Electrode Type
STRIPPING	TOGGLE	F	Used for Stripping
POLARITY	TOGGLE	F	Signal Polarity
CONDIT	TWOPARAM	F	1.50000E+001	0.00000E+000	Conditionin&g	Time(s)	E(V)
DELAY	TWOPARAM	F	3.00000E+001	0.00000E+000	Init. De&lay	Time(s)	Stab.(mV/s)
EQDELAY	QUANT	0.00000E+000	Equil. &Time (s)
IRCOMP	SELECTOR	0	IRCom&p
PFCOR	QUANT	5.00000E+001	PF Corr. (ohm)
SAMPLINGMODE	SELECTOR	1	Sampling &Mode
EOC	QUANT	0	Open Circuit (V)
PSTATMODEL	IQUANT	5	Pstat Model
PSTATSECTION	LABEL	REF3000-21108	Pstat Section
PSTATSERIALNO	LABEL	21108	Pstat Serial Number
CTRLMODE	IQUANT	1	Control Mode
ELECTROMETER	IQUANT	0	RE=0 or CS=1
IESTAB	IQUANT	2	I/E Stability
CASPEED	IQUANT	4	Control Amp Speed
CONVENTION	IQUANT	1	Current Convention
ICHRANGE	IQUANT	2	Ich Range
ICHRANGEMODE	TOGGLE	F	Ich Auto Range
ICHOFFSETENABLE	TOGGLE	F	Ich Offset Enable
ICHOFFSET	QUANT	0	Ich Offset (V)
ICHFILTER	IQUANT	2	Ich Filter
VCHRANGE	IQUANT	2	Vch Range
VCHRANGEMODE	TOGGLE	T	Vch Auto Range
VCHOFFSETENABLE	TOGGLE	F	Vch Offset Enable
VCHOFFSET	QUANT	0	Vch Offset (V)
VCHFILTER	IQUANT	2	Vch Filter
ACHRANGE	IQUANT	2	Ach Range
ACHOFFSETENABLE	TOGGLE	F	Ach Offset Enable
ACHOFFSET	QUANT	0	Ach Offset (V)
ACHFILTER	IQUANT	0	Ach Filter
IERANGELOWERLIMIT	IQUANT	2	I/E Range Lower Limit
IERANGEMODE	TOGGLE	T	I/E AutoRange
IERANGE	IQUANT	11	I/E Range
POSFEEDENABLE	TOGGLE	F	Positive Feedback IR Comp
POSFEEDRESISTANCE	QUANT	0	Positive Feedback Resistance (ohm)
ACHSELECT	IQUANT	0	Ach Select
SENSECABLEID	IQUANT	14	Sense Cable ID
PWRCABLEID	IQUANT	7	Power Cable ID
DCCALDATE	LABEL	11/9/2022	DC Calibration Date
ACCALDATE	LABEL	11/9/2022	AC Calibration Date
THERMOSELECT	IQUANT	1	Thermo Select
FRAMEWORKVERSION	LABEL	7.8.2	Framework Version
INSTRUMENTVERSION	LABEL	4.40	Instrument Version
COMPLIANCEVOLTAGE	IQUANT	0	Compliance Voltage
CURVE	TABLE	13001
	Pt	T	Vf	Im	Vu	Sig	Ach	IERange	Over	Cycle	Temp
	#	s	V vs. Ref.	A	V	V	V	#	bits	#	deg C
	0	0.002	2.99763E-001	-3.33755E-005	0.00000E+000	3.00000E-001	-7.95939E-004	11	..........a	0	-327.74
	28	0.058	2.95985E-001	1.14827E-005	0.00000E+000	2.97200E-001	-7.95939E-004	8	..........a	0	-327.74
	56	0.114	2.93252E-001	9.93991E-006	0.00000E+000	2.94400E-001	-8.04272E-004	8	..........a	0	-327.74
	84	0.17	2.90472E-001	7.37303E-006	0.00000E+000	2.91600E-001	-8.54272E-004	8	..........a	0	-327.74
	112	0.226	2.87672E-001	6.25437E-006	0.00000E+000	2.88800E-001	-8.20939E-004	8	..........a	0	-327.74
	140	0.282	2.84827E-001	6.89724E-006	0.00000E+000	2.86000E-001	-7.62605E-004	8	..........a	0	-327.74
	168	0.338	2.82027E-001	5.49860E-006	0.00000E+000	2.83200E-001	-8.87605E-004	8	..........a	0	-327.74
	196	0.394	2.79302E-001	5.33112E-006	0.00000E+000	2.80400E-001	-8.70939E-004	8	..........a	0	-327.74
	224	0.45	2.76439E-001	5.60193E-006	0.00000E+000	2.77600E-001	-8.20939E-004	8	..........a	0	-327.74
	252	0.506	2.73643E-001	4.22037E-006	0.00000E+000	2.74800E-001	-8.45939E-004	8	..........a	0	-327.74
	280	0.562	2.70868E-001	4.47202E-006	0.00000E+000	2.72000E-001	-8.29272E-004	8	..........a	0	-327.74
	308	0.618	2.68068E-001	4.31495E-006	0.00000E+000	2.69200E-001	-8.54272E-004	8	..........a	0	-327.74
	336	0.674	2.65210E-001	3.14254E-006	0.00000E+000	2.66400E-001	-8.29272E-004	8	..........a	0	-327.74
	364	0.73	2.62435E-001	3.39627E-006	0.00000E+000	2.63600E-001	-8.37606E-004	8	..........a	0	-327.74
	392	0.786	2.59627E-001	3.68500E-006	0.00000E+000	2.60800E-001	-8.20939E-004	8	..........a	0	-327.74
	420	0.842	2.56868E-001	2.44843E-006	0.00000E+000	2.58000E-001	-8.62605E-004	8	..........a	0	-327.74
	448	0.898	2.54060E-001	2.25928E-006	0.00000E+000	2.55200E-001	-8.62605E-004	8	..........a	0	-327.74
	476	0.954	2.51227E-001	2.31761E-006	0.00000E+000	2.52400E-001	-8.54272E-004	8	..........a	0	-327.74
	504	1.01	2.48422E-001	1.36602E-006	0.00000E+000	2.49600E-001	-8.45939E-004	8	..........a	0	-327.74
	532	1.066	2.45727E-001	1.78682E-006	0.00000E+000	2.46800E-001	-7.70939E-004	8	..........a	0	-327.74
	560	1.122	2.42783E-001	1.96180E-006	0.00000E+000	2.44000E-001	-8.79272E-004	8	......s...a	0	-327.74
	588	1.178	2.39978E-001	8.13145E-007	0.00000E+000	2.41200E-001	-8.62605E-004	8	..........a	0	-327.74
	616	1.234	2.37168E-001	1.10020E-006	0.00000E+000	2.38400E-001	-8.37606E-004	8	..........a	0	-327.74
	644	1.29	2.34390E-001	1.80765E-006	0.00000E+000	2.35600E-001	-8.29272E-004	8	..........a	0	-327.74
	672	1.346	2.31582E-001	5.71497E-007	0.00000E+000	2.32800E-001	-8.54272E-004	8	..........a	0	-327.74
	700	1.402	2.28788E-001	1.35685E-006	0.00000E+000	2.30000E-001	-8.54272E-004	8	..........a	0	-327.74
	728	1.458	2.25981E-001	1.38185E-006	0.00000E+000	2.27200E-001	-7.70939E-004	8	..........a	0	-327.74
	756	1.514	2.23191E-001	5.23585E-007	0.00000E+000	2.24400E-001	-8.45939E-004	8	..........a	0	-327.74
	784	1.57	2.20408E-001	1.26061E-006	0.00000E+000	2.21600E-001	-8.87605E-004	8	..........a	0	-327.74
	812	1.626	2.17604E-001	1.41018E-006	0.00000E+000	2.18800E-001	-8.54272E-004	8	..........a	0	-327.74
	840	1.682	2.14792E-001	3.89012E-007	0.00000E+000	2.16000E-001	-8.20939E-004	8	..........a	0	-327.74
	868	1.738	2.11999E-001	6.68156E-007	0.00000E+000	2.13200E-001	-8.54272E-004	8	..........a	0	-327.74
	896	1.794	2.09198E-001	9.99380E-007	0.00000E+000	2.10400E-001	-8.04272E-004	8	..........a	0	-327.74
	924	1.85	2.06396E-001	1.90417E-008	0.00000E+000	2.07600E-001	-8.04272E-004	8	..........a	0	-327.74
	952	1.906	2.03606E-001	4.60673E-007	0.00000E+000	2.04800E-001	-8.20939E-004	8	..........a	0	-327.74
	980	1.962	2.00812E-001	9.91047E-007	0.00000E+000	2.02000E-001	-8.62605E-004	8	..........a	0	-327.74
	1008	2.018	1.97992E-001	1.19034E-007	0.00000E+000	1.99200E-001	-7.87605E-004	8	..........a	0	-327.74
	1036	2.074	1.95192E-001	1.85695E-007	0.00000E+000	1.96400E-001	-8.20939E-004	8	..........a	0	-327.74
	1064	2.13	1.92409E-001	4.12343E-007	0.00000E+000	1.93600E-001	-7.70939E-004	8	..........a	0	-327.74
	1092	2.186	1.89598E-001	-1.86358E-007	0.00000E+000	1.90800E-001	-7.87605E-004	8	..........a	0	-327.74
	1120	2.242	1.86831E-001	3.98178E-007	0.00000E+000	1.88000E-001	-8.12605E-004	8	..........a	0	-327.74
	1148	2.298	1.84023E-001	4.33175E-007	0.00000E+000	1.85200E-001	-7.70939E-004	8	..........a	0	-327.74
	1176	2.354	1.81212E-001	-4.83835E-007	0.00000E+000	1.82400E-001	-8.29272E-004	8	..........a	0	-327.74
	1204	2.41	1.78426E-001	7.67315E-007	0.00000E+000	1.79600E-001	-8.37606E-004	8	..........a	0	-327.74
	1232	2.466	1.75620E-001	4.84838E-007	0.00000E+000	1.76800E-001	-8.04272E-004	8	..........a	0	-327.74
	1260	2.522	1.72832E-001	-1.63444E-007	0.00000E+000	1.74000E-001	-7.95939E-004	8	..........a	0	-327.74
	1288	2.578	1.70025E-001	1.86112E-007	0.00000E+000	1.71200E-001	-8.20939E-004	8	..........a	0	-327.74
	1316	2.634	1.67228E-001	4.46924E-007	0.00000E+000	1.68400E-001	-8.04272E-004	8	..........a	0	-327.74
	1344	2.69	1.64418E-001	-1.67887E-008	0.00000E+000	1.65600E-001	-8.04272E-004	8	..........a	0	-327.74
	1372	2.746	1.61622E-001	6.32048E-008	0.00000E+000	1.62800E-001	-8.04272E-004	8	..........a	0	-327.74
	1400	2.802	1.58818E-001	4.99003E-007	0.00000E+000	1.60000E-001	-8.54272E-004	8	..........a	0	-327.74
	1428	2.858	1.56026E-001	-7.10483E-007	0.00000E+000	1.57200E-001	-7.45939E-004	8	..........a	0	-327.74
	1456	2.914	1.53230E-001	2.46523E-007	0.00000E+000	1.54400E-001	-8.04272E-004	8	..........a	0	-327.74
	1484	2.97	1.50415E-001	4.36925E-007	0.00000E+000	1.51600E-001	-7.87605E-004	8	..........a	0	-327.74
	1512	3.026	1.47635E-001	-5.83827E-007	0.00000E+000	1.48800E-001	-8.20939E-004	8	..........a	0	-327.74
	1540	3.082	1.44818E-001	-1.86775E-007	0.00000E+000	1.46000E-001	-8.12605E-004	8	..........a	0	-327.74
	1568	3.138	1.42018E-001	4.47341E-007	0.00000E+000	1.43200E-001	-8.12605E-004	8	..........a	0	-327.74
	1596	3.194	1.39229E-001	-6.38405E-007	0.00000E+000	1.40400E-001	-7.95939E-004	8	..........a	0	-327.74
	1624	3.25	1.36432E-001	-3.78010E-007	0.00000E+000	1.37600E-001	-8.12605E-004	8	..........a	0	-327.74
	1652	3.306	1.33623E-001	3.50682E-007	0.00000E+000	1.34800E-001	-8.12605E-004	8	..........a	0	-327.74
	1680	3.362	1.30855E-001	-2.95933E-007	0.00000E+000	1.32000E-001	-8.20939E-004	8	..........a	0	-327.74
	1708	3.418	1.28042E-001	2.58189E-007	0.00000E+000	1.29200E-001	-8.45939E-004	8	..........a	0	-327.74
	1736	3.474	1.25244E-001	4.35675E-007	0.00000E+000	1.26400E-001	-8.87605E-004	8	..........a	0	-327.74
	1764	3.53	1.22443E-001	-3.72594E-007	0.00000E+000	1.23600E-001	-8.45939E-004	8	..........a	0	-327.74
	1792	3.586	1.19644E-001	2.60272E-007	0.00000E+000	1.20800E-001	-8.20939E-004	8	..........a	0	-327.74
	1820	3.642	1.16840E-001	4.24009E-007	0.00000E+000	1.18000E-001	-8.29272E-004	8	..........a	0	-327.74
	1848	3.698	1.14036E-001	-5.67994E-007	0.00000E+000	1.15200E-001	-7.95939E-004	8	..........a	0	-327.74
	1876	3.754	1.11239E-001	-1.75943E-007	0.00000E+000	1.12400E-001	-7.95939E-004	8	..........a	0	-327.74
	1904	3.81	1.08455E-001	2.11110E-007	0.00000E+000	1.09600E-001	-8.20939E-004	8	..........a	0	-327.74
	1932	3.866	1.05654E-001	-8.67831E-008	0.00000E+000	1.06800E-001	-8.20939E-004	8	..........a	0	-327.74
	1960	3.922	1.02859E-001	-2.48020E-007	0.00000E+000	1.04000E-001	-7.79272E-004	8	..........a	0	-327.74
	1988	3.978	1.00051E-001	1.53614E-007	0.00000E+000	1.01200E-001	-8.54272E-004	8	..........a	0	-327.74
	2016	4.034	9.72639E-002	-5.73411E-007	0.00000E+000	9.84000E-002	-8.37606E-004	8	..........a	0	-327.74
	2044	4.09	9.44514E-002	-8.67831E-008	0.00000E+000	9.56000E-002	-8.37606E-004	8	..........a	0	-327.74
	2072	4.146	9.16568E-002	4.14843E-007	0.00000E+000	9.28000E-002	-8.04272E-004	8	..........a	0	-327.74
	2100	4.202	8.88543E-002	-2.46770E-007	0.00000E+000	9.00000E-002	-8.45939E-004	8	..........a	0	-327.74
	2128	4.258	8.60606E-002	1.61530E-007	0.00000E+000	8.72000E-002	-8.45939E-004	8	..........a	0	-327.74
	2156	4.314	8.32606E-002	1.44588E-008	0.00000E+000	8.44000E-002	-8.29272E-004	8	..........a	0	-327.74
	2184	4.37	8.04556E-002	-6.25906E-007	0.00000E+000	8.16000E-002	-7.95939E-004	8	..........a	0	-327.74
	2212	4.426	7.76522E-002	-9.67823E-008	0.00000E+000	7.88000E-002	-8.20939E-004	8	..........a	0	-327.74
	2240	4.482	7.48739E-002	4.22343E-007	0.00000E+000	7.60000E-002	-8.12605E-004	8	..........a	0	-327.74
	2268	4.538	7.20635E-002	-4.63003E-007	0.00000E+000	7.32000E-002	-7.87605E-004	8	..........a	0	-327.74
	2296	4.594	6.92710E-002	-3.87310E-009	0.00000E+000	7.04000E-002	-8.29272E-004	8	..........a	0	-327.74
	2324	4.65	6.64747E-002	8.69529E-008	0.00000E+000	6.76000E-002	-8.29272E-004	8	..........a	0	-327.74
	2352	4.706	6.36756E-002	-6.88818E-007	0.00000E+000	6.48000E-002	-7.79272E-004	8	..........a	0	-327.74
	2380	4.762	6.08785E-002	-3.40929E-007	0.00000E+000	6.20000E-002	-7.79272E-004	8	..........a	0	-327.74
	2408	4.818	5.80710E-002	1.69030E-007	0.00000E+000	5.92000E-002	-8.20939E-004	8	..........a	0	-327.74
	2436	4.874	5.52714E-002	-1.03462E-006	0.00000E+000	5.64000E-002	-8.20939E-004	8	..........a	0	-327.74
	2464	4.93	5.24801E-002	-1.89692E-007	0.00000E+000	5.36000E-002	-7.95939E-004	8	..........a	0	-327.74
	2492	4.986	4.96801E-002	-3.76204E-008	0.00000E+000	5.08000E-002	-8.37606E-004	8	..........a	0	-327.74
	2520	5.042	4.68743E-002	-6.95068E-007	0.00000E+000	4.80000E-002	-7.79272E-004	8	..........a	0	-327.74
	2548	5.098	4.40743E-002	-7.05900E-007	0.00000E+000	4.52000E-002	-7.62605E-004	8	..........a	0	-327.74
	2576	5.154	4.12864E-002	-1.72054E-008	0.00000E+000	4.24000E-002	-7.87605E-004	8	..........a	0	-327.74
	2604	5.21	3.84693E-002	-9.80045E-007	0.00000E+000	3.96000E-002	-8.29272E-004	8	..........a	0	-327.74
	2632	5.266	3.56743E-002	-5.87160E-007	0.00000E+000	3.68000E-002	-7.70939E-004	8	..........a	0	-327.74
	2660	5.322	3.28910E-002	-4.46754E-007	0.00000E+000	3.40000E-002	-8.20939E-004	8	..........a	0	-327.74
	2688	5.378	3.00931E-002	-9.25882E-007	0.00000E+000	3.12000E-002	-7.79272E-004	8	..........a	0	-327.74
	2716	5.434	2.72951E-002	-3.64261E-007	0.00000E+000	2.84000E-002	-7.54272E-004	8	..........a	0	-327.74
	2744	5.49	2.44881E-002	-3.58011E-007	0.00000E+000	2.56000E-002	-7.54272E-004	8	..........a	0	-327.74
	2772	5.546	2.16834E-002	-7.45480E-007	0.00000E+000	2.28000E-002	-8.12605E-004	8	..........a	0	-327.74
	2800	5.602	1.88815E-002	-4.74252E-007	0.00000E+000	2.00000E-002	-8.20939E-004	8	..........a	0	-327.74
	2828	5.658	1.60898E-002	-3.24264E-007	0.00000E+000	1.72000E-002	-7.95939E-004	8	..........a	0	-327.74
	2856	5.714	1.32863E-002	-1.01754E-006	0.00000E+000	1.44000E-002	-8.45939E-004	8	..........a	0	-327.74
	2884	5.77	1.04878E-002	-5.06749E-007	0.00000E+000	1.16000E-002	-7.95939E-004	8	..........a	0	-327.74
	2912	5.826	7.67464E-003	-5.33831E-007	0.00000E+000	8.79997E-003	-8.04272E-004	8	..........a	0	-327.74
	2940	5.882	4.88826E-003	-7.00067E-007	0.00000E+000	5.99995E-003	-8.04272E-004	8	..........a	0	-327.74
	2968	5.938	2.09881E-003	-8.20057E-007	0.00000E+000	3.19996E-003	-8.12605E-004	8	..........a	0	-327.74
	2996	5.994	-7.05943E-004	-4.96750E-007	0.00000E+000	3.99977E-004	-7.54272E-004	8	..........a	0	-327.74
	3024	6.05	-3.50394E-003	-9.72962E-007	0.00000E+000	-2.40004E-003	-7.79272E-004	8	..........a	0	-327.74
	3052	6.106	-6.31744E-003	-3.64677E-007	0.00000E+000	-5.20003E-003	-7.95939E-004	8	..........a	0	-327.74
	3080	6.162	-9.09536E-003	-4.74669E-007	0.00000E+000	-8.00005E-003	-8.29272E-004	8	..........a	0	-327.74
	3108	6.218	-1.19102E-002	-8.23807E-007	0.00000E+000	-1.08000E-002	-7.70939E-004	8	..........a	0	-327.74
	3136	6.274	-1.46945E-002	-2.96350E-007	0.00000E+000	-1.36000E-002	-8.04272E-004	8	..........a	0	-327.74
	3164	6.33	-1.74914E-002	-1.23447E-007	0.00000E+000	-1.64000E-002	-7.95939E-004	8	..........a	0	-327.74
	3192	6.386	-2.02868E-002	-8.07558E-007	0.00000E+000	-1.92000E-002	-7.54272E-004	8	..........a	0	-327.74
	3220	6.442	-2.30977E-002	-3.63011E-007	0.00000E+000	-2.20000E-002	-8.54272E-004	8	..........a	0	-327.74
	3248	6.498	-2.58936E-002	-4.68002E-007	0.00000E+000	-2.48000E-002	-7.70939E-004	8	..........a	0	-327.74
	3276	6.554	-2.86949E-002	-1.00254E-006	0.00000E+000	-2.76000E-002	-8.04272E-004	8	..........a	0	-327.74
	3304	6.61	-3.14915E-002	-4.47171E-007	0.00000E+000	-3.04000E-002	-8.20939E-004	8	..........a	0	-327.74
	3332	6.666	-3.42740E-002	-3.78843E-007	0.00000E+000	-3.32000E-002	-8.37606E-004	8	..........a	0	-327.74
	3360	6.722	-3.70807E-002	-9.68379E-007	0.00000E+000	-3.60000E-002	-8.29272E-004	8	..........a	0	-327.74
	3388	6.778	-3.98719E-002	-6.15074E-007	0.00000E+000	-3.88000E-002	-7.87605E-004	8	..........a	0	-327.74
	3416	6.834	-4.26769E-002	-2.58019E-007	0.00000E+000	-4.16000E-002	-8.29272E-004	8	..........a	0	-327.74
	3444	6.89	-4.54815E-002	-9.80878E-007	0.00000E+000	-4.44000E-002	-8.20939E-004	8	..........a	0	-327.74
	3472	6.946	-4.82765E-002	-6.89235E-007	0.00000E+000	-4.72000E-002	-7.95939E-004	8	..........a	0	-327.74
	3500	7.002	-5.10740E-002	-2.94683E-007	0.00000E+000	-5.00000E-002	-8.20939E-004	8	..........a	0	-327.74
	3528	7.058	-5.38757E-002	-9.12967E-007	0.00000E+000	-5.28000E-002	-8.29272E-004	8	..........a	0	-327.74
	3556	7.114	-5.66719E-002	-9.50047E-007	0.00000E+000	-5.56000E-002	-8.54272E-004	8	..........a	0	-327.74
	3584	7.17	-5.94811E-002	-4.15090E-007	0.00000E+000	-5.84000E-002	-8.37606E-004	8	..........a	0	-327.74
	3612	7.226	-6.22732E-002	-1.21044E-006	0.00000E+000	-6.12000E-002	-7.95939E-004	8	..........a	0	-327.74
	3640	7.282	-6.50774E-002	-6.35072E-007	0.00000E+000	-6.40000E-002	-8.20939E-004	8	..........a	0	-327.74
	3668	7.338	-6.78757E-002	-5.45080E-007	0.00000E+000	-6.68000E-002	-7.70939E-004	8	..........a	0	-327.74
	3696	7.394	-7.06949E-002	-1.10545E-006	0.00000E+000	-6.96000E-002	-7.79272E-004	8	..........a	0	-327.74
	3724	7.45	-7.34661E-002	-8.57971E-007	0.00000E+000	-7.24000E-002	-8.29272E-004	8	..........a	0	-327.74
	3752	7.506	-7.62794E-002	-2.53853E-007	0.00000E+000	-7.52000E-002	-8.12605E-004	8	..........a	0	-327.74
	3780	7.562	-7.90528E-002	-7.32148E-007	0.00000E+000	-7.80000E-002	-7.79272E-004	8	..........a	0	-327.74
	3808	7.618	-8.18544E-002	-6.91318E-007	0.00000E+000	-8.08000E-002	-7.70939E-004	8	..........a	0	-327.74
	3836	7.674	-8.46486E-002	-3.22598E-007	0.00000E+000	-8.36000E-002	-8.20939E-004	8	..........a	0	-327.74
	3864	7.73	-8.74399E-002	-7.80894E-007	0.00000E+000	-8.64000E-002	-7.79272E-004	8	..........a	0	-327.74
	3892	7.786	-9.02578E-002	-8.78386E-007	0.00000E+000	-8.92000E-002	-7.87605E-004	8	..........a	0	-327.74
	3920	7.842	-9.30536E-002	-8.98385E-007	0.00000E+000	-9.20000E-002	-8.45939E-004	8	..........a	0	-327.74
	3948	7.898	-9.58561E-002	-1.26294E-006	0.00000E+000	-9.48000E-002	-8.04272E-004	8	..........a	0	-327.74
	3976	7.954	-9.86390E-002	-6.50488E-007	0.00000E+000	-9.76000E-002	-7.79272E-004	8	..........a	0	-327.74
	4004	8.01	-1.01450E-001	-8.27140E-007	0.00000E+000	-1.00400E-001	-8.04272E-004	8	..........a	0	-327.74
	4032	8.066	-1.04246E-001	-1.21753E-006	0.00000E+000	-1.03200E-001	-7.79272E-004	8	..........a	0	-327.74
	4060	8.122	-1.07045E-001	-9.76712E-007	0.00000E+000	-1.06000E-001	-7.87605E-004	8	..........a	0	-327.74
	4088	8.178	-1.09844E-001	-7.91727E-007	0.00000E+000	-1.08800E-001	-8.12605E-004	8	..........a	0	-327.74
	4116	8.234	-1.12650E-001	-1.05837E-006	0.00000E+000	-1.11600E-001	-7.70939E-004	8	..........a	0	-327.74
	4144	8.29	-1.15440E-001	-9.52130E-007	0.00000E+000	-1.14400E-001	-8.12605E-004	8	..........a	0	-327.74
	4172	8.346	-1.18249E-001	-8.95051E-007	0.00000E+000	-1.17200E-001	-7.87605E-004	8	..........a	0	-327.74
	4200	8.402	-1.21052E-001	-1.61749E-006	0.00000E+000	-1.20000E-001	-8.04272E-004	8	..........a	0	-327.74
	4228	8.458	-1.23841E-001	-1.06337E-006	0.00000E+000	-1.22800E-001	-7.62605E-004	8	..........a	0	-327.74
	4256	8.514	-1.26633E-001	-9.81711E-007	0.00000E+000	-1.25600E-001	-7.87605E-004	8	..........a	0	-327.74
	4284	8.57	-1.29445E-001	-1.20711E-006	0.00000E+000	-1.28400E-001	-7.87605E-004	8	..........a	0	-327.74
	4312	8.626	-1.32226E-001	-1.02421E-006	0.00000E+000	-1.31200E-001	-8.12605E-004	8	..........a	0	-327.74
	4340	8.682	-1.35020E-001	-9.89627E-007	0.00000E+000	-1.34000E-001	-7.62605E-004	8	..........a	0	-327.74
	4368	8.738	-1.37832E-001	-1.51334E-006	0.00000E+000	-1.36800E-001	-7.87605E-004	8	..........a	0	-327.74
	4396	8.794	-1.40636E-001	-1.26086E-006	0.00000E+000	-1.39600E-001	-8.37606E-004	8	..........a	0	-327.74
	4424	8.85	-1.43444E-001	-1.34085E-006	0.00000E+000	-1.42400E-001	-8.04272E-004	8	..........a	0	-327.74
	4452	8.906	-1.46231E-001	-1.75415E-006	0.00000E+000	-1.45200E-001	-8.37606E-004	8	..........a	0	-327.74
	4480	8.962	-1.49027E-001	-1.34418E-006	0.00000E+000	-1.48000E-001	-7.62605E-004	8	..........a	0	-327.74
	4508	9.018	-1.51822E-001	-1.21211E-006	0.00000E+000	-1.50800E-001	-8.04272E-004	8	..........a	0	-327.74
	4536	9.074	-1.54609E-001	-1.61583E-006	0.00000E+000	-1.53600E-001	-7.87605E-004	8	..........a	0	-327.74
	4564	9.13	-1.57428E-001	-1.70332E-006	0.00000E+000	-1.56400E-001	-8.45939E-004	8	..........a	0	-327.74
	4592	9.186	-1.60214E-001	-1.68790E-006	0.00000E+000	-1.59200E-001	-8.12605E-004	8	..........a	0	-327.74
	4620	9.242	-1.63015E-001	-2.12454E-006	0.00000E+000	-1.62000E-001	-8.20939E-004	8	..........a	0	-327.74
	4648	9.298	-1.65834E-001	-1.27710E-006	0.00000E+000	-1.64800E-001	-7.62605E-004	8	..........a	0	-327.74
	4676	9.354	-1.68620E-001	-2.04746E-006	0.00000E+000	-1.67600E-001	-8.12605E-004	8	..........a	0	-327.74
	4704	9.41	-1.71421E-001	-2.13329E-006	0.00000E+000	-1.70400E-001	-7.62605E-004	8	..........a	0	-327.74
	4732	9.466	-1.74219E-001	-1.98580E-006	0.00000E+000	-1.73200E-001	-8.04272E-004	8	..........a	0	-327.74
	4760	9.522	-1.77007E-001	-2.06329E-006	0.00000E+000	-1.76000E-001	-7.70939E-004	8	..........a	0	-327.74
	4788	9.578	-1.79817E-001	-2.52950E-006	0.00000E+000	-1.78800E-001	-7.95939E-004	8	..........a	0	-327.74
	4816	9.634	-1.82612E-001	-2.54075E-006	0.00000E+000	-1.81600E-001	-8.37606E-004	8	..........a	0	-327.74
	4844	9.69	-1.85410E-001	-2.39035E-006	0.00000E+000	-1.84400E-001	-7.62605E-004	8	..........a	0	-327.74
	4872	9.746	-1.88209E-001	-2.75449E-006	0.00000E+000	-1.87200E-001	-7.87605E-004	8	..........a	0	-327.74
	4900	9.802	-1.90999E-001	-2.46868E-006	0.00000E+000	-1.90000E-001	-8.37606E-004	8	..........a	0	-327.74
	4928	9.858	-1.93812E-001	-2.76657E-006	0.00000E+000	-1.92800E-001	-8.20939E-004	8	..........a	0	-327.74
	4956	9.914	-1.96612E-001	-2.52492E-006	0.00000E+000	-1.95600E-001	-7.70939E-004	8	..........a	0	-327.74
	4984	9.97	-1.99398E-001	-2.80615E-006	0.00000E+000	-1.98400E-001	-7.70939E-004	8	..........a	0	-327.74
	5012	10.026	-2.02205E-001	-3.18653E-006	0.00000E+000	-2.01200E-001	-8.12605E-004	8	..........a	0	-327.74
	5040	10.082	-2.05014E-001	-3.36902E-006	0.00000E+000	-2.04000E-001	-8.20939E-004	8	..........a	0	-327.74
	5068	10.138	-2.07807E-001	-3.15154E-006	0.00000E+000	-2.06800E-001	-7.45939E-004	8	..........a	0	-327.74
	5096	10.194	-2.10584E-001	-3.05654E-006	0.00000E+000	-2.09600E-001	-8.29272E-004	8	..........a	0	-327.74
	5124	10.25	-2.13395E-001	-3.66900E-006	0.00000E+000	-2.12400E-001	-8.12605E-004	8	..........a	0	-327.74
	5152	10.306	-2.16187E-001	-3.26694E-006	0.00000E+000	-2.15200E-001	-7.70939E-004	8	..........a	0	-327.74
	5180	10.362	-2.18986E-001	-3.11487E-006	0.00000E+000	-2.18000E-001	-7.95939E-004	8	..........a	0	-327.74
	5208	10.418	-2.21802E-001	-3.87065E-006	0.00000E+000	-2.20800E-001	-8.20939E-004	8	..........a	0	-327.74
	5236	10.474	-2.24595E-001	-3.76982E-006	0.00000E+000	-2.23600E-001	-7.70939E-004	8	..........a	0	-327.74
	5264	10.53	-2.27387E-001	-4.36227E-006	0.00000E+000	-2.26400E-001	-8.29272E-004	8	..........a	0	-327.74
	5292	10.586	-2.30191E-001	-4.19687E-006	0.00000E+000	-2.29200E-001	-7.79272E-004	8	..........a	0	-327.74
	5320	10.642	-2.32984E-001	-3.86440E-006	0.00000E+000	-2.32000E-001	-7.95939E-004	8	..........a	0	-327.74
	5348	10.698	-2.35774E-001	-4.26811E-006	0.00000E+000	-2.34800E-001	-7.79272E-004	8	..........a	0	-327.74
	5376	10.754	-2.38577E-001	-4.30478E-006	0.00000E+000	-2.37600E-001	-7.87605E-004	8	..........a	0	-327.74
	5404	10.81	-2.41384E-001	-4.35186E-006	0.00000E+000	-2.40400E-001	-7.70939E-004	8	..........a	0	-327.74
	5432	10.866	-2.44177E-001	-4.26603E-006	0.00000E+000	-2.43200E-001	-8.12605E-004	8	..........a	0	-327.74
	5460	10.922	-2.46967E-001	-4.61017E-006	0.00000E+000	-2.46000E-001	-7.79272E-004	8	..........a	0	-327.74
	5488	10.978	-2.49770E-001	-4.51184E-006	0.00000E+000	-2.48800E-001	-7.79272E-004	8	..........a	0	-327.74
	5516	11.034	-2.52587E-001	-4.67600E-006	0.00000E+000	-2.51600E-001	-7.79272E-004	8	..........a	0	-327.74
	5544	11.09	-2.55372E-001	-4.75307E-006	0.00000E+000	-2.54400E-001	-7.87605E-004	8	..........a	0	-327.74
	5572	11.146	-2.58177E-001	-4.63600E-006	0.00000E+000	-2.57200E-001	-8.04272E-004	8	..........a	0	-327.74
	5600	11.202	-2.60972E-001	-4.99681E-006	0.00000E+000	-2.60000E-001	-7.87605E-004	8	..........a	0	-327.74
	5628	11.258	-2.63767E-001	-5.11221E-006	0.00000E+000	-2.62800E-001	-8.04272E-004	8	..........a	0	-327.74
	5656	11.314	-2.66548E-001	-4.99639E-006	0.00000E+000	-2.65600E-001	-8.12605E-004	8	......s...a	0	-327.74
	5684	11.37	-2.69261E-001	-5.37802E-006	0.00000E+000	-2.68400E-001	-7.87605E-004	8	..........a	0	-327.74
	5712	11.426	-2.72103E-001	-5.44260E-006	0.00000E+000	-2.71200E-001	-8.45939E-004	8	..........a	0	-327.74
	5740	11.482	-2.74873E-001	-5.95506E-006	0.00000E+000	-2.74000E-001	-8.45939E-004	8	..........a	0	-327.74
	5768	11.538	-2.77748E-001	-5.44927E-006	0.00000E+000	-2.76800E-001	-7.87605E-004	8	..........a	0	-327.74
	5796	11.594	-2.80511E-001	-5.57259E-006	0.00000E+000	-2.79600E-001	-7.79272E-004	8	..........a	0	-327.74
	5824	11.65	-2.83298E-001	-5.47468E-006	0.00000E+000	-2.82400E-001	-8.12605E-004	8	..........a	0	-327.74
	5852	11.706	-2.86086E-001	-5.85215E-006	0.00000E+000	-2.85200E-001	-7.95939E-004	8	..........a	0	-327.74
	5880	11.762	-2.88878E-001	-6.12338E-006	0.00000E+000	-2.88000E-001	-7.29272E-004	8	..........a	0	-327.74
	5908	11.818	-2.91673E-001	-5.96048E-006	0.00000E+000	-2.90800E-001	-8.04272E-004	8	..........a	0	-327.74
	5936	11.874	-2.94478E-001	-6.31045E-006	0.00000E+000	-2.93600E-001	-7.62605E-004	8	..........a	0	-327.74
	5964	11.93	-2.97269E-001	-6.29420E-006	0.00000E+000	-2.96400E-001	-8.37606E-004	8	..........a	0	-327.74
	5992	11.986	-3.00098E-001	-6.54168E-006	0.00000E+000	-2.99200E-001	-8.20939E-004	8	..........a	0	-327.74
	6020	12.042	-3.02861E-001	-6.59876E-006	0.00000E+000	-3.02000E-001	-8.20939E-004	8	..........a	0	-327.74
	6048	12.098	-3.05698E-001	-6.60293E-006	0.00000E+000	-3.04800E-001	-7.70939E-004	8	..........a	0	-327.74
	6076	12.154	-3.08461E-001	-6.96998E-006	0.00000E+000	-3.07600E-001	-7.54272E-004	8	..........a	0	-327.74
	6104	12.21	-3.11282E-001	-7.11538E-006	0.00000E+000	-3.10400E-001	-8.20939E-004	8	..........a	0	-327.74
	6132	12.266	-3.14057E-001	-7.12038E-006	0.00000E+000	-3.13200E-001	-8.37606E-004	8	..........a	0	-327.74
	6160	12.322	-3.16969E-001	-7.33037E-006	0.00000E+000	-3.16000E-001	-7.70939E-004	8	..........a	0	-327.74
	6188	12.378	-3.19648E-001	-7.53577E-006	0.00000E+000	-3.18800E-001	-8.04272E-004	8	..........a	0	-327.74
	6216	12.434	-3.22478E-001	-7.59701E-006	0.00000E+000	-3.21600E-001	-8.29272E-004	8	..........a	0	-327.74
	6244	12.49	-3.25278E-001	-7.82824E-006	0.00000E+000	-3.24400E-001	-8.29272E-004	8	..........a	0	-327.74
	6272	12.546	-3.28094E-001	-8.06198E-006	0.00000E+000	-3.27200E-001	-8.37606E-004	8	..........a	0	-327.74
	6300	12.602	-3.30869E-001	-7.74075E-006	0.00000E+000	-3.30000E-001	-8.20939E-004	8	..........a	0	-327.74
	6328	12.658	-3.33628E-001	-8.04739E-006	0.00000E+000	-3.32800E-001	-7.87605E-004	8	..........a	0	-327.74
	6356	12.714	-3.36436E-001	-8.55527E-006	0.00000E+000	-3.35600E-001	-7.79272E-004	8	..........a	0	-327.74
	6384	12.77	-3.39319E-001	-8.72067E-006	0.00000E+000	-3.38400E-001	-7.79272E-004	8	..........a	0	-327.74
	6412	12.826	-3.42086E-001	-8.82567E-006	0.00000E+000	-3.41200E-001	-8.04272E-004	8	..........a	0	-327.74
	6440	12.882	-3.44832E-001	-9.35354E-006	0.00000E+000	-3.44000E-001	-7.79272E-004	8	..........a	0	-327.74
	6468	12.938	-3.47682E-001	-9.41478E-006	0.00000E+000	-3.46800E-001	-8.12605E-004	8	..........a	0	-327.74
	6496	12.994	-3.50469E-001	-9.64352E-006	0.00000E+000	-3.49600E-001	-8.37606E-004	8	..........a	0	-327.74
	6524	13.05	-3.53315E-001	-1.02422E-005	0.00000E+000	-3.52400E-001	-7.87605E-004	8	..........a	0	-327.74
	6552	13.106	-3.56119E-001	-1.02926E-005	0.00000E+000	-3.55200E-001	-7.79272E-004	8	..........a	0	-327.74
	6580	13.162	-3.58840E-001	-1.10509E-005	0.00000E+000	-3.58000E-001	-8.12605E-004	8	..........a	0	-327.74
	6608	13.218	-3.61657E-001	-1.14009E-005	0.00000E+000	-3.60800E-001	-7.95939E-004	8	..........a	0	-327.74
	6636	13.274	-3.64448E-001	-1.11426E-005	0.00000E+000	-3.63600E-001	-7.54272E-004	8	..........a	0	-327.74
	6664	13.33	-3.67273E-001	-1.25845E-005	0.00000E+000	-3.66400E-001	-8.29272E-004	8	..........a	0	-327.74
	6692	13.386	-3.70015E-001	-1.32411E-005	0.00000E+000	-3.69200E-001	-7.95939E-004	8	..........a	0	-327.74
	6720	13.442	-3.72861E-001	-1.31528E-005	0.00000E+000	-3.72000E-001	-8.29272E-004	8	..........a	0	-327.74
	6748	13.498	-3.75690E-001	-1.43069E-005	0.00000E+000	-3.74800E-001	-8.54272E-004	8	..........a	0	-327.74
	6776	13.554	-3.78440E-001	-1.54839E-005	0.00000E+000	-3.77600E-001	-7.87605E-004	8	..........a	0	-327.74
	6804	13.61	-3.81228E-001	-1.55822E-005	0.00000E+000	-3.80400E-001	-7.95939E-004	8	..........a	0	-327.74
	6832	13.666	-3.84069E-001	-1.69517E-005	0.00000E+000	-3.83200E-001	-8.37606E-004	8	..........a	0	-327.74
	6860	13.722	-3.86869E-001	-1.82024E-005	0.00000E+000	-3.86000E-001	-7.54272E-004	8	..........a	0	-327.74
	6888	13.778	-3.89644E-001	-1.91403E-005	0.00000E+000	-3.88800E-001	-7.79272E-004	8	..........a	0	-327.74
	6916	13.834	-3.92465E-001	-2.06464E-005	0.00000E+000	-3.91600E-001	-7.79272E-004	8	..........a	0	-327.74
	6944	13.89	-3.95307E-001	-2.24000E-005	0.00000E+000	-3.94400E-001	-7.95939E-004	8	..........a	0	-327.74
	6972	13.946	-3.98028E-001	-2.32870E-005	0.00000E+000	-3.97200E-001	-8.29272E-004	8	..........a	0	-327.74
	7000	14.002	-4.00823E-001	-2.53635E-005	0.00000E+000	-4.00000E-001	-8.04272E-004	8	..........a	0	-327.74
	7028	14.058	-4.03615E-001	-2.77179E-005	0.00000E+000	-4.02800E-001	-7.45939E-004	8	..........a	0	-327.74
	7056	14.114	-4.06428E-001	-2.85641E-005	0.00000E+000	-4.05600E-001	-7.70939E-004	8	..........a	0	-327.74
	7084	14.17	-4.09261E-001	-3.13509E-005	0.00000E+000	-4.08400E-001	-7.87605E-004	8	..........a	0	-327.74
	7112	14.226	-4.11986E-001	-3.38445E-005	0.00000E+000	-4.11200E-001	-8.20939E-004	8	..........a	0	-327.74
	7140	14.282	-4.14803E-001	-3.53785E-005	0.00000E+000	-4.14000E-001	-7.62605E-004	8	..........a	0	-327.74
	7168	14.338	-4.17648E-001	-3.90766E-005	0.00000E+000	-4.16800E-001	-7.87605E-004	8	..........a	0	-327.74
	7196	14.394	-4.20407E-001	-4.19347E-005	0.00000E+000	-4.19600E-001	-7.70939E-004	8	..........a	0	-327.74
	7224	14.45	-4.23203E-001	-4.38595E-005	0.00000E+000	-4.22400E-001	-8.12605E-004	8	..........a	0	-327.74
	7252	14.506	-4.26011E-001	-4.80596E-005	0.00000E+000	-4.25200E-001	-7.95939E-004	8	..........a	0	-327.74
	7280	14.562	-4.28798E-001	-5.17114E-005	0.00000E+000	-4.28000E-001	-7.62605E-004	8	..........a	0	-327.74
	7308	14.618	-4.31594E-001	-5.47049E-005	0.00000E+000	-4.30800E-001	-8.29272E-004	8	..........a	0	-327.74
	7336	14.674	-4.34428E-001	-5.94437E-005	0.00000E+000	-4.33600E-001	-8.54272E-004	8	..........a	0	-327.74
	7364	14.73	-4.37203E-001	-6.38371E-005	0.00000E+000	-4.36400E-001	-8.12605E-004	8	..........a	0	-327.74
	7392	14.786	-4.39994E-001	-6.74626E-005	0.00000E+000	-4.39200E-001	-7.70939E-004	8	..........a	0	-327.74
	7420	14.842	-4.42782E-001	-7.29368E-005	0.00000E+000	-4.42000E-001	-8.37606E-004	8	..........a	0	-327.74
	7448	14.898	-4.45578E-001	-7.82863E-005	0.00000E+000	-4.44800E-001	-8.37606E-004	8	..........a	0	-327.74
	7476	14.954	-4.48378E-001	-8.24714E-005	0.00000E+000	-4.47600E-001	-8.37606E-004	8	..........a	0	-327.74
	7504	15.01	-4.51165E-001	-8.94588E-005	0.00000E+000	-4.50400E-001	-8.12605E-004	8	..........a	0	-327.74
	7532	15.066	-4.53961E-001	-9.45884E-005	0.00000E+000	-4.53200E-001	-7.87605E-004	8	..........a	0	-327.74
	7560	15.122	-4.56715E-001	-9.98917E-005	0.00000E+000	-4.56000E-001	-8.29272E-004	8	..........a	0	-327.74
	7588	15.178	-4.59557E-001	-1.07069E-004	0.00000E+000	-4.58800E-001	-8.04272E-004	8	..........a	0	-327.74
	7616	15.234	-4.62365E-001	-1.13429E-004	0.00000E+000	-4.61600E-001	-7.95939E-004	8	..........a	0	-327.74
	7644	15.29	-4.65094E-001	-1.19137E-004	0.00000E+000	-4.64400E-001	-8.04272E-004	8	..........a	0	-327.74
	7672	15.346	-4.67886E-001	-1.27501E-004	0.00000E+000	-4.67200E-001	-7.79272E-004	8	..........a	0	-327.74
	7700	15.402	-4.70719E-001	-1.34333E-004	0.00000E+000	-4.70000E-001	-7.95939E-004	8	..........a	0	-327.74
	7728	15.458	-4.73482E-001	-1.40793E-004	0.00000E+000	-4.72800E-001	-8.29272E-004	8	..........a	0	-327.74
	7756	15.514	-4.76282E-001	-1.50078E-004	0.00000E+000	-4.75600E-001	-8.04272E-004	8	..........a	0	-327.74
	7784	15.57	-4.79003E-001	-1.58574E-004	0.00000E+000	-4.78400E-001	-8.29272E-004	8	..........a	0	-327.74
	7812	15.626	-4.81886E-001	-1.65466E-004	0.00000E+000	-4.81200E-001	-8.12605E-004	8	..........a	0	-327.74
	7840	15.682	-4.84682E-001	-1.75423E-004	0.00000E+000	-4.84000E-001	-8.12605E-004	8	..........a	0	-327.74
	7868	15.738	-4.87398E-001	-1.83925E-004	0.00000E+000	-4.86800E-001	-8.20939E-004	8	..........a	0	-327.74
	7896	15.794	-4.90140E-001	-1.92217E-004	0.00000E+000	-4.89600E-001	-7.45939E-004	8	..........a	0	-327.74
	7924	15.85	-4.93007E-001	-2.04164E-004	0.00000E+000	-4.92400E-001	-8.54272E-004	8	..........a	0	-327.74
	7952	15.906	-4.95890E-001	-2.12766E-004	0.00000E+000	-4.95200E-001	-7.70939E-004	8	..........a	0	-327.74
	7980	15.962	-4.98623E-001	-2.21655E-004	0.00000E+000	-4.98000E-001	-8.12605E-004	8	..........a	0	-327.74
	8008	16.018	-5.01369E-001	-2.35072E-004	0.00000E+000	-5.00800E-001	-7.87605E-004	8	..........a	0	-327.74
	8036	16.074	-5.04153E-001	-2.46936E-004	0.00000E+000	-5.03600E-001	-7.95939E-004	8	..........a	0	-327.74
	8064	16.13	-5.06936E-001	-2.57488E-004	0.00000E+000	-5.06400E-001	-8.62605E-004	8	..........a	0	-327.74
	8092	16.186	-5.09971E-001	-2.74528E-004	0.00000E+000	-5.09200E-001	-8.29272E-004	9	..........a	0	-327.74
	8120	16.242	-5.12721E-001	-2.87315E-004	0.00000E+000	-5.12000E-001	-7.45939E-004	9	..........a	0	-327.74
	8148	16.298	-5.15567E-001	-2.99584E-004	0.00000E+000	-5.14800E-001	-7.95939E-004	9	..........a	0	-327.74
	8176	16.354	-5.18362E-001	-3.15513E-004	0.00000E+000	-5.17600E-001	-7.79272E-004	9	..........a	0	-327.74
	8204	16.41	-5.21179E-001	-3.30552E-004	0.00000E+000	-5.20400E-001	-8.37606E-004	9	..........a	0	-327.74
	8232	16.466	-5.23933E-001	-3.44317E-004	0.00000E+000	-5.23200E-001	-8.20939E-004	9	..........a	0	-327.74
	8260	16.522	-5.26750E-001	-3.62465E-004	0.00000E+000	-5.26000E-001	-8.12605E-004	9	..........a	0	-327.74
	8288	16.578	-5.29571E-001	-3.78983E-004	0.00000E+000	-5.28800E-001	-7.79272E-004	9	..........a	0	-327.74
	8316	16.634	-5.32375E-001	-3.94189E-004	0.00000E+000	-5.31600E-001	-7.70939E-004	9	..........a	0	-327.74
	8344	16.69	-5.35142E-001	-4.14941E-004	0.00000E+000	-5.34400E-001	-7.87605E-004	9	..........a	0	-327.74
	8372	16.746	-5.37946E-001	-4.32362E-004	0.00000E+000	-5.37200E-001	-7.95939E-004	9	..........a	0	-327.74
	8400	16.802	-5.40771E-001	-4.48826E-004	0.00000E+000	-5.40000E-001	-8.37606E-004	9	..........a	0	-327.74
	8428	16.858	-5.43558E-001	-4.69915E-004	0.00000E+000	-5.42800E-001	-8.29272E-004	9	..........a	0	-327.74
	8456	16.914	-5.46317E-001	-4.86242E-004	0.00000E+000	-5.45600E-001	-8.04272E-004	9	..........a	0	-327.74
	8484	16.97	-5.49117E-001	-5.02095E-004	0.00000E+000	-5.48400E-001	-8.04272E-004	9	..........a	0	-327.74
	8512	17.026	-5.51925E-001	-5.21593E-004	0.00000E+000	-5.51200E-001	-8.04272E-004	9	..........a	0	-327.74
	8540	17.082	-5.54750E-001	-5.39353E-004	0.00000E+000	-5.54000E-001	-8.29272E-004	9	..........a	0	-327.74
	8568	17.138	-5.57546E-001	-5.53890E-004	0.00000E+000	-5.56800E-001	-8.12605E-004	9	..........a	0	-327.74
	8596	17.194	-5.60321E-001	-5.73355E-004	0.00000E+000	-5.59600E-001	-7.20939E-004	9	..........a	0	-327.74
	8624	17.25	-5.63129E-001	-5.88519E-004	0.00000E+000	-5.62400E-001	-8.29272E-004	9	..........a	0	-327.74
	8652	17.306	-5.65904E-001	-6.02785E-004	0.00000E+000	-5.65200E-001	-7.87605E-004	9	..........a	0	-327.74
	8680	17.362	-5.68650E-001	-6.18777E-004	0.00000E+000	-5.68000E-001	-8.04272E-004	9	..........a	0	-327.74
	8708	17.418	-5.71492E-001	-6.33749E-004	0.00000E+000	-5.70800E-001	-7.70939E-004	9	..........a	0	-327.74
	8736	17.474	-5.74325E-001	-6.43427E-004	0.00000E+000	-5.73600E-001	-7.62605E-004	9	..........a	0	-327.74
	8764	17.53	-5.77104E-001	-6.59582E-004	0.00000E+000	-5.76400E-001	-7.95939E-004	9	..........a	0	-327.74
	8792	17.586	-5.79892E-001	-6.70609E-004	0.00000E+000	-5.79200E-001	-8.45939E-004	9	..........a	0	-327.74
	8820	17.642	-5.82700E-001	-6.78194E-004	0.00000E+000	-5.82000E-001	-7.79272E-004	9	..........a	0	-327.74
	8848	17.698	-5.85521E-001	-6.91265E-004	0.00000E+000	-5.84800E-001	-8.62605E-004	9	..........a	0	-327.74
	8876	17.754	-5.88321E-001	-6.99129E-004	0.00000E+000	-5.87600E-001	-8.29272E-004	9	..........a	0	-327.74
	8904	17.81	-5.91025E-001	-7.03629E-004	0.00000E+000	-5.90400E-001	-8.20939E-004	9	..........a	0	-327.74
	8932	17.866	-5.93883E-001	-7.10411E-004	0.00000E+000	-5.93200E-001	-8.04272E-004	9	..........a	0	-327.74
	8960	17.922	-5.96717E-001	-7.18823E-004	0.00000E+000	-5.96000E-001	-8.37606E-004	9	..........a	0	-327.74
	8988	17.978	-5.99500E-001	-7.27293E-004	0.00000E+000	-5.98800E-001	-8.04272E-004	9	..........a	0	-327.74
	9016	18.034	-6.02250E-001	-7.34644E-004	0.00000E+000	-6.01600E-001	-8.12605E-004	9	..........a	0	-327.74
	9044	18.09	-6.05100E-001	-7.39119E-004	0.00000E+000	-6.04400E-001	-8.62605E-004	9	..........a	0	-327.74
	9072	18.146	-6.07917E-001	-7.41058E-004	0.00000E+000	-6.07200E-001	-8.45939E-004	9	..........a	0	-327.74
	9100	18.202	-6.10687E-001	-7.49336E-004	0.00000E+000	-6.10000E-001	-8.37606E-004	9	..........a	0	-327.74
	9128	18.258	-6.13479E-001	-7.52269E-004	0.00000E+000	-6.12800E-001	-8.04272E-004	9	..........a	0	-327.74
	9156	18.314	-6.16275E-001	-7.52641E-004	0.00000E+000	-6.15600E-001	-8.20939E-004	9	..........a	0	-327.74
	9184	18.37	-6.19054E-001	-7.53356E-004	0.00000E+000	-6.18400E-001	-8.12605E-004	9	..........a	0	-327.74
	9212	18.426	-6.21892E-001	-7.59202E-004	0.00000E+000	-6.21200E-001	-8.37606E-004	9	..........a	0	-327.74
	9240	18.482	-6.24646E-001	-7.61905E-004	0.00000E+000	-6.24000E-001	-8.12605E-004	9	..........a	0	-327.74
	9268	18.538	-6.27462E-001	-7.65023E-004	0.00000E+000	-6.26800E-001	-8.29272E-004	9	..........a	0	-327.74
	9296	18.594	-6.30279E-001	-7.66920E-004	0.00000E+000	-6.29600E-001	-8.12605E-004	9	..........a	0	-327.74
	9324	18.65	-6.33042E-001	-7.69097E-004	0.00000E+000	-6.32400E-001	-7.87605E-004	9	..........a	0	-327.74
	9352	18.706	-6.35817E-001	-7.71550E-004	0.00000E+000	-6.35200E-001	-8.12605E-004	9	..........a	0	-327.74
	9380	18.762	-6.38642E-001	-7.74663E-004	0.00000E+000	-6.38000E-001	-7.54272E-004	9	..........a	0	-327.74
	9408	18.818	-6.41446E-001	-7.75833E-004	0.00000E+000	-6.40800E-001	-7.62605E-004	9	..........a	0	-327.74
	9436	18.874	-6.44279E-001	-7.76982E-004	0.00000E+000	-6.43600E-001	-7.87605E-004	9	..........a	0	-327.74
	9464	18.93	-6.47029E-001	-7.77437E-004	0.00000E+000	-6.46400E-001	-8.45939E-004	9	..........a	0	-327.74
	9492	18.986	-6.49825E-001	-7.79192E-004	0.00000E+000	-6.49200E-001	-8.20939E-004	9	..........a	0	-327.74
	9520	19.042	-6.52637E-001	-7.81211E-004	0.00000E+000	-6.52000E-001	-8.12605E-004	9	..........a	0	-327.74
	9548	19.098	-6.55437E-001	-7.82331E-004	0.00000E+000	-6.54800E-001	-7.87605E-004	9	..........a	0	-327.74
	9576	19.154	-6.58217E-001	-7.82067E-004	0.00000E+000	-6.57600E-001	-8.12605E-004	9	..........a	0	-327.74
	9604	19.21	-6.61079E-001	-7.86405E-004	0.00000E+000	-6.60400E-001	-8.54272E-004	9	..........a	0	-327.74
	9632	19.266	-6.63892E-001	-7.84362E-004	0.00000E+000	-6.63200E-001	-8.29272E-004	9	..........a	0	-327.74
	9660	19.322	-6.66629E-001	-7.83296E-004	0.00000E+000	-6.66000E-001	-8.20939E-004	9	..........a	0	-327.74
	9688	19.378	-6.69371E-001	-7.84232E-004	0.00000E+000	-6.68800E-001	-7.95939E-004	9	..........a	0	-327.74
	9716	19.434	-6.72258E-001	-7.85193E-004	0.00000E+000	-6.71600E-001	-7.87605E-004	9	..........a	0	-327.74
	9744	19.49	-6.75079E-001	-7.84830E-004	0.00000E+000	-6.74400E-001	-7.79272E-004	9	..........a	0	-327.74
	9772	19.546	-6.77887E-001	-7.86957E-004	0.00000E+000	-6.77200E-001	-8.04272E-004	9	..........a	0	-327.74
	9800	19.602	-6.80596E-001	-7.89915E-004	0.00000E+000	-6.80000E-001	-7.79272E-004	9	..........a	0	-327.74
	9828	19.658	-6.83429E-001	-7.91415E-004	0.00000E+000	-6.82800E-001	-8.04272E-004	9	..........a	0	-327.74
	9856	19.714	-6.86258E-001	-7.91536E-004	0.00000E+000	-6.85600E-001	-7.95939E-004	9	..........a	0	-327.74
	9884	19.77	-6.89058E-001	-7.90730E-004	0.00000E+000	-6.88400E-001	-7.79272E-004	9	..........a	0	-327.74
	9912	19.826	-6.91758E-001	-7.90525E-004	0.00000E+000	-6.91200E-001	-7.87605E-004	9	..........a	0	-327.74
	9940	19.882	-6.94617E-001	-7.91741E-004	0.00000E+000	-6.94000E-001	-8.20939E-004	9	..........a	0	-327.74
	9968	19.938	-6.97487E-001	-7.93212E-004	0.00000E+000	-6.96800E-001	-7.87605E-004	9	..........a	0	-327.74
	9996	19.994	-7.00267E-001	-7.95130E-004	0.00000E+000	-6.99600E-001	-7.95939E-004	9	..........a	0	-327.74
	10024	20.05	-7.02967E-001	-7.95226E-004	0.00000E+000	-7.02400E-001	-7.95939E-004	9	..........a	0	-327.74
	10052	20.106	-7.05842E-001	-7.92874E-004	0.00000E+000	-7.05200E-001	-8.37606E-004	9	..........a	0	-327.74
	10080	20.162	-7.08671E-001	-7.91917E-004	0.00000E+000	-7.08000E-001	-8.12605E-004	9	..........a	0	-327.74
	10108	20.218	-7.11417E-001	-7.91365E-004	0.00000E+000	-7.10800E-001	-8.04272E-004	9	..........a	0	-327.74
	10136	20.274	-7.14192E-001	-7.92961E-004	0.00000E+000	-7.13600E-001	-8.12605E-004	9	..........a	0	-327.74
	10164	20.33	-7.17058E-001	-7.93530E-004	0.00000E+000	-7.16400E-001	-7.87605E-004	9	..........a	0	-327.74
	10192	20.386	-7.19887E-001	-7.95398E-004	0.00000E+000	-7.19200E-001	-7.87605E-004	9	..........a	0	-327.74
	10220	20.442	-7.22617E-001	-7.95026E-004	0.00000E+000	-7.22000E-001	-7.95939E-004	9	..........a	0	-327.74
	10248	20.498	-7.25396E-001	-7.91917E-004	0.00000E+000	-7.24800E-001	-8.20939E-004	9	..........a	0	-327.74
	10276	20.554	-7.28217E-001	-7.93835E-004	0.00000E+000	-7.27600E-001	-8.45939E-004	9	..........a	0	-327.74
	10304	20.61	-7.31017E-001	-7.94604E-004	0.00000E+000	-7.30400E-001	-8.37606E-004	9	..........a	0	-327.74
	10332	20.666	-7.33829E-001	-7.93889E-004	0.00000E+000	-7.33200E-001	-7.79272E-004	9	..........a	0	-327.74
	10360	20.722	-7.36596E-001	-7.93003E-004	0.00000E+000	-7.36000E-001	-8.12605E-004	9	..........a	0	-327.74
	10388	20.778	-7.39471E-001	-7.93563E-004	0.00000E+000	-7.38800E-001	-8.29272E-004	9	..........a	0	-327.74
	10416	20.834	-7.42217E-001	-7.98080E-004	0.00000E+000	-7.41600E-001	-8.20939E-004	9	..........a	0	-327.74
	10444	20.89	-7.45008E-001	-7.95765E-004	0.00000E+000	-7.44400E-001	-8.04272E-004	9	..........a	0	-327.74
	10472	20.946	-7.47783E-001	-7.95239E-004	0.00000E+000	-7.47200E-001	-7.95939E-004	9	..........a	0	-327.74
	10500	21.002	-7.50608E-001	-7.95686E-004	0.00000E+000	-7.50000E-001	-8.12605E-004	9	..........a	0	-327.74
	10528	21.058	-7.53483E-001	-7.96120E-004	0.00000E+000	-7.52800E-001	-7.87605E-004	9	..........a	0	-327.74
	10556	21.114	-7.56262E-001	-7.95907E-004	0.00000E+000	-7.55600E-001	-8.37606E-004	9	..........a	0	-327.74
	10584	21.17	-7.58979E-001	-7.94984E-004	0.00000E+000	-7.58400E-001	-8.29272E-004	9	..........a	0	-327.74
	10612	21.226	-7.61804E-001	-7.96404E-004	0.00000E+000	-7.61200E-001	-8.37606E-004	9	..........a	0	-327.74
	10640	21.282	-7.64658E-001	-7.96772E-004	0.00000E+000	-7.64000E-001	-8.04272E-004	9	..........a	0	-327.74
	10668	21.338	-7.67479E-001	-8.00044E-004	0.00000E+000	-7.66800E-001	-8.12605E-004	9	..........a	0	-327.74
	10696	21.394	-7.70100E-001	-7.98962E-004	0.00000E+000	-7.69600E-001	-8.29272E-004	9	..........a	0	-327.74
	10724	21.45	-7.73042E-001	-7.97575E-004	0.00000E+000	-7.72400E-001	-7.95939E-004	9	..........a	0	-327.74
	10752	21.506	-7.75862E-001	-7.96530E-004	0.00000E+000	-7.75200E-001	-7.70939E-004	9	..........a	0	-327.74
	10780	21.562	-7.78662E-001	-7.98293E-004	0.00000E+000	-7.78000E-001	-8.20939E-004	9	..........a	0	-327.74
	10808	21.618	-7.81371E-001	-7.98072E-004	0.00000E+000	-7.80800E-001	-7.79272E-004	9	..........a	0	-327.74
	10836	21.674	-7.84221E-001	-7.97052E-004	0.00000E+000	-7.83600E-001	-7.87605E-004	9	..........a	0	-327.74
	10864	21.73	-7.87017E-001	-7.95560E-004	0.00000E+000	-7.86400E-001	-8.45939E-004	9	..........a	0	-327.74
	10892	21.786	-7.89821E-001	-7.96735E-004	0.00000E+000	-7.89200E-001	-7.79272E-004	9	..........a	0	-327.74
	10920	21.842	-7.92567E-001	-7.98778E-004	0.00000E+000	-7.92000E-001	-8.12605E-004	9	..........a	0	-327.74
	10948	21.898	-7.95396E-001	-8.01172E-004	0.00000E+000	-7.94800E-001	-8.20939E-004	9	..........a	0	-327.74
	10976	21.954	-7.98246E-001	-7.99071E-004	0.00000E+000	-7.97600E-001	-8.54272E-004	9	..........a	0	-327.74
	11004	22.01	-8.00950E-001	-7.98126E-004	0.00000E+000	-8.00400E-001	-8.20939E-004	9	..........a	0	-327.74
	11032	22.066	-8.03725E-001	-7.99618E-004	0.00000E+000	-8.03200E-001	-8.29272E-004	9	..........a	0	-327.74
	11060	22.122	-8.06633E-001	-7.99852E-004	0.00000E+000	-8.06000E-001	-7.95939E-004	9	..........a	0	-327.74
	11088	22.178	-8.09383E-001	-8.01147E-004	0.00000E+000	-8.08800E-001	-7.62605E-004	9	..........a	0	-327.74
	11116	22.234	-8.12204E-001	-8.02418E-004	0.00000E+000	-8.11600E-001	-8.37606E-004	9	..........a	0	-327.74
	11144	22.29	-8.14937E-001	-7.99735E-004	0.00000E+000	-8.14400E-001	-8.62605E-004	9	..........a	0	-327.74
	11172	22.346	-8.17817E-001	-7.98653E-004	0.00000E+000	-8.17200E-001	-8.20939E-004	9	..........a	0	-327.74
	11200	22.402	-8.20579E-001	-7.98109E-004	0.00000E+000	-8.20000E-001	-8.20939E-004	9	..........a	0	-327.74
	11228	22.458	-8.23317E-001	-7.98523E-004	0.00000E+000	-8.22800E-001	-8.29272E-004	9	..........a	0	-327.74
	11256	22.514	-8.26087E-001	-7.99087E-004	0.00000E+000	-8.25600E-001	-8.12605E-004	9	..........a	0	-327.74
	11284	22.57	-8.28987E-001	-8.01661E-004	0.00000E+000	-8.28400E-001	-7.87605E-004	9	..........a	0	-327.74
	11312	22.626	-8.31733E-001	-8.01009E-004	0.00000E+000	-8.31200E-001	-7.95939E-004	9	..........a	0	-327.74
	11340	22.682	-8.34496E-001	-7.98674E-004	0.00000E+000	-8.34000E-001	-8.04272E-004	9	..........a	0	-327.74
	11368	22.738	-8.37317E-001	-8.00537E-004	0.00000E+000	-8.36800E-001	-7.70939E-004	9	..........a	0	-327.74
	11396	22.794	-8.40150E-001	-8.00399E-004	0.00000E+000	-8.39600E-001	-7.87605E-004	9	..........a	0	-327.74
	11424	22.85	-8.42967E-001	-8.00445E-004	0.00000E+000	-8.42400E-001	-8.62605E-004	9	..........a	0	-327.74
	11452	22.906	-8.45754E-001	-8.01080E-004	0.00000E+000	-8.45200E-001	-8.20939E-004	9	..........a	0	-327.74
	11480	22.962	-8.48471E-001	-8.01599E-004	0.00000E+000	-8.48000E-001	-8.04272E-004	9	..........a	0	-327.74
	11508	23.018	-8.51296E-001	-7.99071E-004	0.00000E+000	-8.50800E-001	-8.37606E-004	9	..........a	0	-327.74
	11536	23.074	-8.54137E-001	-7.99213E-004	0.00000E+000	-8.53600E-001	-8.37606E-004	9	..........a	0	-327.74
	11564	23.13	-8.56912E-001	-8.01227E-004	0.00000E+000	-8.56400E-001	-8.04272E-004	9	..........a	0	-327.74
	11592	23.186	-8.59662E-001	-8.00759E-004	0.00000E+000	-8.59200E-001	-8.20939E-004	9	..........a	0	-327.74
	11620	23.242	-8.62521E-001	-8.03926E-004	0.00000E+000	-8.62000E-001	-7.79272E-004	9	..........a	0	-327.74
	11648	23.298	-8.65342E-001	-7.99045E-004	0.00000E+000	-8.64800E-001	-8.37606E-004	9	..........a	0	-327.74
	11676	23.354	-8.68150E-001	-7.99422E-004	0.00000E+000	-8.67600E-001	-8.12605E-004	9	..........a	0	-327.74
	11704	23.41	-8.70883E-001	-8.02852E-004	0.00000E+000	-8.70400E-001	-8.04272E-004	9	..........a	0	-327.74
	11732	23.466	-8.73733E-001	-8.00320E-004	0.00000E+000	-8.73200E-001	-7.87605E-004	9	..........a	0	-327.74
	11760	23.522	-8.76529E-001	-8.01001E-004	0.00000E+000	-8.76000E-001	-7.79272E-004	9	..........a	0	-327.74
	11788	23.578	-8.79383E-001	-7.97637E-004	0.00000E+000	-8.78800E-001	-7.95939E-004	9	..........a	0	-327.74
	11816	23.634	-8.82037E-001	-8.01206E-004	0.00000E+000	-8.81600E-001	-8.04272E-004	9	..........a	0	-327.74
	11844	23.69	-8.84896E-001	-8.02096E-004	0.00000E+000	-8.84400E-001	-7.95939E-004	9	..........a	0	-327.74
	11872	23.746	-8.87721E-001	-8.02781E-004	0.00000E+000	-8.87200E-001	-7.95939E-004	9	..........a	0	-327.74
	11900	23.802	-8.90500E-001	-8.02117E-004	0.00000E+000	-8.90000E-001	-7.87605E-004	9	..........a	0	-327.74
	11928	23.858	-8.93271E-001	-8.03550E-004	0.00000E+000	-8.92800E-001	-8.20939E-004	9	..........a	0	-327.74
	11956	23.914	-8.96104E-001	-8.04407E-004	0.00000E+000	-8.95600E-001	-7.87605E-004	9	..........a	0	-327.74
	11984	23.97	-8.98846E-001	-8.02012E-004	0.00000E+000	-8.98400E-001	-8.04272E-004	9	..........a	0	-327.74
	12012	24.026	-9.01712E-001	-8.00947E-004	0.00000E+000	-9.01200E-001	-8.12605E-004	9	..........a	0	-327.74
	12040	24.082	-9.04504E-001	-8.01712E-004	0.00000E+000	-9.04000E-001	-7.95939E-004	9	..........a	0	-327.74
	12068	24.138	-9.07408E-001	-8.00153E-004	0.00000E+000	-9.06800E-001	-8.04272E-004	9	..........a	0	-327.74
	12096	24.194	-9.10071E-001	-8.01335E-004	0.00000E+000	-9.09600E-001	-7.70939E-004	9	..........a	0	-327.74
	12124	24.25	-9.12908E-001	-7.99568E-004	0.00000E+000	-9.12400E-001	-7.95939E-004	9	..........a	0	-327.74
	12152	24.306	-9.15700E-001	-8.01035E-004	0.00000E+000	-9.15200E-001	-8.20939E-004	9	..........a	0	-327.74
	12180	24.362	-9.18487E-001	-8.01227E-004	0.00000E+000	-9.18000E-001	-7.87605E-004	9	..........a	0	-327.74
	12208	24.418	-9.21329E-001	-8.01051E-004	0.00000E+000	-9.20800E-001	-8.20939E-004	9	..........a	0	-327.74
	12236	24.474	-9.24062E-001	-8.02217E-004	0.00000E+000	-9.23600E-001	-7.62605E-004	9	..........a	0	-327.74
	12264	24.53	-9.26892E-001	-8.01858E-004	0.00000E+000	-9.26400E-001	-7.79272E-004	9	..........a	0	-327.74
	12292	24.586	-9.29671E-001	-8.01791E-004	0.00000E+000	-9.29200E-001	-7.54272E-004	9	..........a	0	-327.74
	12320	24.642	-9.32517E-001	-7.99568E-004	0.00000E+000	-9.32000E-001	-7.79272E-004	9	..........a	0	-327.74
	12348	24.698	-9.35246E-001	-8.02405E-004	0.00000E+000	-9.34800E-001	-8.20939E-004	9	..........a	0	-327.74
	12376	24.754	-9.38096E-001	-8.04102E-004	0.00000E+000	-9.37600E-001	-8.20939E-004	9	..........a	0	-327.74
	12404	24.81	-9.40900E-001	-8.03997E-004	0.00000E+000	-9.40400E-001	-8.62605E-004	9	..........a	0	-327.74
	12432	24.866	-9.43725E-001	-8.03492E-004	0.00000E+000	-9.43200E-001	-8.20939E-004	9	..........a	0	-327.74
	12460	24.922	-9.46467E-001	-8.04532E-004	0.00000E+000	-9.46000E-001	-7.95939E-004	9	..........a	0	-327.74
	12488	24.978	-9.49242E-001	-8.06546E-004	0.00000E+000	-9.48800E-001	-8.54272E-004	9	..........a	0	-327.74
	12516	25.034	-9.52083E-001	-8.05614E-004	0.00000E+000	-9.51600E-001	-8.04272E-004	9	..........a	0	-327.74
	12544	25.09	-9.54946E-001	-8.04929E-004	0.00000E+000	-9.54400E-001	-8.45939E-004	9	..........a	0	-327.74
	12572	25.146	-9.57775E-001	-8.01640E-004	0.00000E+000	-9.57200E-001	-8.12605E-004	9	..........a	0	-327.74
	12600	25.202	-9.60496E-001	-8.03767E-004	0.00000E+000	-9.60000E-001	-8.37606E-004	9	..........a	0	-327.74
	12628	25.258	-9.63250E-001	-8.02911E-004	0.00000E+000	-9.62800E-001	-7.87605E-004	9	..........a	0	-327.74
	12656	25.314	-9.66062E-001	-8.02756E-004	0.00000E+000	-9.65600E-001	-8.37606E-004	9	..........a	0	-327.74
	12684	25.37	-9.68908E-001	-8.03613E-004	0.00000E+000	-9.68400E-001	-8.20939E-004	9	..........a	0	-327.74
	12712	25.426	-9.71650E-001	-8.05502E-004	0.00000E+000	-9.71200E-001	-8.04272E-004	9	..........a	0	-327.74
	12740	25.482	-9.74454E-001	-8.03625E-004	0.00000E+000	-9.74000E-001	-8.29272E-004	9	..........a	0	-327.74
	12768	25.538	-9.77271E-001	-8.03826E-004	0.00000E+000	-9.76800E-001	-7.87605E-004	9	..........a	0	-327.74
	12796	25.594	-9.80058E-001	-8.04386E-004	0.00000E+000	-9.79600E-001	-7.95939E-004	9	..........a	0	-327.74
	12824	25.65	-9.82812E-001	-8.04143E-004	0.00000E+000	-9.82400E-001	-7.95939E-004	9	..........a	0	-327.74
	12852	25.706	-9.85654E-001	-8.02631E-004	0.00000E+000	-9.85200E-001	-7.95939E-004	9	..........a	0	-327.74
	12880	25.762	-9.88450E-001	-8.03132E-004	0.00000E+000	-9.88000E-001	-7.70939E-004	9	..........a	0	-327.74
	12908	25.818	-9.91279E-001	-8.04210E-004	0.00000E+000	-9.90800E-001	-7.95939E-004	9	..........a	0	-327.74
	12936	25.874	-9.94042E-001	-8.03788E-004	0.00000E+000	-9.93600E-001	-7.45939E-004	9	..........a	0	-327.74
	12964	25.93	-9.96917E-001	-8.06371E-004	0.00000E+000	-9.96400E-001	-7.87605E-004	9	..........a	0	-327.74
	12992	25.986	-9.99654E-001	-8.05355E-004	0.00000E+000	-9.99200E-001	-7.79272E-004	9	..........a	0	-327.74
	13000	26.002	-1.00040E+000	-8.05915E-004	0.00000E+000	-1.00000E+000	-7.79272E-004	9	..........a	0	-327.74