File: data/02-SI/Figures_S9_S11_RDE/14btmapaq-rde/1mkcl-5mmolar14btmapaq-nitrogen-500mvpers.DTA
EXPLAIN
TAG	CV
TITLE	LABEL	Cyclic Voltammetry	Test &Identifier
DATE	LABEL	1/31/2023	Date
TIME	LABEL	14:03:02	Time
NOTES	NOTES	1	&Notes...

PSTAT	PSTAT	REF3000-21108	Potentiostat
VINIT	POTEN	5.00000E-001	F	Initial &E (V)
VLIMIT1	POTEN	-1.00000E+000	F	Scan Limit &1 (V)
VLIMIT2	POTEN	5.00000E-001	F	Scan Limit &2 (V)
VFINAL	POTEN	5.00000E-001	F	Final &E (V)
SCANRATE	QUANT	4.99999E+002	&Scan Rate (mV/s)
STEPSIZE	QUANT	1.00000E+000	St&ep Size (mV)
CYCLES	IQUANT	1	C&ycles (#)
IMODE	SELECTOR	1	I/E Range &Mode
IRANGE	QUANT	1.00000E+001	&Max Current (mA)
AREA	QUANT	1.00000E+000	Electrode &Area (cm^2)
ELECTRODETYPE	SELECTOR	0	Electrode Type
STRIPPING	TOGGLE	F	Used for Stripping
POLARITY	TOGGLE	F	Signal Polarity
CONDIT	TWOPARAM	F	1.50000E+001	0.00000E+000	Conditionin&g	Time(s)	E(V)
DELAY	TWOPARAM	F	5.00000E+000	0.00000E+000	Init. De&lay	Time(s)	Stab.(mV/s)
EQDELAY	QUANT	0.00000E+000	Equil. &Time (s)
IRCOMP	SELECTOR	0	IRCom&p
PFCOR	QUANT	5.00000E+001	PF Corr. (ohm)
SAMPLINGMODE	SELECTOR	1	Sampling &Mode
EOC	QUANT	0	Open Circuit (V)
PSTATMODEL	IQUANT	5	Pstat Model
PSTATSECTION	LABEL	REF3000-21108	Pstat Section
PSTATSERIALNO	LABEL	21108	Pstat Serial Number
CTRLMODE	IQUANT	1	Control Mode
ELECTROMETER	IQUANT	0	RE=0 or CS=1
IESTAB	IQUANT	2	I/E Stability
CASPEED	IQUANT	4	Control Amp Speed
CONVENTION	IQUANT	1	Current Convention
ICHRANGE	IQUANT	2	Ich Range
ICHRANGEMODE	TOGGLE	F	Ich Auto Range
ICHOFFSETENABLE	TOGGLE	F	Ich Offset Enable
ICHOFFSET	QUANT	0	Ich Offset (V)
ICHFILTER	IQUANT	2	Ich Filter
VCHRANGE	IQUANT	2	Vch Range
VCHRANGEMODE	TOGGLE	F	Vch Auto Range
VCHOFFSETENABLE	TOGGLE	F	Vch Offset Enable
VCHOFFSET	QUANT	0	Vch Offset (V)
VCHFILTER	IQUANT	2	Vch Filter
ACHRANGE	IQUANT	2	Ach Range
ACHOFFSETENABLE	TOGGLE	F	Ach Offset Enable
ACHOFFSET	QUANT	0	Ach Offset (V)
ACHFILTER	IQUANT	0	Ach Filter
IERANGELOWERLIMIT	IQUANT	2	I/E Range Lower Limit
IERANGEMODE	TOGGLE	F	I/E AutoRange
IERANGE	IQUANT	10	I/E Range
POSFEEDENABLE	TOGGLE	F	Positive Feedback IR Comp
POSFEEDRESISTANCE	QUANT	0	Positive Feedback Resistance (ohm)
ACHSELECT	IQUANT	0	Ach Select
SENSECABLEID	IQUANT	14	Sense Cable ID
PWRCABLEID	IQUANT	7	Power Cable ID
DCCALDATE	LABEL	11/9/2022	DC Calibration Date
ACCALDATE	LABEL	11/9/2022	AC Calibration Date
THERMOSELECT	IQUANT	1	Thermo Select
FRAMEWORKVERSION	LABEL	7.8.2	Framework Version
INSTRUMENTVERSION	LABEL	4.40	Instrument Version
COMPLIANCEVOLTAGE	IQUANT	0	Compliance Voltage
CURVE1	TABLE
	Pt	T	Vf	Im	Vu	Sig	Ach	IERange	Over	Temp
	#	s	V vs. Ref.	A	V	V	V	#	bits	deg C
	0	0.002	4.98810E-001	8.62692E-005	0.00000E+000	5.00000E-001	-7.54272E-004	10	..........a	-327.74
	7	0.016	4.91748E-001	7.37785E-005	0.00000E+000	4.93000E-001	-7.45939E-004	10	..........a	-327.74
	14	0.03	4.84794E-001	6.58413E-005	0.00000E+000	4.86000E-001	-7.95939E-004	10	..........a	-327.74
	21	0.044	4.77777E-001	5.98675E-005	0.00000E+000	4.79000E-001	-7.37606E-004	10	..........a	-327.74
	28	0.058	4.70831E-001	5.44368E-005	0.00000E+000	4.72000E-001	-7.62605E-004	10	..........a	-327.74
	35	0.072	4.63802E-001	5.11784E-005	0.00000E+000	4.65000E-001	-8.04272E-004	10	..........a	-327.74
	42	0.086	4.56848E-001	4.81706E-005	0.00000E+000	4.58000E-001	-8.45939E-004	10	..........a	-327.74
	49	0.1	4.49739E-001	4.56223E-005	0.00000E+000	4.51000E-001	-7.87605E-004	10	..........a	-327.74
	56	0.114	4.42823E-001	4.28652E-005	0.00000E+000	4.44000E-001	-8.12605E-004	10	..........a	-327.74
	63	0.128	4.35835E-001	4.06929E-005	0.00000E+000	4.37000E-001	-7.37606E-004	10	..........a	-327.74
	70	0.142	4.28856E-001	3.86877E-005	0.00000E+000	4.30000E-001	-7.29272E-004	10	..........a	-327.74
	77	0.156	4.21844E-001	3.67661E-005	0.00000E+000	4.23000E-001	-8.04272E-004	10	..........a	-327.74
	84	0.17	4.14827E-001	3.53458E-005	0.00000E+000	4.16000E-001	-8.04272E-004	10	..........a	-327.74
	91	0.184	4.07827E-001	3.38836E-005	0.00000E+000	4.09000E-001	-8.12605E-004	10	..........a	-327.74
	98	0.198	4.00885E-001	3.26722E-005	0.00000E+000	4.02000E-001	-8.20939E-004	10	..........a	-327.74
	105	0.212	3.93819E-001	3.14607E-005	0.00000E+000	3.95000E-001	-8.45939E-004	10	..........a	-327.74
	112	0.226	3.86827E-001	3.02492E-005	0.00000E+000	3.88000E-001	-8.20939E-004	10	..........a	-327.74
	119	0.24	3.79777E-001	2.93720E-005	0.00000E+000	3.81000E-001	-7.45939E-004	10	..........a	-327.74
	126	0.254	3.72794E-001	2.86200E-005	0.00000E+000	3.74000E-001	-8.12605E-004	10	..........a	-327.74
	133	0.268	3.65848E-001	2.72832E-005	0.00000E+000	3.67000E-001	-7.87605E-004	10	..........a	-327.74
	140	0.282	3.58827E-001	2.59882E-005	0.00000E+000	3.60000E-001	-8.12605E-004	10	..........a	-327.74
	147	0.296	3.51948E-001	2.53616E-005	0.00000E+000	3.53000E-001	-7.37606E-004	10	..........a	-327.74
	154	0.31	3.44869E-001	2.40666E-005	0.00000E+000	3.46000E-001	-7.79272E-004	10	..........a	-327.74
	161	0.324	3.37810E-001	2.34400E-005	0.00000E+000	3.39000E-001	-7.29272E-004	10	..........a	-327.74
	168	0.338	3.30839E-001	2.22703E-005	0.00000E+000	3.32000E-001	-7.70939E-004	10	..........a	-327.74
	175	0.352	3.23764E-001	2.17690E-005	0.00000E+000	3.25000E-001	-8.45939E-004	10	..........a	-327.74
	182	0.366	3.16885E-001	2.15183E-005	0.00000E+000	3.18000E-001	-7.95939E-004	10	..........a	-327.74
	189	0.38	3.09885E-001	2.03486E-005	0.00000E+000	3.11000E-001	-8.37606E-004	10	..........a	-327.74
	196	0.394	3.02864E-001	1.93878E-005	0.00000E+000	3.04000E-001	-8.54272E-004	10	..........a	-327.74
	203	0.408	2.95764E-001	1.97220E-005	0.00000E+000	2.97000E-001	-7.87605E-004	10	..........a	-327.74
	210	0.422	2.88885E-001	1.90954E-005	0.00000E+000	2.90000E-001	-7.95939E-004	10	..........a	-327.74
	217	0.436	2.81844E-001	1.82181E-005	0.00000E+000	2.83000E-001	-8.37606E-004	10	..........a	-327.74
	224	0.45	2.74894E-001	1.74244E-005	0.00000E+000	2.76000E-001	-8.45939E-004	10	..........a	-327.74
	231	0.464	2.67898E-001	1.74662E-005	0.00000E+000	2.69000E-001	-7.87605E-004	10	..........a	-327.74
	238	0.478	2.60906E-001	1.68395E-005	0.00000E+000	2.62000E-001	-8.12605E-004	10	..........a	-327.74
	245	0.492	2.53927E-001	1.67142E-005	0.00000E+000	2.55000E-001	-7.87605E-004	10	..........a	-327.74
	252	0.506	2.46931E-001	1.57116E-005	0.00000E+000	2.48000E-001	-8.79272E-004	10	..........a	-327.74
	259	0.52	2.39873E-001	1.48344E-005	0.00000E+000	2.41000E-001	-7.79272E-004	10	..........a	-327.74
	266	0.534	2.32923E-001	1.46255E-005	0.00000E+000	2.34000E-001	-8.62605E-004	10	..........a	-327.74
	273	0.548	2.25864E-001	1.42495E-005	0.00000E+000	2.27000E-001	-8.04272E-004	10	..........a	-327.74
	280	0.562	2.18944E-001	1.43331E-005	0.00000E+000	2.20000E-001	-7.87605E-004	10	..........a	-327.74
	287	0.576	2.11885E-001	1.37900E-005	0.00000E+000	2.13000E-001	-7.95939E-004	10	..........a	-327.74
	294	0.59	2.04906E-001	1.30798E-005	0.00000E+000	2.06000E-001	-8.12605E-004	10	..........a	-327.74
	301	0.604	1.97989E-001	1.31634E-005	0.00000E+000	1.99000E-001	-7.95939E-004	10	..........a	-327.74
	308	0.618	1.90894E-001	1.28292E-005	0.00000E+000	1.92000E-001	-7.37606E-004	10	..........a	-327.74
	315	0.632	1.83914E-001	1.20354E-005	0.00000E+000	1.85000E-001	-7.79272E-004	10	..........a	-327.74
	322	0.646	1.76977E-001	1.20354E-005	0.00000E+000	1.78000E-001	-7.20939E-004	10	..........a	-327.74
	329	0.66	1.69944E-001	1.16595E-005	0.00000E+000	1.71000E-001	-7.87605E-004	10	..........a	-327.74
	336	0.674	1.62914E-001	1.12000E-005	0.00000E+000	1.64000E-001	-7.70939E-004	10	..........a	-327.74
	343	0.688	1.55960E-001	1.07404E-005	0.00000E+000	1.57000E-001	-7.70939E-004	10	..........a	-327.74
	350	0.702	1.48906E-001	1.05733E-005	0.00000E+000	1.50000E-001	-8.54272E-004	10	..........a	-327.74
	357	0.716	1.42052E-001	9.98848E-006	0.00000E+000	1.43000E-001	-7.54272E-004	10	..........a	-327.74
	364	0.73	1.34923E-001	9.57074E-006	0.00000E+000	1.36000E-001	-7.79272E-004	10	..........a	-327.74
	371	0.744	1.27989E-001	9.11122E-006	0.00000E+000	1.29000E-001	-8.45939E-004	10	..........a	-327.74
	378	0.758	1.21031E-001	8.90234E-006	0.00000E+000	1.22000E-001	-8.12605E-004	10	..........a	-327.74
	385	0.772	1.13977E-001	9.15299E-006	0.00000E+000	1.15000E-001	-8.29272E-004	10	..........a	-327.74
	392	0.786	1.06994E-001	8.27572E-006	0.00000E+000	1.08000E-001	-7.29272E-004	10	..........a	-327.74
	399	0.8	9.99936E-002	8.02507E-006	0.00000E+000	1.01000E-001	-7.95939E-004	10	..........a	-327.74
	406	0.814	9.29352E-002	7.10603E-006	0.00000E+000	9.40000E-002	-7.62605E-004	10	..........a	-327.74
	413	0.828	8.60269E-002	7.35668E-006	0.00000E+000	8.70000E-002	-7.95939E-004	10	..........a	-327.74
	420	0.842	7.89686E-002	6.52118E-006	0.00000E+000	8.00000E-002	-8.04272E-004	10	..........a	-327.74
	427	0.856	7.20477E-002	6.52118E-006	0.00000E+000	7.30000E-002	-7.87605E-004	10	..........a	-327.74
	434	0.87	6.51186E-002	5.76923E-006	0.00000E+000	6.60000E-002	-8.04272E-004	10	..........a	-327.74
	441	0.884	5.80477E-002	6.18698E-006	0.00000E+000	5.90000E-002	-8.04272E-004	10	..........a	-327.74
	448	0.898	5.09727E-002	5.30971E-006	0.00000E+000	5.20000E-002	-8.37606E-004	10	..........a	-327.74
	455	0.912	4.39769E-002	4.72487E-006	0.00000E+000	4.50000E-002	-8.29272E-004	10	..........a	-327.74
	462	0.926	3.69727E-002	4.43244E-006	0.00000E+000	3.80000E-002	-7.79272E-004	10	..........a	-327.74
	469	0.94	3.00144E-002	3.76405E-006	0.00000E+000	3.10000E-002	-8.45939E-004	10	..........a	-327.74
	476	0.954	2.29352E-002	3.51340E-006	0.00000E+000	2.40000E-002	-8.04272E-004	10	..........a	-327.74
	483	0.968	1.58852E-002	3.51340E-006	0.00000E+000	1.70000E-002	-8.04272E-004	10	..........a	-327.74
	490	0.982	9.03106E-003	3.30452E-006	0.00000E+000	9.99999E-003	-8.29272E-004	10	..........a	-327.74
	497	0.996	1.98106E-003	2.80323E-006	0.00000E+000	2.99999E-003	-8.45939E-004	10	..........a	-327.74
	504	1.01	-4.96477E-003	2.38548E-006	0.00000E+000	-4.00001E-003	-8.29272E-004	10	..........a	-327.74
	511	1.024	-1.19523E-002	1.84241E-006	0.00000E+000	-1.10000E-002	-7.87605E-004	10	..........a	-327.74
	518	1.038	-1.89981E-002	1.46644E-006	0.00000E+000	-1.80000E-002	-8.12605E-004	10	..........a	-327.74
	525	1.052	-2.59523E-002	1.13224E-006	0.00000E+000	-2.50000E-002	-8.20939E-004	10	..........a	-327.74
	532	1.066	-3.29606E-002	1.13224E-006	0.00000E+000	-3.20000E-002	-7.54272E-004	10	..........a	-327.74
	539	1.08	-3.99898E-002	1.25756E-006	0.00000E+000	-3.90000E-002	-8.12605E-004	10	..........a	-327.74
	546	1.094	-4.69231E-002	1.04869E-006	0.00000E+000	-4.60000E-002	-8.20939E-004	10	..........a	-327.74
	553	1.108	-5.39481E-002	6.30941E-007	0.00000E+000	-5.30000E-002	-8.20939E-004	10	..........a	-327.74
	560	1.122	-6.08439E-002	7.14490E-007	0.00000E+000	-6.00000E-002	-8.20939E-004	10	..........a	-327.74
	567	1.136	-6.79689E-002	-3.74554E-008	0.00000E+000	-6.70000E-002	-7.95939E-004	10	..........a	-327.74
	574	1.15	-7.49356E-002	5.47391E-007	0.00000E+000	-7.40000E-002	-8.54272E-004	10	..........a	-327.74
	581	1.164	-8.19648E-002	8.78689E-008	0.00000E+000	-8.10000E-002	-8.29272E-004	10	..........a	-327.74
	588	1.178	-8.89689E-002	-1.62780E-007	0.00000E+000	-8.80000E-002	-8.70939E-004	10	..........a	-327.74
	595	1.192	-9.59648E-002	-4.96978E-007	0.00000E+000	-9.50000E-002	-7.87605E-004	10	..........a	-327.74
	602	1.206	-1.02948E-001	-1.04005E-006	0.00000E+000	-1.02000E-001	-8.20939E-004	10	..........a	-327.74
	609	1.22	-1.09965E-001	-7.05851E-007	0.00000E+000	-1.09000E-001	-8.62605E-004	10	..........a	-327.74
	616	1.234	-1.16948E-001	-1.04005E-006	0.00000E+000	-1.16000E-001	-8.37606E-004	10	..........a	-327.74
	623	1.248	-1.23919E-001	-1.04005E-006	0.00000E+000	-1.23000E-001	-8.12605E-004	10	..........a	-327.74
	630	1.262	-1.30944E-001	-1.04005E-006	0.00000E+000	-1.30000E-001	-7.54272E-004	10	..........a	-327.74
	637	1.276	-1.37986E-001	-1.29070E-006	0.00000E+000	-1.37000E-001	-7.45939E-004	10	..........a	-327.74
	644	1.29	-1.44948E-001	-1.33247E-006	0.00000E+000	-1.44000E-001	-8.37606E-004	10	..........a	-327.74
	651	1.304	-1.51990E-001	-1.79199E-006	0.00000E+000	-1.51000E-001	-7.87605E-004	10	..........a	-327.74
	658	1.318	-1.58861E-001	-1.75022E-006	0.00000E+000	-1.58000E-001	-8.54272E-004	10	..........a	-327.74
	665	1.332	-1.65961E-001	-2.29329E-006	0.00000E+000	-1.65000E-001	-7.45939E-004	10	..........a	-327.74
	672	1.346	-1.72965E-001	-2.33507E-006	0.00000E+000	-1.72000E-001	-7.54272E-004	10	..........a	-327.74
	679	1.36	-1.79919E-001	-2.41862E-006	0.00000E+000	-1.79000E-001	-7.87605E-004	10	..........a	-327.74
	686	1.374	-1.86973E-001	-2.87814E-006	0.00000E+000	-1.86000E-001	-7.45939E-004	10	..........a	-327.74
	693	1.388	-1.93927E-001	-2.54394E-006	0.00000E+000	-1.93000E-001	-7.54272E-004	10	..........a	-327.74
	700	1.402	-2.00994E-001	-3.58831E-006	0.00000E+000	-2.00000E-001	-7.87605E-004	10	..........a	-327.74
	707	1.416	-2.07919E-001	-3.58831E-006	0.00000E+000	-2.07000E-001	-7.12606E-004	10	..........a	-327.74
	714	1.43	-2.14840E-001	-3.58831E-006	0.00000E+000	-2.14000E-001	-7.37606E-004	10	..........a	-327.74
	721	1.444	-2.21936E-001	-3.88073E-006	0.00000E+000	-2.21000E-001	-7.37606E-004	10	..........a	-327.74
	728	1.458	-2.28927E-001	-5.13398E-006	0.00000E+000	-2.28000E-001	-7.79272E-004	10	..........a	-327.74
	735	1.472	-2.35873E-001	-5.38462E-006	0.00000E+000	-2.35000E-001	-8.12605E-004	10	..........a	-327.74
	742	1.486	-2.42819E-001	-5.88592E-006	0.00000E+000	-2.42000E-001	-8.37606E-004	10	..........a	-327.74
	749	1.5	-2.49894E-001	-6.13657E-006	0.00000E+000	-2.49000E-001	-7.70939E-004	10	..........a	-327.74
	756	1.514	-2.56836E-001	-6.88852E-006	0.00000E+000	-2.56000E-001	-7.45939E-004	10	..........a	-327.74
	763	1.528	-2.63936E-001	-7.01384E-006	0.00000E+000	-2.63000E-001	-7.04272E-004	10	..........a	-327.74
	770	1.542	-2.70844E-001	-7.68223E-006	0.00000E+000	-2.70000E-001	-7.70939E-004	10	..........a	-327.74
	777	1.556	-2.77894E-001	-8.51773E-006	0.00000E+000	-2.77000E-001	-7.12606E-004	10	..........a	-327.74
	784	1.57	-2.84898E-001	-9.43677E-006	0.00000E+000	-2.84000E-001	-8.04272E-004	10	..........a	-327.74
	791	1.584	-2.91856E-001	-9.68742E-006	0.00000E+000	-2.91000E-001	-7.70939E-004	10	..........a	-327.74
	798	1.598	-2.98890E-001	-1.01469E-005	0.00000E+000	-2.98000E-001	-7.95939E-004	10	..........a	-327.74
	805	1.612	-3.05902E-001	-1.06482E-005	0.00000E+000	-3.05000E-001	-8.04272E-004	10	..........a	-327.74
	812	1.626	-3.12927E-001	-1.16926E-005	0.00000E+000	-3.12000E-001	-7.95939E-004	10	..........a	-327.74
	819	1.64	-3.19906E-001	-1.23610E-005	0.00000E+000	-3.19000E-001	-8.04272E-004	10	..........a	-327.74
	826	1.654	-3.26861E-001	-1.31547E-005	0.00000E+000	-3.26000E-001	-8.04272E-004	10	..........a	-327.74
	833	1.668	-3.33906E-001	-1.40320E-005	0.00000E+000	-3.33000E-001	-7.95939E-004	10	..........a	-327.74
	840	1.682	-3.40806E-001	-1.49928E-005	0.00000E+000	-3.40000E-001	-7.54272E-004	10	..........a	-327.74
	847	1.696	-3.47865E-001	-1.56194E-005	0.00000E+000	-3.47000E-001	-8.20939E-004	10	..........a	-327.74
	854	1.71	-3.54861E-001	-1.66638E-005	0.00000E+000	-3.54000E-001	-7.62605E-004	10	..........a	-327.74
	861	1.724	-3.61890E-001	-1.82095E-005	0.00000E+000	-3.61000E-001	-7.62605E-004	10	..........a	-327.74
	868	1.738	-3.68927E-001	-1.91285E-005	0.00000E+000	-3.68000E-001	-7.70939E-004	10	..........a	-327.74
	875	1.752	-3.75886E-001	-2.10084E-005	0.00000E+000	-3.75000E-001	-7.20939E-004	10	..........a	-327.74
	882	1.766	-3.82798E-001	-2.33895E-005	0.00000E+000	-3.82000E-001	-7.37606E-004	10	..........a	-327.74
	889	1.78	-3.89869E-001	-2.56454E-005	0.00000E+000	-3.89000E-001	-7.79272E-004	10	..........a	-327.74
	896	1.794	-3.96831E-001	-2.87785E-005	0.00000E+000	-3.96000E-001	-7.54272E-004	10	..........a	-327.74
	903	1.808	-4.03823E-001	-3.31231E-005	0.00000E+000	-4.03000E-001	-8.04272E-004	10	..........a	-327.74
	910	1.822	-4.10815E-001	-3.82614E-005	0.00000E+000	-4.10000E-001	-6.95939E-004	10	..........a	-327.74
	917	1.836	-4.17890E-001	-4.49035E-005	0.00000E+000	-4.17000E-001	-7.62605E-004	10	..........a	-327.74
	924	1.85	-4.24840E-001	-5.28825E-005	0.00000E+000	-4.24000E-001	-7.29272E-004	10	..........a	-327.74
	931	1.864	-4.31840E-001	-6.32427E-005	0.00000E+000	-4.31000E-001	-7.29272E-004	10	..........a	-327.74
	938	1.878	-4.38844E-001	-7.48978E-005	0.00000E+000	-4.38000E-001	-7.54272E-004	10	..........a	-327.74
	945	1.892	-4.45856E-001	-8.91012E-005	0.00000E+000	-4.45000E-001	-7.45939E-004	10	..........a	-327.74
	952	1.906	-4.52819E-001	-1.05017E-004	0.00000E+000	-4.52000E-001	-7.87605E-004	10	..........a	-327.74
	959	1.92	-4.59823E-001	-1.22981E-004	0.00000E+000	-4.59000E-001	-8.20939E-004	10	..........a	-327.74
	966	1.934	-4.66865E-001	-1.43241E-004	0.00000E+000	-4.66000E-001	-7.95939E-004	10	..........a	-327.74
	973	1.948	-4.73848E-001	-1.64630E-004	0.00000E+000	-4.73000E-001	-7.29272E-004	10	..........a	-327.74
	980	1.962	-4.80786E-001	-1.87731E-004	0.00000E+000	-4.80000E-001	-8.04272E-004	10	..........a	-327.74
	987	1.976	-4.87840E-001	-2.12963E-004	0.00000E+000	-4.87000E-001	-7.95939E-004	10	..........a	-327.74
	994	1.99	-4.94831E-001	-2.39950E-004	0.00000E+000	-4.94000E-001	-7.54272E-004	10	..........a	-327.74
	1001	2.004	-5.01844E-001	-2.70696E-004	0.00000E+000	-5.01000E-001	-8.37606E-004	10	..........a	-327.74
	1008	2.018	-5.08811E-001	-3.03698E-004	0.00000E+000	-5.08000E-001	-7.37606E-004	10	..........a	-327.74
	1015	2.032	-5.15811E-001	-3.41045E-004	0.00000E+000	-5.15000E-001	-7.37606E-004	10	..........a	-327.74
	1022	2.046	-5.22806E-001	-3.81900E-004	0.00000E+000	-5.22000E-001	-7.95939E-004	10	..........a	-327.74
	1029	2.06	-5.29823E-001	-4.26182E-004	0.00000E+000	-5.29000E-001	-7.79272E-004	10	..........a	-327.74
	1036	2.074	-5.36790E-001	-4.73011E-004	0.00000E+000	-5.36000E-001	-7.54272E-004	10	..........a	-327.74
	1043	2.088	-5.43823E-001	-5.20300E-004	0.00000E+000	-5.43000E-001	-7.79272E-004	10	..........a	-327.74
	1050	2.102	-5.50790E-001	-5.65835E-004	0.00000E+000	-5.50000E-001	-7.54272E-004	10	..........a	-327.74
	1057	2.116	-5.57848E-001	-6.07192E-004	0.00000E+000	-5.57000E-001	-7.79272E-004	10	..........a	-327.74
	1064	2.13	-5.64756E-001	-6.42533E-004	0.00000E+000	-5.64000E-001	-7.62605E-004	10	..........a	-327.74
	1071	2.144	-5.71765E-001	-6.66345E-004	0.00000E+000	-5.71000E-001	-6.95939E-004	10	..........a	-327.74
	1078	2.158	-5.78790E-001	-6.77499E-004	0.00000E+000	-5.78000E-001	-7.95939E-004	10	..........a	-327.74
	1085	2.172	-5.85794E-001	-6.76538E-004	0.00000E+000	-5.85000E-001	-7.29272E-004	10	..........a	-327.74
	1092	2.186	-5.92773E-001	-6.61917E-004	0.00000E+000	-5.92000E-001	-8.04272E-004	10	..........a	-327.74
	1099	2.2	-5.99844E-001	-6.38648E-004	0.00000E+000	-5.99000E-001	-7.37606E-004	10	..........a	-327.74
	1106	2.214	-6.06752E-001	-6.10325E-004	0.00000E+000	-6.06000E-001	-7.70939E-004	10	..........a	-327.74
	1113	2.228	-6.13823E-001	-5.80163E-004	0.00000E+000	-6.13000E-001	-7.95939E-004	10	..........a	-327.74
	1120	2.242	-6.20736E-001	-5.51798E-004	0.00000E+000	-6.20000E-001	-7.54272E-004	10	..........a	-327.74
	1127	2.256	-6.27723E-001	-5.25313E-004	0.00000E+000	-6.27000E-001	-7.45939E-004	10	..........a	-327.74
	1134	2.27	-6.34736E-001	-5.02086E-004	0.00000E+000	-6.34000E-001	-7.54272E-004	10	..........a	-327.74
	1141	2.284	-6.41681E-001	-4.81283E-004	0.00000E+000	-6.41000E-001	-8.29272E-004	10	..........a	-327.74
	1148	2.298	-6.48681E-001	-4.63403E-004	0.00000E+000	-6.48000E-001	-7.37606E-004	10	..........a	-327.74
	1155	2.312	-6.55761E-001	-4.47445E-004	0.00000E+000	-6.55000E-001	-8.20939E-004	10	..........a	-327.74
	1162	2.326	-6.62748E-001	-4.33116E-004	0.00000E+000	-6.62000E-001	-7.70939E-004	10	..........a	-327.74
	1169	2.34	-6.69756E-001	-4.20124E-004	0.00000E+000	-6.69000E-001	-7.70939E-004	10	..........a	-327.74
	1176	2.354	-6.76752E-001	-4.08636E-004	0.00000E+000	-6.76000E-001	-7.29272E-004	10	..........a	-327.74
	1183	2.368	-6.83698E-001	-3.97232E-004	0.00000E+000	-6.83000E-001	-7.54272E-004	10	..........a	-327.74
	1190	2.382	-6.90731E-001	-3.86203E-004	0.00000E+000	-6.90000E-001	-7.79272E-004	10	..........a	-327.74
	1197	2.396	-6.97656E-001	-3.75425E-004	0.00000E+000	-6.97000E-001	-7.70939E-004	10	..........a	-327.74
	1204	2.41	-7.04706E-001	-3.66569E-004	0.00000E+000	-7.04000E-001	-7.79272E-004	10	..........a	-327.74
	1211	2.424	-7.11719E-001	-3.57003E-004	0.00000E+000	-7.11000E-001	-7.20939E-004	10	..........a	-327.74
	1218	2.438	-7.18723E-001	-3.47938E-004	0.00000E+000	-7.18000E-001	-7.54272E-004	10	..........a	-327.74
	1225	2.452	-7.25740E-001	-3.40335E-004	0.00000E+000	-7.25000E-001	-7.37606E-004	10	..........a	-327.74
	1232	2.466	-7.32702E-001	-3.32982E-004	0.00000E+000	-7.32000E-001	-7.87605E-004	10	..........a	-327.74
	1239	2.48	-7.39673E-001	-3.26048E-004	0.00000E+000	-7.39000E-001	-7.87605E-004	10	..........a	-327.74
	1246	2.494	-7.46715E-001	-3.19364E-004	0.00000E+000	-7.46000E-001	-7.70939E-004	10	..........a	-327.74
	1253	2.508	-7.53681E-001	-3.12721E-004	0.00000E+000	-7.53000E-001	-8.04272E-004	10	..........a	-327.74
	1260	2.522	-7.60698E-001	-3.06706E-004	0.00000E+000	-7.60000E-001	-8.62605E-004	10	..........a	-327.74
	1267	2.536	-7.67698E-001	-3.01025E-004	0.00000E+000	-7.67000E-001	-8.04272E-004	10	..........a	-327.74
	1274	2.55	-7.74694E-001	-2.95803E-004	0.00000E+000	-7.74000E-001	-8.12605E-004	10	..........a	-327.74
	1281	2.564	-7.81706E-001	-2.90497E-004	0.00000E+000	-7.81000E-001	-7.54272E-004	10	..........a	-327.74
	1288	2.578	-7.88715E-001	-2.85651E-004	0.00000E+000	-7.88000E-001	-7.95939E-004	10	..........a	-327.74
	1295	2.592	-7.95631E-001	-2.80931E-004	0.00000E+000	-7.95000E-001	-7.12606E-004	10	..........a	-327.74
	1302	2.606	-8.02744E-001	-2.76753E-004	0.00000E+000	-8.02000E-001	-6.95939E-004	10	..........a	-327.74
	1309	2.62	-8.09694E-001	-2.72409E-004	0.00000E+000	-8.09000E-001	-8.12605E-004	10	..........a	-327.74
	1316	2.634	-8.16644E-001	-2.67897E-004	0.00000E+000	-8.16000E-001	-8.12605E-004	10	..........a	-327.74
	1323	2.648	-8.23594E-001	-2.64430E-004	0.00000E+000	-8.23000E-001	-7.62605E-004	10	..........a	-327.74
	1330	2.662	-8.30690E-001	-2.60044E-004	0.00000E+000	-8.30000E-001	-8.45939E-004	10	..........a	-327.74
	1337	2.676	-8.37631E-001	-2.57036E-004	0.00000E+000	-8.37000E-001	-8.62605E-004	10	..........a	-327.74
	1344	2.69	-8.44665E-001	-2.53736E-004	0.00000E+000	-8.44000E-001	-7.79272E-004	10	..........a	-327.74
	1351	2.704	-8.51586E-001	-2.50811E-004	0.00000E+000	-8.51000E-001	-7.62605E-004	10	..........a	-327.74
	1358	2.718	-8.58623E-001	-2.47929E-004	0.00000E+000	-8.58000E-001	-7.29272E-004	10	..........a	-327.74
	1365	2.732	-8.65619E-001	-2.43751E-004	0.00000E+000	-8.65000E-001	-7.79272E-004	10	..........a	-327.74
	1372	2.746	-8.72531E-001	-2.41161E-004	0.00000E+000	-8.72000E-001	-7.70939E-004	10	..........a	-327.74
	1379	2.76	-8.79606E-001	-2.38404E-004	0.00000E+000	-8.79000E-001	-7.45939E-004	10	..........a	-327.74
	1386	2.774	-8.86665E-001	-2.36357E-004	0.00000E+000	-8.86000E-001	-7.87605E-004	10	..........a	-327.74
	1393	2.788	-8.93598E-001	-2.32765E-004	0.00000E+000	-8.93000E-001	-7.62605E-004	10	..........a	-327.74
	1400	2.802	-9.00652E-001	-2.30968E-004	0.00000E+000	-9.00000E-001	-7.37606E-004	10	..........a	-327.74
	1407	2.816	-9.07577E-001	-2.28336E-004	0.00000E+000	-9.07000E-001	-7.95939E-004	10	..........a	-327.74
	1414	2.83	-9.14606E-001	-2.26206E-004	0.00000E+000	-9.14000E-001	-7.79272E-004	10	..........a	-327.74
	1421	2.844	-9.21573E-001	-2.23867E-004	0.00000E+000	-9.21000E-001	-7.62605E-004	10	..........a	-327.74
	1428	2.858	-9.28556E-001	-2.22028E-004	0.00000E+000	-9.28000E-001	-8.79272E-004	10	..........a	-327.74
	1435	2.872	-9.35561E-001	-2.19522E-004	0.00000E+000	-9.35000E-001	-7.87605E-004	10	..........a	-327.74
	1442	2.886	-9.42627E-001	-2.18269E-004	0.00000E+000	-9.42000E-001	-7.29272E-004	10	..........a	-327.74
	1449	2.9	-9.49594E-001	-2.16514E-004	0.00000E+000	-9.49000E-001	-7.54272E-004	10	..........a	-327.74
	1456	2.914	-9.56686E-001	-2.14133E-004	0.00000E+000	-9.56000E-001	-7.29272E-004	10	..........a	-327.74
	1463	2.928	-9.63565E-001	-2.13005E-004	0.00000E+000	-9.63000E-001	-7.87605E-004	10	..........a	-327.74
	1470	2.942	-9.70661E-001	-2.10916E-004	0.00000E+000	-9.70000E-001	-7.54272E-004	10	..........a	-327.74
	1477	2.956	-9.77590E-001	-2.09621E-004	0.00000E+000	-9.77000E-001	-8.12605E-004	10	..........a	-327.74
	1484	2.97	-9.84469E-001	-2.08117E-004	0.00000E+000	-9.84000E-001	-7.54272E-004	10	..........a	-327.74
	1491	2.984	-9.91581E-001	-2.05987E-004	0.00000E+000	-9.91000E-001	-8.04272E-004	10	..........a	-327.74
	1498	2.998	-9.98565E-001	-2.05110E-004	0.00000E+000	-9.98000E-001	-8.20939E-004	10	..........a	-327.74
	1505	3.012	-9.95586E-001	-1.93580E-004	0.00000E+000	-9.95000E-001	-7.79272E-004	10	..........a	-327.74
	1512	3.026	-9.88602E-001	-1.87230E-004	0.00000E+000	-9.88000E-001	-7.37606E-004	10	..........a	-327.74
	1519	3.04	-9.81565E-001	-1.82718E-004	0.00000E+000	-9.81000E-001	-7.70939E-004	10	..........a	-327.74
	1526	3.054	-9.74623E-001	-1.78666E-004	0.00000E+000	-9.74000E-001	-7.79272E-004	10	..........a	-327.74
	1533	3.068	-9.67611E-001	-1.76536E-004	0.00000E+000	-9.67000E-001	-8.12605E-004	10	..........a	-327.74
	1540	3.082	-9.60565E-001	-1.74155E-004	0.00000E+000	-9.60000E-001	-7.45939E-004	10	..........a	-327.74
	1547	3.096	-9.53602E-001	-1.71773E-004	0.00000E+000	-9.53000E-001	-8.12605E-004	10	..........a	-327.74
	1554	3.11	-9.46652E-001	-1.70353E-004	0.00000E+000	-9.46000E-001	-7.70939E-004	10	..........a	-327.74
	1561	3.124	-9.39590E-001	-1.67304E-004	0.00000E+000	-9.39000E-001	-7.54272E-004	10	..........a	-327.74
	1568	3.138	-9.32706E-001	-1.65674E-004	0.00000E+000	-9.32000E-001	-8.04272E-004	10	..........a	-327.74
	1575	3.152	-9.25565E-001	-1.64212E-004	0.00000E+000	-9.25000E-001	-7.45939E-004	10	..........a	-327.74
	1582	3.166	-9.18652E-001	-1.62165E-004	0.00000E+000	-9.18000E-001	-7.95939E-004	10	..........a	-327.74
	1589	3.18	-9.11640E-001	-1.60327E-004	0.00000E+000	-9.11000E-001	-7.79272E-004	10	..........a	-327.74
	1596	3.194	-9.04436E-001	-1.58949E-004	0.00000E+000	-9.04000E-001	-6.87606E-004	10	..........a	-327.74
	1603	3.208	-8.97581E-001	-1.58531E-004	0.00000E+000	-8.97000E-001	-8.12605E-004	10	..........a	-327.74
	1610	3.222	-8.90661E-001	-1.57361E-004	0.00000E+000	-8.90000E-001	-7.79272E-004	10	..........a	-327.74
	1617	3.236	-8.83602E-001	-1.55481E-004	0.00000E+000	-8.83000E-001	-8.04272E-004	10	..........a	-327.74
	1624	3.25	-8.76652E-001	-1.54688E-004	0.00000E+000	-8.76000E-001	-7.45939E-004	10	..........a	-327.74
	1631	3.264	-8.69611E-001	-1.53434E-004	0.00000E+000	-8.69000E-001	-7.79272E-004	10	..........a	-327.74
	1638	3.278	-8.62669E-001	-1.51680E-004	0.00000E+000	-8.62000E-001	-7.62605E-004	10	..........a	-327.74
	1645	3.292	-8.55644E-001	-1.51429E-004	0.00000E+000	-8.55000E-001	-8.29272E-004	10	..........a	-327.74
	1652	3.306	-8.48581E-001	-1.49257E-004	0.00000E+000	-8.48000E-001	-7.95939E-004	10	..........a	-327.74
	1659	3.32	-8.41644E-001	-1.47920E-004	0.00000E+000	-8.41000E-001	-7.70939E-004	10	..........a	-327.74
	1666	3.334	-8.34669E-001	-1.47126E-004	0.00000E+000	-8.34000E-001	-7.62605E-004	10	..........a	-327.74
	1673	3.348	-8.27611E-001	-1.45998E-004	0.00000E+000	-8.27000E-001	-8.12605E-004	10	..........a	-327.74
	1680	3.362	-8.20648E-001	-1.44662E-004	0.00000E+000	-8.20000E-001	-7.95939E-004	10	..........a	-327.74
	1687	3.376	-8.13665E-001	-1.43784E-004	0.00000E+000	-8.13000E-001	-8.20939E-004	10	..........a	-327.74
	1694	3.39	-8.06686E-001	-1.43158E-004	0.00000E+000	-8.06000E-001	-7.70939E-004	10	..........a	-327.74
	1701	3.404	-7.99711E-001	-1.41529E-004	0.00000E+000	-7.99000E-001	-7.87605E-004	10	..........a	-327.74
	1708	3.418	-7.92706E-001	-1.40735E-004	0.00000E+000	-7.92000E-001	-7.87605E-004	10	..........a	-327.74
	1715	3.432	-7.85677E-001	-1.39273E-004	0.00000E+000	-7.85000E-001	-7.87605E-004	10	..........a	-327.74
	1722	3.446	-7.78711E-001	-1.38938E-004	0.00000E+000	-7.78000E-001	-7.37606E-004	10	..........a	-327.74
	1729	3.46	-7.71586E-001	-1.38354E-004	0.00000E+000	-7.71000E-001	-7.79272E-004	10	..........a	-327.74
	1736	3.474	-7.64723E-001	-1.37017E-004	0.00000E+000	-7.64000E-001	-7.37606E-004	10	..........a	-327.74
	1743	3.488	-7.57715E-001	-1.36181E-004	0.00000E+000	-7.57000E-001	-7.29272E-004	10	..........a	-327.74
	1750	3.502	-7.50702E-001	-1.34552E-004	0.00000E+000	-7.50000E-001	-7.29272E-004	10	..........a	-327.74
	1757	3.516	-7.43731E-001	-1.33591E-004	0.00000E+000	-7.43000E-001	-7.54272E-004	10	..........a	-327.74
	1764	3.53	-7.36702E-001	-1.31753E-004	0.00000E+000	-7.36000E-001	-7.45939E-004	10	..........a	-327.74
	1771	3.544	-7.29690E-001	-1.30960E-004	0.00000E+000	-7.29000E-001	-7.54272E-004	10	..........a	-327.74
	1778	3.558	-7.22723E-001	-1.30040E-004	0.00000E+000	-7.22000E-001	-7.54272E-004	10	..........a	-327.74
	1785	3.572	-7.15719E-001	-1.28286E-004	0.00000E+000	-7.15000E-001	-7.95939E-004	10	..........a	-327.74
	1792	3.586	-7.08731E-001	-1.27409E-004	0.00000E+000	-7.08000E-001	-7.87605E-004	10	..........a	-327.74
	1799	3.6	-7.01723E-001	-1.26364E-004	0.00000E+000	-7.01000E-001	-7.79272E-004	10	..........a	-327.74
	1806	3.614	-6.94727E-001	-1.24777E-004	0.00000E+000	-6.94000E-001	-7.95939E-004	10	..........a	-327.74
	1813	3.628	-6.87752E-001	-1.23106E-004	0.00000E+000	-6.87000E-001	-7.29272E-004	10	..........a	-327.74
	1820	3.642	-6.80752E-001	-1.21686E-004	0.00000E+000	-6.80000E-001	-7.62605E-004	10	..........a	-327.74
	1827	3.656	-6.73731E-001	-1.19639E-004	0.00000E+000	-6.73000E-001	-7.79272E-004	10	..........a	-327.74
	1834	3.67	-6.66761E-001	-1.18051E-004	0.00000E+000	-6.66000E-001	-7.54272E-004	10	..........a	-327.74
	1841	3.684	-6.59744E-001	-1.15962E-004	0.00000E+000	-6.59000E-001	-8.04272E-004	10	..........a	-327.74
	1848	3.698	-6.52752E-001	-1.13122E-004	0.00000E+000	-6.52000E-001	-7.37606E-004	10	..........a	-327.74
	1855	3.712	-6.45644E-001	-1.11075E-004	0.00000E+000	-6.45000E-001	-7.04272E-004	10	..........a	-327.74
	1862	3.726	-6.38744E-001	-1.07816E-004	0.00000E+000	-6.38000E-001	-7.45939E-004	10	..........a	-327.74
	1869	3.74	-6.31769E-001	-1.04224E-004	0.00000E+000	-6.31000E-001	-7.79272E-004	10	..........a	-327.74
	1876	3.754	-6.24840E-001	-9.96702E-005	0.00000E+000	-6.24000E-001	-7.54272E-004	10	..........a	-327.74
	1883	3.768	-6.17752E-001	-9.43231E-005	0.00000E+000	-6.17000E-001	-7.95939E-004	10	..........a	-327.74
	1890	3.782	-6.10786E-001	-8.66783E-005	0.00000E+000	-6.10000E-001	-7.87605E-004	10	..........a	-327.74
	1897	3.796	-6.03761E-001	-7.69030E-005	0.00000E+000	-6.03000E-001	-8.04272E-004	10	..........a	-327.74
	1904	3.81	-5.96761E-001	-6.40782E-005	0.00000E+000	-5.96000E-001	-8.29272E-004	10	..........a	-327.74
	1911	3.824	-5.89736E-001	-4.72012E-005	0.00000E+000	-5.89000E-001	-7.95939E-004	10	..........a	-327.74
	1918	3.838	-5.82756E-001	-2.61467E-005	0.00000E+000	-5.82000E-001	-7.54272E-004	10	..........a	-327.74
	1925	3.852	-5.75827E-001	1.29934E-006	0.00000E+000	-5.75000E-001	-7.79272E-004	10	..........a	-327.74
	1932	3.866	-5.68777E-001	3.45938E-005	0.00000E+000	-5.68000E-001	-8.04272E-004	10	..........a	-327.74
	1939	3.88	-5.61811E-001	7.22746E-005	0.00000E+000	-5.61000E-001	-8.04272E-004	10	..........a	-327.74
	1946	3.894	-5.54794E-001	1.14008E-004	0.00000E+000	-5.54000E-001	-8.20939E-004	10	..........a	-327.74
	1953	3.908	-5.47777E-001	1.57453E-004	0.00000E+000	-5.47000E-001	-8.12605E-004	10	..........a	-327.74
	1960	3.922	-5.40806E-001	2.00272E-004	0.00000E+000	-5.40000E-001	-7.70939E-004	10	..........a	-327.74
	1967	3.936	-5.33798E-001	2.40669E-004	0.00000E+000	-5.33000E-001	-8.20939E-004	10	..........a	-327.74
	1974	3.95	-5.26765E-001	2.77723E-004	0.00000E+000	-5.26000E-001	-8.20939E-004	10	..........a	-327.74
	1981	3.964	-5.19848E-001	3.09806E-004	0.00000E+000	-5.19000E-001	-8.29272E-004	10	..........a	-327.74
	1988	3.978	-5.12819E-001	3.36542E-004	0.00000E+000	-5.12000E-001	-8.04272E-004	10	..........a	-327.74
	1995	3.992	-5.05861E-001	3.58557E-004	0.00000E+000	-5.05000E-001	-8.29272E-004	10	..........a	-327.74
	2002	4.006	-4.98790E-001	3.75142E-004	0.00000E+000	-4.98000E-001	-8.79272E-004	10	..........a	-327.74
	2009	4.02	-4.91740E-001	3.88802E-004	0.00000E+000	-4.91000E-001	-7.87605E-004	10	..........a	-327.74
	2016	4.034	-4.84861E-001	3.95528E-004	0.00000E+000	-4.84000E-001	-7.62605E-004	10	..........a	-327.74
	2023	4.048	-4.77869E-001	3.99162E-004	0.00000E+000	-4.77000E-001	-7.87605E-004	10	..........a	-327.74
	2030	4.062	-4.70827E-001	3.97867E-004	0.00000E+000	-4.70000E-001	-7.45939E-004	10	..........a	-327.74
	2037	4.076	-4.63873E-001	3.94024E-004	0.00000E+000	-4.63000E-001	-7.54272E-004	10	..........a	-327.74
	2044	4.09	-4.56815E-001	3.86797E-004	0.00000E+000	-4.56000E-001	-8.20939E-004	10	..........a	-327.74
	2051	4.104	-4.49861E-001	3.77021E-004	0.00000E+000	-4.49000E-001	-7.79272E-004	10	..........a	-327.74
	2058	4.118	-4.42798E-001	3.66870E-004	0.00000E+000	-4.42000E-001	-7.37606E-004	10	..........a	-327.74
	2065	4.132	-4.35786E-001	3.55424E-004	0.00000E+000	-4.35000E-001	-7.70939E-004	10	..........a	-327.74
	2072	4.146	-4.28811E-001	3.43059E-004	0.00000E+000	-4.28000E-001	-7.95939E-004	10	..........a	-327.74
	2079	4.16	-4.21852E-001	3.31320E-004	0.00000E+000	-4.21000E-001	-7.79272E-004	10	..........a	-327.74
	2086	4.174	-4.14836E-001	3.19999E-004	0.00000E+000	-4.14000E-001	-8.04272E-004	10	..........a	-327.74
	2093	4.188	-4.07890E-001	3.09054E-004	0.00000E+000	-4.07000E-001	-8.12605E-004	10	..........a	-327.74
	2100	4.202	-4.00844E-001	2.98986E-004	0.00000E+000	-4.00000E-001	-7.54272E-004	10	..........a	-327.74
	2107	4.216	-3.93836E-001	2.89211E-004	0.00000E+000	-3.93000E-001	-8.04272E-004	10	..........a	-327.74
	2114	4.23	-3.86873E-001	2.79853E-004	0.00000E+000	-3.86000E-001	-7.70939E-004	10	..........a	-327.74
	2121	4.244	-3.79856E-001	2.71624E-004	0.00000E+000	-3.79000E-001	-8.29272E-004	10	..........a	-327.74
	2128	4.258	-3.72881E-001	2.63519E-004	0.00000E+000	-3.72000E-001	-7.62605E-004	10	..........a	-327.74
	2135	4.272	-3.65827E-001	2.56710E-004	0.00000E+000	-3.65000E-001	-8.54272E-004	10	..........a	-327.74
	2142	4.286	-3.58790E-001	2.49859E-004	0.00000E+000	-3.58000E-001	-7.70939E-004	10	..........a	-327.74
	2149	4.3	-3.51865E-001	2.43844E-004	0.00000E+000	-3.51000E-001	-7.79272E-004	10	..........a	-327.74
	2156	4.314	-3.44998E-001	2.37368E-004	0.00000E+000	-3.44000E-001	-7.62605E-004	10	..........a	-327.74
	2163	4.328	-3.37865E-001	2.31896E-004	0.00000E+000	-3.37000E-001	-7.95939E-004	10	..........a	-327.74
	2170	4.342	-3.30890E-001	2.26423E-004	0.00000E+000	-3.30000E-001	-7.95939E-004	10	..........a	-327.74
	2177	4.356	-3.23877E-001	2.21912E-004	0.00000E+000	-3.23000E-001	-8.37606E-004	10	..........a	-327.74
	2184	4.37	-3.16840E-001	2.17484E-004	0.00000E+000	-3.16000E-001	-7.95939E-004	10	..........a	-327.74
	2191	4.384	-3.09927E-001	2.13014E-004	0.00000E+000	-3.09000E-001	-8.37606E-004	10	..........a	-327.74
	2198	4.398	-3.02886E-001	2.08419E-004	0.00000E+000	-3.02000E-001	-8.12605E-004	10	..........a	-327.74
	2205	4.412	-2.95927E-001	2.04366E-004	0.00000E+000	-2.95000E-001	-8.20939E-004	10	..........a	-327.74
	2212	4.426	-2.88873E-001	2.00356E-004	0.00000E+000	-2.88000E-001	-7.54272E-004	10	..........a	-327.74
	2219	4.44	-2.81923E-001	1.96095E-004	0.00000E+000	-2.81000E-001	-8.29272E-004	10	..........a	-327.74
	2226	4.454	-2.74861E-001	1.92962E-004	0.00000E+000	-2.74000E-001	-7.87605E-004	10	..........a	-327.74
	2233	4.468	-2.67986E-001	1.89077E-004	0.00000E+000	-2.67000E-001	-7.54272E-004	10	..........a	-327.74
	2240	4.482	-2.60852E-001	1.84774E-004	0.00000E+000	-2.60000E-001	-7.79272E-004	10	..........a	-327.74
	2247	4.496	-2.53965E-001	1.81474E-004	0.00000E+000	-2.53000E-001	-8.29272E-004	10	..........a	-327.74
	2254	4.51	-2.46844E-001	1.78299E-004	0.00000E+000	-2.46000E-001	-7.70939E-004	10	..........a	-327.74
	2261	4.524	-2.39906E-001	1.74497E-004	0.00000E+000	-2.39000E-001	-7.54272E-004	10	..........a	-327.74
	2268	4.538	-2.32906E-001	1.71281E-004	0.00000E+000	-2.32000E-001	-7.62605E-004	10	..........a	-327.74
	2275	4.552	-2.25902E-001	1.67855E-004	0.00000E+000	-2.25000E-001	-7.62605E-004	10	..........a	-327.74
	2282	4.566	-2.18898E-001	1.64806E-004	0.00000E+000	-2.18000E-001	-8.04272E-004	10	..........a	-327.74
	2289	4.58	-2.11886E-001	1.61589E-004	0.00000E+000	-2.11000E-001	-7.95939E-004	10	..........a	-327.74
	2296	4.594	-2.04940E-001	1.59291E-004	0.00000E+000	-2.04000E-001	-7.95939E-004	10	..........a	-327.74
	2303	4.608	-1.97969E-001	1.55365E-004	0.00000E+000	-1.97000E-001	-7.79272E-004	10	..........a	-327.74
	2310	4.622	-1.90940E-001	1.52816E-004	0.00000E+000	-1.90000E-001	-8.04272E-004	10	..........a	-327.74
	2317	4.636	-1.83952E-001	1.49767E-004	0.00000E+000	-1.83000E-001	-7.54272E-004	10	..........a	-327.74
	2324	4.65	-1.76948E-001	1.46801E-004	0.00000E+000	-1.76000E-001	-8.45939E-004	10	..........a	-327.74
	2331	4.664	-1.69936E-001	1.44420E-004	0.00000E+000	-1.69000E-001	-8.70939E-004	10	..........a	-327.74
	2338	4.678	-1.63015E-001	1.42373E-004	0.00000E+000	-1.62000E-001	-8.04272E-004	10	..........a	-327.74
	2345	4.692	-1.55906E-001	1.39741E-004	0.00000E+000	-1.55000E-001	-7.54272E-004	10	..........a	-327.74
	2352	4.706	-1.48940E-001	1.37610E-004	0.00000E+000	-1.48000E-001	-7.79272E-004	10	..........a	-327.74
	2359	4.72	-1.41936E-001	1.34895E-004	0.00000E+000	-1.41000E-001	-8.29272E-004	10	..........a	-327.74
	2366	4.734	-1.34952E-001	1.32806E-004	0.00000E+000	-1.34000E-001	-8.12605E-004	10	..........a	-327.74
	2373	4.748	-1.27944E-001	1.31010E-004	0.00000E+000	-1.27000E-001	-8.12605E-004	10	..........a	-327.74
	2380	4.762	-1.20969E-001	1.29130E-004	0.00000E+000	-1.20000E-001	-7.95939E-004	10	..........a	-327.74
	2387	4.776	-1.13965E-001	1.27376E-004	0.00000E+000	-1.13000E-001	-7.87605E-004	10	..........a	-327.74
	2394	4.79	-1.07048E-001	1.25955E-004	0.00000E+000	-1.06000E-001	-8.54272E-004	10	..........a	-327.74
	2401	4.804	-9.99898E-002	1.24034E-004	0.00000E+000	-9.90000E-002	-7.79272E-004	10	..........a	-327.74
	2408	4.818	-9.29731E-002	1.22613E-004	0.00000E+000	-9.20000E-002	-7.95939E-004	10	..........a	-327.74
	2415	4.832	-8.59981E-002	1.21193E-004	0.00000E+000	-8.50000E-002	-8.20939E-004	10	..........a	-327.74
	2422	4.846	-7.89148E-002	1.19438E-004	0.00000E+000	-7.80000E-002	-7.95939E-004	10	..........a	-327.74
	2429	4.86	-7.19564E-002	1.19313E-004	0.00000E+000	-7.10000E-002	-8.04272E-004	10	..........a	-327.74
	2436	4.874	-6.50273E-002	1.18269E-004	0.00000E+000	-6.40000E-002	-8.20939E-004	10	..........a	-327.74
	2443	4.888	-5.79439E-002	1.17934E-004	0.00000E+000	-5.70000E-002	-7.70939E-004	10	..........a	-327.74
	2450	4.902	-5.10398E-002	1.17600E-004	0.00000E+000	-5.00000E-002	-7.95939E-004	10	..........a	-327.74
	2457	4.916	-4.40189E-002	1.16765E-004	0.00000E+000	-4.30000E-002	-8.20939E-004	10	..........a	-327.74
	2464	4.93	-3.71106E-002	1.17141E-004	0.00000E+000	-3.60000E-002	-8.20939E-004	10	..........a	-327.74
	2471	4.944	-3.00106E-002	1.16556E-004	0.00000E+000	-2.90000E-002	-8.45939E-004	10	..........a	-327.74
	2478	4.958	-2.30023E-002	1.16096E-004	0.00000E+000	-2.20000E-002	-7.95939E-004	10	..........a	-327.74
	2485	4.972	-1.60106E-002	1.16639E-004	0.00000E+000	-1.50000E-002	-7.95939E-004	10	..........a	-327.74
	2492	4.986	-9.06894E-003	1.16681E-004	0.00000E+000	-8.00000E-003	-8.12605E-004	10	..........a	-327.74
	2499	5	-1.99394E-003	1.16514E-004	0.00000E+000	-1.00000E-003	-8.12605E-004	10	..........a	-327.74
	2506	5.014	4.94773E-003	1.16138E-004	0.00000E+000	5.99998E-003	-8.45939E-004	10	..........a	-327.74
	2513	5.028	1.19811E-002	1.16723E-004	0.00000E+000	1.30000E-002	-7.95939E-004	10	..........a	-327.74
	2520	5.042	1.89102E-002	1.16096E-004	0.00000E+000	2.00000E-002	-8.54272E-004	10	..........a	-327.74
	2527	5.056	2.59477E-002	1.16055E-004	0.00000E+000	2.70000E-002	-8.70939E-004	10	..........a	-327.74
	2534	5.07	3.30186E-002	1.16096E-004	0.00000E+000	3.40000E-002	-8.54272E-004	10	..........a	-327.74
	2541	5.084	3.98894E-002	1.15428E-004	0.00000E+000	4.10000E-002	-8.29272E-004	10	..........a	-327.74
	2548	5.098	4.69352E-002	1.15177E-004	0.00000E+000	4.80000E-002	-8.62605E-004	10	..........a	-327.74
	2555	5.112	5.39894E-002	1.14175E-004	0.00000E+000	5.50000E-002	-8.04272E-004	10	..........a	-327.74
	2562	5.126	6.09644E-002	1.13381E-004	0.00000E+000	6.20000E-002	-8.04272E-004	10	..........a	-327.74
	2569	5.14	6.80269E-002	1.12880E-004	0.00000E+000	6.90000E-002	-8.29272E-004	10	..........a	-327.74
	2576	5.154	7.50144E-002	1.12086E-004	0.00000E+000	7.60000E-002	-7.79272E-004	10	..........a	-327.74
	2583	5.168	8.19061E-002	1.10624E-004	0.00000E+000	8.30000E-002	-8.20939E-004	10	..........a	-327.74
	2590	5.182	8.89602E-002	1.09538E-004	0.00000E+000	9.00000E-002	-7.54272E-004	10	..........a	-327.74
	2597	5.196	9.58852E-002	1.08284E-004	0.00000E+000	9.70000E-002	-7.62605E-004	10	..........a	-327.74
	2604	5.21	1.02906E-001	1.06906E-004	0.00000E+000	1.04000E-001	-8.79272E-004	10	..........a	-327.74
	2611	5.224	1.10010E-001	1.05026E-004	0.00000E+000	1.11000E-001	-8.20939E-004	10	..........a	-327.74
	2618	5.238	1.16919E-001	1.03146E-004	0.00000E+000	1.18000E-001	-7.87605E-004	10	..........a	-327.74
	2625	5.252	1.23989E-001	1.02018E-004	0.00000E+000	1.25000E-001	-8.29272E-004	10	..........a	-327.74
	2632	5.266	1.30898E-001	1.00473E-004	0.00000E+000	1.32000E-001	-7.95939E-004	10	..........a	-327.74
	2639	5.28	1.37931E-001	9.94282E-005	0.00000E+000	1.39000E-001	-7.79272E-004	10	..........a	-327.74
	2646	5.294	1.45127E-001	9.77155E-005	0.00000E+000	1.46000E-001	-7.95939E-004	10	..........a	-327.74
	2653	5.308	1.51994E-001	9.69635E-005	0.00000E+000	1.53000E-001	-7.87605E-004	10	..........a	-327.74
	2660	5.322	1.58923E-001	9.50419E-005	0.00000E+000	1.60000E-001	-8.37606E-004	10	..........a	-327.74
	2667	5.336	1.66006E-001	9.37051E-005	0.00000E+000	1.67000E-001	-8.04272E-004	10	..........a	-327.74
	2674	5.35	1.72864E-001	9.28278E-005	0.00000E+000	1.74000E-001	-8.54272E-004	10	..........a	-327.74
	2681	5.364	1.79919E-001	9.04467E-005	0.00000E+000	1.81000E-001	-7.95939E-004	10	..........a	-327.74
	2688	5.378	1.86981E-001	8.95276E-005	0.00000E+000	1.88000E-001	-7.79272E-004	10	..........a	-327.74
	2695	5.392	1.93877E-001	8.82744E-005	0.00000E+000	1.95000E-001	-7.45939E-004	10	..........a	-327.74
	2702	5.406	2.00914E-001	8.72300E-005	0.00000E+000	2.02000E-001	-7.62605E-004	10	..........a	-327.74
	2709	5.42	2.07856E-001	8.61021E-005	0.00000E+000	2.09000E-001	-8.29272E-004	10	..........a	-327.74
	2716	5.434	2.14864E-001	8.56426E-005	0.00000E+000	2.16000E-001	-8.12605E-004	10	..........a	-327.74
	2723	5.448	2.21881E-001	8.44729E-005	0.00000E+000	2.23000E-001	-8.04272E-004	10	..........a	-327.74
	2730	5.462	2.28844E-001	8.38880E-005	0.00000E+000	2.30000E-001	-7.87605E-004	10	..........a	-327.74
	2737	5.476	2.35906E-001	8.27183E-005	0.00000E+000	2.37000E-001	-8.45939E-004	10	..........a	-327.74
	2744	5.49	2.42902E-001	8.21335E-005	0.00000E+000	2.44000E-001	-8.04272E-004	10	..........a	-327.74
	2751	5.504	2.49848E-001	8.11727E-005	0.00000E+000	2.51000E-001	-8.12605E-004	10	..........a	-327.74
	2758	5.518	2.56881E-001	8.03789E-005	0.00000E+000	2.58000E-001	-8.37606E-004	10	..........a	-327.74
	2765	5.532	2.63869E-001	7.95434E-005	0.00000E+000	2.65000E-001	-8.04272E-004	10	..........a	-327.74
	2772	5.546	2.70906E-001	7.90839E-005	0.00000E+000	2.72000E-001	-8.37606E-004	10	..........a	-327.74
	2779	5.56	2.77906E-001	7.84991E-005	0.00000E+000	2.79000E-001	-8.12605E-004	10	..........a	-327.74
	2786	5.574	2.84860E-001	7.79142E-005	0.00000E+000	2.86000E-001	-7.62605E-004	10	..........a	-327.74
	2793	5.588	2.91873E-001	7.75383E-005	0.00000E+000	2.93000E-001	-8.04272E-004	10	..........a	-327.74
	2800	5.602	2.98869E-001	7.66610E-005	0.00000E+000	3.00000E-001	-7.54272E-004	10	..........a	-327.74
	2807	5.616	3.05839E-001	7.61597E-005	0.00000E+000	3.07000E-001	-7.29272E-004	10	..........a	-327.74
	2814	5.63	3.12869E-001	7.57419E-005	0.00000E+000	3.14000E-001	-7.95939E-004	10	..........a	-327.74
	2821	5.644	3.19806E-001	7.51989E-005	0.00000E+000	3.21000E-001	-8.04272E-004	10	..........a	-327.74
	2828	5.658	3.26877E-001	7.50318E-005	0.00000E+000	3.28000E-001	-8.20939E-004	10	..........a	-327.74
	2835	5.672	3.33860E-001	7.52406E-005	0.00000E+000	3.35000E-001	-7.62605E-004	10	..........a	-327.74
	2842	5.686	3.40869E-001	7.48647E-005	0.00000E+000	3.42000E-001	-8.29272E-004	10	..........a	-327.74
	2849	5.7	3.47835E-001	7.41963E-005	0.00000E+000	3.49000E-001	-7.95939E-004	10	..........a	-327.74
	2856	5.714	3.54877E-001	7.39039E-005	0.00000E+000	3.56000E-001	-7.54272E-004	10	..........a	-327.74
	2863	5.728	3.61852E-001	7.41127E-005	0.00000E+000	3.63000E-001	-7.79272E-004	10	..........a	-327.74
	2870	5.742	3.68864E-001	7.34443E-005	0.00000E+000	3.70000E-001	-8.29272E-004	10	..........a	-327.74
	2877	5.756	3.75894E-001	7.32355E-005	0.00000E+000	3.77000E-001	-7.62605E-004	10	..........a	-327.74
	2884	5.77	3.82910E-001	7.27759E-005	0.00000E+000	3.84000E-001	-7.87605E-004	10	..........a	-327.74
	2891	5.784	3.89873E-001	7.26924E-005	0.00000E+000	3.91000E-001	-7.54272E-004	10	..........a	-327.74
	2898	5.798	3.96831E-001	7.19822E-005	0.00000E+000	3.98000E-001	-7.95939E-004	10	..........a	-327.74
	2905	5.812	4.03798E-001	7.17316E-005	0.00000E+000	4.05000E-001	-7.70939E-004	10	..........a	-327.74
	2912	5.826	4.10927E-001	7.09796E-005	0.00000E+000	4.12000E-001	-8.12605E-004	10	..........a	-327.74
	2919	5.84	4.17844E-001	7.09378E-005	0.00000E+000	4.19000E-001	-8.29272E-004	10	..........a	-327.74
	2926	5.854	4.24864E-001	7.08125E-005	0.00000E+000	4.26000E-001	-7.62605E-004	10	..........a	-327.74
	2933	5.868	4.31798E-001	7.01441E-005	0.00000E+000	4.33000E-001	-7.95939E-004	10	..........a	-327.74
	2940	5.882	4.38760E-001	6.98099E-005	0.00000E+000	4.40000E-001	-7.87605E-004	10	..........a	-327.74
	2947	5.896	4.45848E-001	6.98099E-005	0.00000E+000	4.47000E-001	-7.95939E-004	10	..........a	-327.74
	2954	5.91	4.52827E-001	6.92251E-005	0.00000E+000	4.54000E-001	-7.62605E-004	10	..........a	-327.74
	2961	5.924	4.59760E-001	6.89744E-005	0.00000E+000	4.61000E-001	-8.29272E-004	10	..........a	-327.74
	2968	5.938	4.66794E-001	6.83478E-005	0.00000E+000	4.68000E-001	-8.04272E-004	10	..........a	-327.74
	2975	5.952	4.73798E-001	6.78465E-005	0.00000E+000	4.75000E-001	-8.29272E-004	10	..........a	-327.74
	2982	5.966	4.80835E-001	6.74705E-005	0.00000E+000	4.82000E-001	-7.79272E-004	10	..........a	-327.74
	2989	5.98	4.87739E-001	6.77212E-005	0.00000E+000	4.89000E-001	-8.54272E-004	10	..........a	-327.74
	2996	5.994	4.94781E-001	6.67604E-005	0.00000E+000	4.96000E-001	-8.45939E-004	10	..........a	-327.74
	3000	6.002	4.98835E-001	6.58413E-005	0.00000E+000	5.00000E-001	-7.79272E-004	10	..........a	-327.74
CURVE2	TABLE
	Pt	T	Vf	Im	Vu	Sig	Ach	IERange	Over	Temp
	#	s	V vs. Ref.	A	V	V	V	#	bits	deg C
	3001	6.004	4.98839E-001	6.48805E-005	0.00000E+000	5.00000E-001	-8.29272E-004	10	..........a	-327.74