File: data/02-SI/Figures_S9_S11_RDE/14btmapaq-rde/1mkcl--5mmolar14btmapaq-nitrogen-rde-1600-50mvpers.DTA
EXPLAIN
TAG	LSV
TITLE	LABEL	Linear Sweep Voltammetry	Test &Identifier
DATE	LABEL	1/31/2023	Date
TIME	LABEL	13:13:05	Time
NOTES	NOTES	1	&Notes...

PSTAT	PSTAT	REF3000-21108	Potentiostat
VINIT	POTEN	3.00000E-001	F	&Initial E (V)
VFINAL	POTEN	-1.00000E+000	F	&Final E (V)
SCANRATE	QUANT	4.99999E+001	&Scan Rate (mV/s)
STEPSIZE	QUANT	1.00000E-001	St&ep Size (mV)
IMODE	SELECTOR	0	I/E Range &Mode
IRANGE	QUANT	1.00000E+002	&Max Current (mA)
AREA	QUANT	1.00000E+000	Electrode &Area (cm^2)
ELECTRODETYPE	SELECTOR	0	Electrode Type
STRIPPING	TOGGLE	F	Used for Stripping
POLARITY	TOGGLE	F	Signal Polarity
CONDIT	TWOPARAM	F	1.50000E+001	0.00000E+000	Conditionin&g	Time(s)	E(V)
DELAY	TWOPARAM	F	3.00000E+001	0.00000E+000	Init. De&lay	Time(s)	Stab.(mV/s)
EQDELAY	QUANT	0.00000E+000	Equil. &Time (s)
IRCOMP	SELECTOR	0	IRCom&p
PFCOR	QUANT	5.00000E+001	PF Corr. (ohm)
SAMPLINGMODE	SELECTOR	1	Sampling &Mode
EOC	QUANT	0	Open Circuit (V)
PSTATMODEL	IQUANT	5	Pstat Model
PSTATSECTION	LABEL	REF3000-21108	Pstat Section
PSTATSERIALNO	LABEL	21108	Pstat Serial Number
CTRLMODE	IQUANT	1	Control Mode
ELECTROMETER	IQUANT	0	RE=0 or CS=1
IESTAB	IQUANT	2	I/E Stability
CASPEED	IQUANT	4	Control Amp Speed
CONVENTION	IQUANT	1	Current Convention
ICHRANGE	IQUANT	2	Ich Range
ICHRANGEMODE	TOGGLE	F	Ich Auto Range
ICHOFFSETENABLE	TOGGLE	F	Ich Offset Enable
ICHOFFSET	QUANT	0	Ich Offset (V)
ICHFILTER	IQUANT	2	Ich Filter
VCHRANGE	IQUANT	2	Vch Range
VCHRANGEMODE	TOGGLE	T	Vch Auto Range
VCHOFFSETENABLE	TOGGLE	F	Vch Offset Enable
VCHOFFSET	QUANT	0	Vch Offset (V)
VCHFILTER	IQUANT	2	Vch Filter
ACHRANGE	IQUANT	2	Ach Range
ACHOFFSETENABLE	TOGGLE	F	Ach Offset Enable
ACHOFFSET	QUANT	0	Ach Offset (V)
ACHFILTER	IQUANT	0	Ach Filter
IERANGELOWERLIMIT	IQUANT	2	I/E Range Lower Limit
IERANGEMODE	TOGGLE	T	I/E AutoRange
IERANGE	IQUANT	11	I/E Range
POSFEEDENABLE	TOGGLE	F	Positive Feedback IR Comp
POSFEEDRESISTANCE	QUANT	0	Positive Feedback Resistance (ohm)
ACHSELECT	IQUANT	0	Ach Select
SENSECABLEID	IQUANT	14	Sense Cable ID
PWRCABLEID	IQUANT	7	Power Cable ID
DCCALDATE	LABEL	11/9/2022	DC Calibration Date
ACCALDATE	LABEL	11/9/2022	AC Calibration Date
THERMOSELECT	IQUANT	1	Thermo Select
FRAMEWORKVERSION	LABEL	7.8.2	Framework Version
INSTRUMENTVERSION	LABEL	4.40	Instrument Version
COMPLIANCEVOLTAGE	IQUANT	0	Compliance Voltage
CURVE	TABLE	13001
	Pt	T	Vf	Im	Vu	Sig	Ach	IERange	Over	Cycle	Temp
	#	s	V vs. Ref.	A	V	V	V	#	bits	#	deg C
	0	0.002	2.99788E-001	-4.25552E-005	0.00000E+000	3.00000E-001	-7.70939E-004	11	..........a	0	-327.74
	28	0.058	2.95981E-001	9.65660E-006	0.00000E+000	2.97200E-001	-8.29272E-004	8	..........a	0	-327.74
	56	0.114	2.93277E-001	7.96049E-006	0.00000E+000	2.94400E-001	-9.29272E-004	8	..........a	0	-327.74
	84	0.17	2.90435E-001	6.56602E-006	0.00000E+000	2.91600E-001	-8.45939E-004	8	..........a	0	-327.74
	112	0.226	2.87652E-001	5.22529E-006	0.00000E+000	2.88800E-001	-8.62605E-004	8	..........a	0	-327.74
	140	0.282	2.84831E-001	5.18738E-006	0.00000E+000	2.86000E-001	-8.37606E-004	8	..........a	0	-327.74
	168	0.338	2.82010E-001	4.55409E-006	0.00000E+000	2.83200E-001	-8.95939E-004	8	..........a	0	-327.74
	196	0.394	2.79260E-001	3.91665E-006	0.00000E+000	2.80400E-001	-8.29272E-004	8	..........a	0	-327.74
	224	0.45	2.76456E-001	3.59375E-006	0.00000E+000	2.77600E-001	-8.62605E-004	8	..........a	0	-327.74
	252	0.506	2.73639E-001	3.95123E-006	0.00000E+000	2.74800E-001	-8.54272E-004	8	..........a	0	-327.74
	280	0.562	2.70872E-001	3.68541E-006	0.00000E+000	2.72000E-001	-8.45939E-004	8	..........a	0	-327.74
	308	0.618	2.68043E-001	3.68500E-006	0.00000E+000	2.69200E-001	-8.87605E-004	8	..........a	0	-327.74
	336	0.674	2.65247E-001	3.22837E-006	0.00000E+000	2.66400E-001	-8.62605E-004	8	..........a	0	-327.74
	364	0.73	2.62443E-001	3.04255E-006	0.00000E+000	2.63600E-001	-8.70939E-004	8	..........a	0	-327.74
	392	0.786	2.59635E-001	3.17004E-006	0.00000E+000	2.60800E-001	-9.54272E-004	8	..........a	0	-327.74
	420	0.842	2.56831E-001	2.59508E-006	0.00000E+000	2.58000E-001	-9.04272E-004	8	..........a	0	-327.74
	448	0.898	2.54072E-001	2.27303E-006	0.00000E+000	2.55200E-001	-8.95939E-004	8	..........a	0	-327.74
	476	0.954	2.51235E-001	2.40968E-006	0.00000E+000	2.52400E-001	-8.70939E-004	8	..........a	0	-327.74
	504	1.01	2.48502E-001	2.19887E-006	0.00000E+000	2.49600E-001	-8.79272E-004	8	..........a	0	-327.74
	532	1.066	2.45718E-001	1.90764E-006	0.00000E+000	2.46800E-001	-8.70939E-004	8	..........a	0	-327.74
	560	1.122	2.42774E-001	1.92930E-006	0.00000E+000	2.44000E-001	-9.12605E-004	8	......s...a	0	-327.74
	588	1.178	2.39981E-001	1.56392E-006	0.00000E+000	2.41200E-001	-8.54272E-004	8	..........a	0	-327.74
	616	1.234	2.37180E-001	1.71141E-006	0.00000E+000	2.38400E-001	-8.54272E-004	8	..........a	0	-327.74
	644	1.29	2.34394E-001	1.64391E-006	0.00000E+000	2.35600E-001	-8.37606E-004	8	..........a	0	-327.74
	672	1.346	2.31593E-001	1.57558E-006	0.00000E+000	2.32800E-001	-8.70939E-004	8	..........a	0	-327.74
	700	1.402	2.28782E-001	1.11312E-006	0.00000E+000	2.30000E-001	-8.87605E-004	8	..........a	0	-327.74
	728	1.458	2.25994E-001	6.71906E-007	0.00000E+000	2.27200E-001	-8.54272E-004	8	..........a	0	-327.74
	756	1.514	2.23198E-001	1.10770E-006	0.00000E+000	2.24400E-001	-9.12605E-004	8	..........a	0	-327.74
	784	1.57	2.20396E-001	7.93563E-007	0.00000E+000	2.21600E-001	-8.37606E-004	8	..........a	0	-327.74
	812	1.626	2.17588E-001	7.15236E-007	0.00000E+000	2.18800E-001	-8.70939E-004	8	..........a	0	-327.74
	840	1.682	2.14815E-001	7.60649E-007	0.00000E+000	2.16000E-001	-9.12605E-004	8	..........a	0	-327.74
	868	1.738	2.11998E-001	8.51892E-007	0.00000E+000	2.13200E-001	-8.79272E-004	8	..........a	0	-327.74
	896	1.794	2.09210E-001	3.28600E-007	0.00000E+000	2.10400E-001	-8.62605E-004	8	..........a	0	-327.74
	924	1.85	2.06409E-001	3.92762E-007	0.00000E+000	2.07600E-001	-8.87605E-004	8	..........a	0	-327.74
	952	1.906	2.03609E-001	3.43182E-007	0.00000E+000	2.04800E-001	-8.04272E-004	8	..........a	0	-327.74
	980	1.962	2.00805E-001	4.99836E-007	0.00000E+000	2.02000E-001	-8.45939E-004	8	..........a	0	-327.74
	1008	2.018	1.98004E-001	4.53590E-007	0.00000E+000	1.99200E-001	-8.95939E-004	8	..........a	0	-327.74
	1036	2.074	1.95201E-001	6.44825E-007	0.00000E+000	1.96400E-001	-8.87605E-004	8	..........a	0	-327.74
	1064	2.13	1.92421E-001	5.11502E-007	0.00000E+000	1.93600E-001	-8.87605E-004	8	..........a	0	-327.74
	1092	2.186	1.89604E-001	2.35691E-007	0.00000E+000	1.90800E-001	-8.87605E-004	8	..........a	0	-327.74
	1120	2.242	1.86813E-001	2.59022E-007	0.00000E+000	1.88000E-001	-8.62605E-004	8	..........a	0	-327.74
	1148	2.298	1.84027E-001	4.72339E-007	0.00000E+000	1.85200E-001	-8.62605E-004	8	..........a	0	-327.74
	1176	2.354	1.81226E-001	4.74005E-007	0.00000E+000	1.82400E-001	-8.04272E-004	8	..........a	0	-327.74
	1204	2.41	1.78423E-001	3.87345E-007	0.00000E+000	1.79600E-001	-8.54272E-004	8	..........a	0	-327.74
	1232	2.466	1.75603E-001	5.53582E-007	0.00000E+000	1.76800E-001	-9.20939E-004	8	..........a	0	-327.74
	1260	2.522	1.72808E-001	1.73196E-007	0.00000E+000	1.74000E-001	-8.70939E-004	8	..........a	0	-327.74
	1288	2.578	1.70014E-001	1.33616E-007	0.00000E+000	1.71200E-001	-8.54272E-004	8	..........a	0	-327.74
	1316	2.634	1.67223E-001	-1.18031E-007	0.00000E+000	1.68400E-001	-8.37606E-004	8	..........a	0	-327.74
	1344	2.69	1.64417E-001	2.55689E-007	0.00000E+000	1.65600E-001	-8.37606E-004	8	..........a	0	-327.74
	1372	2.746	1.61619E-001	2.99853E-007	0.00000E+000	1.62800E-001	-8.54272E-004	8	..........a	0	-327.74
	1400	2.802	1.58813E-001	1.67363E-007	0.00000E+000	1.60000E-001	-8.37606E-004	8	..........a	0	-327.74
	1428	2.858	1.56027E-001	3.08602E-007	0.00000E+000	1.57200E-001	-8.20939E-004	8	..........a	0	-327.74
	1456	2.914	1.53228E-001	4.82338E-007	0.00000E+000	1.54400E-001	-8.62605E-004	8	..........a	0	-327.74
	1484	2.97	1.50431E-001	-1.09559E-008	0.00000E+000	1.51600E-001	-8.29272E-004	8	..........a	0	-327.74
	1512	3.026	1.47637E-001	3.68597E-007	0.00000E+000	1.48800E-001	-8.37606E-004	8	..........a	0	-327.74
	1540	3.082	1.44808E-001	-5.80354E-008	0.00000E+000	1.46000E-001	-8.62605E-004	8	..........a	0	-327.74
	1568	3.138	1.42033E-001	3.44849E-007	0.00000E+000	1.43200E-001	-8.29272E-004	8	..........a	0	-327.74
	1596	3.194	1.39223E-001	7.57038E-008	0.00000E+000	1.40400E-001	-8.54272E-004	8	..........a	0	-327.74
	1624	3.25	1.36437E-001	3.25684E-007	0.00000E+000	1.37600E-001	-8.37606E-004	8	..........a	0	-327.74
	1652	3.306	1.33642E-001	1.96944E-007	0.00000E+000	1.34800E-001	-8.87605E-004	8	..........a	0	-327.74
	1680	3.362	1.30842E-001	-2.51214E-008	0.00000E+000	1.32000E-001	-8.04272E-004	8	..........a	0	-327.74
	1708	3.418	1.28027E-001	-2.56353E-007	0.00000E+000	1.29200E-001	-8.37606E-004	8	..........a	0	-327.74
	1736	3.474	1.25244E-001	-2.39271E-007	0.00000E+000	1.26400E-001	-8.45939E-004	8	..........a	0	-327.74
	1764	3.53	1.22438E-001	-1.84692E-007	0.00000E+000	1.23600E-001	-8.95939E-004	8	..........a	0	-327.74
	1792	3.586	1.19641E-001	-9.67823E-008	0.00000E+000	1.20800E-001	-8.70939E-004	8	..........a	0	-327.74
	1820	3.642	1.16836E-001	-3.48012E-007	0.00000E+000	1.18000E-001	-8.37606E-004	8	..........a	0	-327.74
	1848	3.698	1.14033E-001	6.61213E-008	0.00000E+000	1.15200E-001	-8.54272E-004	8	..........a	0	-327.74
	1876	3.754	1.11236E-001	-2.94683E-007	0.00000E+000	1.12400E-001	-8.62605E-004	8	..........a	0	-327.74
	1904	3.81	1.08451E-001	3.36239E-008	0.00000E+000	1.09600E-001	-8.45939E-004	8	..........a	0	-327.74
	1932	3.866	1.05638E-001	-4.45504E-007	0.00000E+000	1.06800E-001	-8.62605E-004	8	..........a	0	-327.74
	1960	3.922	1.02855E-001	-8.59498E-008	0.00000E+000	1.04000E-001	-8.37606E-004	8	..........a	0	-327.74
	1988	3.978	1.00063E-001	6.98710E-008	0.00000E+000	1.01200E-001	-8.62605E-004	8	..........a	0	-327.74
	2016	4.034	9.72576E-002	-1.25113E-007	0.00000E+000	9.84000E-002	-8.45939E-004	8	..........a	0	-327.74
	2044	4.09	9.44614E-002	-2.58019E-007	0.00000E+000	9.56000E-002	-8.54272E-004	8	..........a	0	-327.74
	2072	4.146	9.16681E-002	-3.44262E-007	0.00000E+000	9.28000E-002	-8.20939E-004	8	..........a	0	-327.74
	2100	4.202	8.88593E-002	-1.22614E-007	0.00000E+000	9.00000E-002	-8.45939E-004	8	..........a	0	-327.74
	2128	4.258	8.60531E-002	-3.67594E-007	0.00000E+000	8.72000E-002	-8.12605E-004	8	..........a	0	-327.74
	2156	4.314	8.32697E-002	-6.80902E-007	0.00000E+000	8.44000E-002	-8.04272E-004	8	..........a	0	-327.74
	2184	4.37	8.04618E-002	2.32081E-008	0.00000E+000	8.16000E-002	-9.12605E-004	8	..........a	0	-327.74
	2212	4.426	7.76626E-002	-5.07999E-007	0.00000E+000	7.88000E-002	-9.12605E-004	8	..........a	0	-327.74
	2240	4.482	7.48693E-002	-6.10908E-007	0.00000E+000	7.60000E-002	-8.70939E-004	8	..........a	0	-327.74
	2268	4.538	7.20564E-002	-5.35080E-007	0.00000E+000	7.32000E-002	-8.87605E-004	8	..........a	0	-327.74
	2296	4.594	6.92743E-002	-6.05352E-008	0.00000E+000	7.04000E-002	-8.54272E-004	8	..........a	0	-327.74
	2324	4.65	6.64514E-002	-6.11324E-007	0.00000E+000	6.76000E-002	-8.04272E-004	8	..........a	0	-327.74
	2352	4.706	6.36756E-002	-2.90517E-007	0.00000E+000	6.48000E-002	-8.62605E-004	8	..........a	0	-327.74
	2380	4.762	6.08718E-002	-4.08424E-007	0.00000E+000	6.20000E-002	-8.79272E-004	8	..........a	0	-327.74
	2408	4.818	5.80751E-002	-3.61344E-007	0.00000E+000	5.92000E-002	-7.87605E-004	8	..........a	0	-327.74
	2436	4.874	5.52722E-002	-7.47147E-007	0.00000E+000	5.64000E-002	-8.37606E-004	8	..........a	0	-327.74
	2464	4.93	5.24685E-002	-4.69252E-007	0.00000E+000	5.36000E-002	-8.37606E-004	8	..........a	0	-327.74
	2492	4.986	4.96731E-002	-4.18006E-007	0.00000E+000	5.08000E-002	-8.62605E-004	8	..........a	0	-327.74
	2520	5.042	4.68781E-002	-8.97968E-007	0.00000E+000	4.80000E-002	-8.87605E-004	8	..........a	0	-327.74
	2548	5.098	4.40726E-002	-3.74260E-007	0.00000E+000	4.52000E-002	-8.62605E-004	8	..........a	0	-327.74
	2576	5.154	4.12810E-002	-2.95933E-007	0.00000E+000	4.24000E-002	-8.37606E-004	8	..........a	0	-327.74
	2604	5.21	3.84781E-002	-6.47155E-007	0.00000E+000	3.96000E-002	-8.37606E-004	8	..........a	0	-327.74
	2632	5.266	3.56760E-002	-6.57987E-007	0.00000E+000	3.68000E-002	-8.79272E-004	8	..........a	0	-327.74
	2660	5.322	3.28814E-002	-5.81743E-007	0.00000E+000	3.40000E-002	-8.70939E-004	8	..........a	0	-327.74
	2688	5.378	3.00847E-002	-4.48421E-007	0.00000E+000	3.12000E-002	-8.12605E-004	8	..........a	0	-327.74
	2716	5.434	2.72926E-002	-3.61344E-007	0.00000E+000	2.84000E-002	-8.62605E-004	8	..........a	0	-327.74
	2744	5.49	2.44751E-002	-6.10491E-007	0.00000E+000	2.56000E-002	-8.29272E-004	8	..........a	0	-327.74
	2772	5.546	2.16763E-002	-4.15090E-007	0.00000E+000	2.28000E-002	-8.62605E-004	8	..........a	0	-327.74
	2800	5.602	1.88778E-002	-5.89659E-007	0.00000E+000	2.00000E-002	-8.20939E-004	8	..........a	0	-327.74
	2828	5.658	1.60819E-002	-5.96742E-007	0.00000E+000	1.72000E-002	-8.20939E-004	8	..........a	0	-327.74
	2856	5.714	1.32835E-002	-3.17598E-007	0.00000E+000	1.44000E-002	-8.29272E-004	8	..........a	0	-327.74
	2884	5.77	1.04889E-002	-4.60503E-007	0.00000E+000	1.16000E-002	-8.54272E-004	8	..........a	0	-327.74
	2912	5.826	7.69797E-003	-3.90925E-007	0.00000E+000	8.79997E-003	-9.04272E-004	8	..........a	0	-327.74
	2940	5.882	4.90493E-003	-5.92159E-007	0.00000E+000	5.99995E-003	-8.37606E-004	8	..........a	0	-327.74
	2968	5.938	2.07747E-003	-7.84227E-007	0.00000E+000	3.19996E-003	-8.54272E-004	8	..........a	0	-327.74
	2996	5.994	-6.99401E-004	-2.91767E-007	0.00000E+000	3.99977E-004	-8.45939E-004	8	..........a	0	-327.74
	3024	6.05	-3.50715E-003	-5.45080E-007	0.00000E+000	-2.40004E-003	-8.45939E-004	8	..........a	0	-327.74
	3052	6.106	-6.29557E-003	-1.73443E-007	0.00000E+000	-5.20003E-003	-8.37606E-004	8	..........a	0	-327.74
	3080	6.162	-9.08948E-003	-6.94234E-007	0.00000E+000	-8.00005E-003	-8.12605E-004	8	..........a	0	-327.74
	3108	6.218	-1.18854E-002	-2.55936E-007	0.00000E+000	-1.08000E-002	-8.20939E-004	8	..........a	0	-327.74
	3136	6.274	-1.46824E-002	-5.44663E-007	0.00000E+000	-1.36000E-002	-8.45939E-004	8	..........a	0	-327.74
	3164	6.33	-1.74885E-002	-2.81767E-007	0.00000E+000	-1.64000E-002	-7.95939E-004	8	..........a	0	-327.74
	3192	6.386	-2.02836E-002	-4.10091E-007	0.00000E+000	-1.92000E-002	-8.29272E-004	8	..........a	0	-327.74
	3220	6.442	-2.30722E-002	-9.96987E-008	0.00000E+000	-2.20000E-002	-7.87605E-004	8	..........a	0	-327.74
	3248	6.498	-2.58712E-002	-6.52154E-007	0.00000E+000	-2.48000E-002	-8.79272E-004	8	..........a	0	-327.74
	3276	6.554	-2.86665E-002	-2.01774E-007	0.00000E+000	-2.76000E-002	-8.20939E-004	8	..........a	0	-327.74
	3304	6.61	-3.14749E-002	-7.78394E-007	0.00000E+000	-3.04000E-002	-8.95939E-004	8	..........a	0	-327.74
	3332	6.666	-3.42894E-002	-4.63836E-007	0.00000E+000	-3.32000E-002	-8.62605E-004	8	..........a	0	-327.74
	3360	6.722	-3.70661E-002	-4.79668E-007	0.00000E+000	-3.60000E-002	-8.54272E-004	8	..........a	0	-327.74
	3388	6.778	-3.98786E-002	-6.72986E-007	0.00000E+000	-3.88000E-002	-8.45939E-004	8	..........a	0	-327.74
	3416	6.834	-4.26699E-002	-6.48405E-007	0.00000E+000	-4.16000E-002	-8.45939E-004	8	..........a	0	-327.74
	3444	6.89	-4.54728E-002	-3.58845E-007	0.00000E+000	-4.44000E-002	-8.70939E-004	8	..........a	0	-327.74
	3472	6.946	-4.82828E-002	-1.07004E-006	0.00000E+000	-4.72000E-002	-8.20939E-004	8	..........a	0	-327.74
	3500	7.002	-5.10803E-002	-5.45496E-007	0.00000E+000	-5.00000E-002	-8.54272E-004	8	..........a	0	-327.74
	3528	7.058	-5.38861E-002	-3.45929E-007	0.00000E+000	-5.28000E-002	-8.79272E-004	8	..........a	0	-327.74
	3556	7.114	-5.66661E-002	-2.99683E-007	0.00000E+000	-5.56000E-002	-8.62605E-004	8	..........a	0	-327.74
	3584	7.17	-5.94703E-002	-3.84676E-007	0.00000E+000	-5.84000E-002	-8.12605E-004	8	..........a	0	-327.74
	3612	7.226	-6.22690E-002	-4.44254E-007	0.00000E+000	-6.12000E-002	-8.29272E-004	8	..........a	0	-327.74
	3640	7.282	-6.50644E-002	-5.15082E-007	0.00000E+000	-6.40000E-002	-8.70939E-004	8	..........a	0	-327.74
	3668	7.338	-6.78832E-002	-7.14233E-007	0.00000E+000	-6.68000E-002	-8.70939E-004	8	..........a	0	-327.74
	3696	7.394	-7.06628E-002	-8.88385E-007	0.00000E+000	-6.96000E-002	-8.62605E-004	8	..........a	0	-327.74
	3724	7.45	-7.34619E-002	-6.64237E-007	0.00000E+000	-7.24000E-002	-8.54272E-004	8	..........a	0	-327.74
	3752	7.506	-7.62753E-002	-9.65463E-007	0.00000E+000	-7.52000E-002	-8.29272E-004	8	..........a	0	-327.74
	3780	7.562	-7.90724E-002	-4.24256E-007	0.00000E+000	-7.80000E-002	-8.20939E-004	8	..........a	0	-327.74
	3808	7.618	-8.18657E-002	-6.03825E-007	0.00000E+000	-8.08000E-002	-7.95939E-004	8	..........a	0	-327.74
	3836	7.674	-8.46561E-002	-9.60880E-007	0.00000E+000	-8.36000E-002	-8.20939E-004	8	..........a	0	-327.74
	3864	7.73	-8.74561E-002	-8.74220E-007	0.00000E+000	-8.64000E-002	-8.29272E-004	8	..........a	0	-327.74
	3892	7.786	-9.02611E-002	-7.12566E-007	0.00000E+000	-8.92000E-002	-8.62605E-004	8	..........a	0	-327.74
	3920	7.842	-9.30549E-002	-9.00468E-007	0.00000E+000	-9.20000E-002	-8.62605E-004	8	..........a	0	-327.74
	3948	7.898	-9.58453E-002	-7.66312E-007	0.00000E+000	-9.48000E-002	-8.37606E-004	8	..........a	0	-327.74
	3976	7.954	-9.86544E-002	-1.09670E-006	0.00000E+000	-9.76000E-002	-8.70939E-004	8	..........a	0	-327.74
	4004	8.01	-1.01456E-001	-1.25669E-006	0.00000E+000	-1.00400E-001	-8.12605E-004	8	..........a	0	-327.74
	4032	8.066	-1.04239E-001	-8.33806E-007	0.00000E+000	-1.03200E-001	-8.29272E-004	8	..........a	0	-327.74
	4060	8.122	-1.07045E-001	-9.06717E-007	0.00000E+000	-1.06000E-001	-7.95939E-004	8	..........a	0	-327.74
	4088	8.178	-1.09843E-001	-9.48381E-007	0.00000E+000	-1.08800E-001	-8.37606E-004	8	..........a	0	-327.74
	4116	8.234	-1.12646E-001	-9.40881E-007	0.00000E+000	-1.11600E-001	-8.29272E-004	8	..........a	0	-327.74
	4144	8.29	-1.15459E-001	-9.75045E-007	0.00000E+000	-1.14400E-001	-8.37606E-004	8	..........a	0	-327.74
	4172	8.346	-1.18261E-001	-1.25752E-006	0.00000E+000	-1.17200E-001	-8.95939E-004	8	..........a	0	-327.74
	4200	8.402	-1.21047E-001	-1.15628E-006	0.00000E+000	-1.20000E-001	-8.29272E-004	8	..........a	0	-327.74
	4228	8.458	-1.23838E-001	-1.07545E-006	0.00000E+000	-1.22800E-001	-8.20939E-004	8	..........a	0	-327.74
	4256	8.514	-1.26622E-001	-9.92544E-007	0.00000E+000	-1.25600E-001	-8.62605E-004	8	..........a	0	-327.74
	4284	8.57	-1.29429E-001	-7.47980E-007	0.00000E+000	-1.28400E-001	-8.54272E-004	8	..........a	0	-327.74
	4312	8.626	-1.32232E-001	-1.42709E-006	0.00000E+000	-1.31200E-001	-8.20939E-004	8	..........a	0	-327.74
	4340	8.682	-1.35027E-001	-9.23383E-007	0.00000E+000	-1.34000E-001	-8.70939E-004	8	..........a	0	-327.74
	4368	8.738	-1.37840E-001	-1.12087E-006	0.00000E+000	-1.36800E-001	-8.45939E-004	8	..........a	0	-327.74
	4396	8.794	-1.40616E-001	-8.37973E-007	0.00000E+000	-1.39600E-001	-8.70939E-004	8	..........a	0	-327.74
	4424	8.85	-1.43433E-001	-1.18503E-006	0.00000E+000	-1.42400E-001	-7.95939E-004	8	..........a	0	-327.74
	4452	8.906	-1.46231E-001	-1.09754E-006	0.00000E+000	-1.45200E-001	-8.62605E-004	8	..........a	0	-327.74
	4480	8.962	-1.49024E-001	-1.38460E-006	0.00000E+000	-1.48000E-001	-8.29272E-004	8	..........a	0	-327.74
	4508	9.018	-1.51827E-001	-1.48334E-006	0.00000E+000	-1.50800E-001	-8.54272E-004	8	..........a	0	-327.74
	4536	9.074	-1.54615E-001	-1.11753E-006	0.00000E+000	-1.53600E-001	-8.20939E-004	8	..........a	0	-327.74
	4564	9.13	-1.57424E-001	-1.46084E-006	0.00000E+000	-1.56400E-001	-8.45939E-004	8	..........a	0	-327.74
	4592	9.186	-1.60221E-001	-1.33293E-006	0.00000E+000	-1.59200E-001	-8.95939E-004	8	..........a	0	-327.74
	4620	9.242	-1.63028E-001	-1.34127E-006	0.00000E+000	-1.62000E-001	-8.12605E-004	8	..........a	0	-327.74
	4648	9.298	-1.65821E-001	-1.71040E-006	0.00000E+000	-1.64800E-001	-8.45939E-004	8	..........a	0	-327.74
	4676	9.354	-1.68610E-001	-1.00838E-006	0.00000E+000	-1.67600E-001	-8.37606E-004	8	..........a	0	-327.74
	4704	9.41	-1.71423E-001	-1.04754E-006	0.00000E+000	-1.70400E-001	-8.45939E-004	8	..........a	0	-327.74
	4732	9.466	-1.74209E-001	-1.16128E-006	0.00000E+000	-1.73200E-001	-8.45939E-004	8	..........a	0	-327.74
	4760	9.522	-1.77012E-001	-1.60291E-006	0.00000E+000	-1.76000E-001	-8.29272E-004	8	..........a	0	-327.74
	4788	9.578	-1.79812E-001	-1.35460E-006	0.00000E+000	-1.78800E-001	-8.12605E-004	8	..........a	0	-327.74
	4816	9.634	-1.82610E-001	-1.41001E-006	0.00000E+000	-1.81600E-001	-8.20939E-004	8	..........a	0	-327.74
	4844	9.69	-1.85405E-001	-1.66249E-006	0.00000E+000	-1.84400E-001	-8.37606E-004	8	..........a	0	-327.74
	4872	9.746	-1.88193E-001	-1.51542E-006	0.00000E+000	-1.87200E-001	-7.95939E-004	8	..........a	0	-327.74
	4900	9.802	-1.90983E-001	-1.58416E-006	0.00000E+000	-1.90000E-001	-8.79272E-004	8	..........a	0	-327.74
	4928	9.858	-1.93805E-001	-1.74665E-006	0.00000E+000	-1.92800E-001	-8.12605E-004	8	..........a	0	-327.74
	4956	9.914	-1.96605E-001	-2.03913E-006	0.00000E+000	-1.95600E-001	-8.79272E-004	8	..........a	0	-327.74
	4984	9.97	-1.99393E-001	-1.56041E-006	0.00000E+000	-1.98400E-001	-7.95939E-004	8	..........a	0	-327.74
	5012	10.026	-2.02198E-001	-1.80998E-006	0.00000E+000	-2.01200E-001	-8.12605E-004	8	..........a	0	-327.74
	5040	10.082	-2.05006E-001	-1.49959E-006	0.00000E+000	-2.04000E-001	-8.70939E-004	8	..........a	0	-327.74
	5068	10.138	-2.07799E-001	-2.01371E-006	0.00000E+000	-2.06800E-001	-8.29272E-004	8	..........a	0	-327.74
	5096	10.194	-2.10605E-001	-1.88914E-006	0.00000E+000	-2.09600E-001	-8.62605E-004	8	..........a	0	-327.74
	5124	10.25	-2.13396E-001	-2.11620E-006	0.00000E+000	-2.12400E-001	-8.29272E-004	8	..........a	0	-327.74
	5152	10.306	-2.16188E-001	-2.07537E-006	0.00000E+000	-2.15200E-001	-8.70939E-004	8	..........a	0	-327.74
	5180	10.362	-2.19009E-001	-2.29119E-006	0.00000E+000	-2.18000E-001	-8.04272E-004	8	..........a	0	-327.74
	5208	10.418	-2.21787E-001	-2.23661E-006	0.00000E+000	-2.20800E-001	-8.54272E-004	8	..........a	0	-327.74
	5236	10.474	-2.24598E-001	-2.38368E-006	0.00000E+000	-2.23600E-001	-8.04272E-004	8	..........a	0	-327.74
	5264	10.53	-2.27394E-001	-2.17037E-006	0.00000E+000	-2.26400E-001	-8.54272E-004	8	..........a	0	-327.74
	5292	10.586	-2.30189E-001	-2.64199E-006	0.00000E+000	-2.29200E-001	-8.62605E-004	8	..........a	0	-327.74
	5320	10.642	-2.32989E-001	-2.44534E-006	0.00000E+000	-2.32000E-001	-8.37606E-004	8	..........a	0	-327.74
	5348	10.698	-2.35772E-001	-2.57992E-006	0.00000E+000	-2.34800E-001	-8.54272E-004	8	..........a	0	-327.74
	5376	10.754	-2.38590E-001	-2.59242E-006	0.00000E+000	-2.37600E-001	-8.45939E-004	8	..........a	0	-327.74
	5404	10.81	-2.41396E-001	-2.75032E-006	0.00000E+000	-2.40400E-001	-7.95939E-004	8	..........a	0	-327.74
	5432	10.866	-2.44183E-001	-2.84489E-006	0.00000E+000	-2.43200E-001	-8.20939E-004	8	..........a	0	-327.74
	5460	10.922	-2.46984E-001	-3.36027E-006	0.00000E+000	-2.46000E-001	-8.62605E-004	8	..........a	0	-327.74
	5488	10.978	-2.49777E-001	-2.88531E-006	0.00000E+000	-2.48800E-001	-8.87605E-004	8	..........a	0	-327.74
	5516	11.034	-2.52566E-001	-3.10654E-006	0.00000E+000	-2.51600E-001	-8.70939E-004	8	..........a	0	-327.74
	5544	11.09	-2.55385E-001	-3.07363E-006	0.00000E+000	-2.54400E-001	-8.70939E-004	8	..........a	0	-327.74
	5572	11.146	-2.58176E-001	-2.96780E-006	0.00000E+000	-2.57200E-001	-8.12605E-004	8	..........a	0	-327.74
	5600	11.202	-2.60991E-001	-3.14487E-006	0.00000E+000	-2.60000E-001	-8.12605E-004	8	..........a	0	-327.74
	5628	11.258	-2.63775E-001	-3.03571E-006	0.00000E+000	-2.62800E-001	-9.04272E-004	8	..........a	0	-327.74
	5656	11.314	-2.66619E-001	-3.32069E-006	0.00000E+000	-2.65600E-001	-8.79272E-004	8	......s...a	0	-327.74
	5684	11.37	-2.69328E-001	-3.02071E-006	0.00000E+000	-2.68400E-001	-8.29272E-004	8	..........a	0	-327.74
	5712	11.426	-2.72157E-001	-3.50234E-006	0.00000E+000	-2.71200E-001	-8.37606E-004	8	..........a	0	-327.74
	5740	11.482	-2.74894E-001	-3.36027E-006	0.00000E+000	-2.74000E-001	-8.12605E-004	8	..........a	0	-327.74
	5768	11.538	-2.77728E-001	-3.25653E-006	0.00000E+000	-2.76800E-001	-8.45939E-004	8	..........a	0	-327.74
	5796	11.594	-2.80490E-001	-3.29694E-006	0.00000E+000	-2.79600E-001	-8.62605E-004	8	..........a	0	-327.74
	5824	11.65	-2.83311E-001	-3.62275E-006	0.00000E+000	-2.82400E-001	-8.45939E-004	8	..........a	0	-327.74
	5852	11.706	-2.86144E-001	-3.75149E-006	0.00000E+000	-2.85200E-001	-8.62605E-004	8	..........a	0	-327.74
	5880	11.762	-2.88919E-001	-3.56650E-006	0.00000E+000	-2.88000E-001	-8.37606E-004	8	..........a	0	-327.74
	5908	11.818	-2.91694E-001	-3.77315E-006	0.00000E+000	-2.90800E-001	-8.62605E-004	8	..........a	0	-327.74
	5936	11.874	-2.94478E-001	-3.43526E-006	0.00000E+000	-2.93600E-001	-8.54272E-004	8	..........a	0	-327.74
	5964	11.93	-2.97286E-001	-3.85315E-006	0.00000E+000	-2.96400E-001	-8.20939E-004	8	..........a	0	-327.74
	5992	11.986	-3.00090E-001	-3.91064E-006	0.00000E+000	-2.99200E-001	-8.70939E-004	8	..........a	0	-327.74
	6020	12.042	-3.02836E-001	-3.76149E-006	0.00000E+000	-3.02000E-001	-9.04272E-004	8	..........a	0	-327.74
	6048	12.098	-3.05732E-001	-3.95189E-006	0.00000E+000	-3.04800E-001	-8.12605E-004	8	..........a	0	-327.74
	6076	12.154	-3.08486E-001	-4.61017E-006	0.00000E+000	-3.07600E-001	-8.20939E-004	8	..........a	0	-327.74
	6104	12.21	-3.11265E-001	-4.33186E-006	0.00000E+000	-3.10400E-001	-8.45939E-004	8	..........a	0	-327.74
	6132	12.266	-3.14057E-001	-4.54018E-006	0.00000E+000	-3.13200E-001	-8.54272E-004	8	..........a	0	-327.74
	6160	12.322	-3.16911E-001	-4.41602E-006	0.00000E+000	-3.16000E-001	-8.70939E-004	8	..........a	0	-327.74
	6188	12.378	-3.19673E-001	-4.27353E-006	0.00000E+000	-3.18800E-001	-8.62605E-004	8	..........a	0	-327.74
	6216	12.434	-3.22494E-001	-4.67808E-006	0.00000E+000	-3.21600E-001	-8.29272E-004	8	..........a	0	-327.74
	6244	12.49	-3.25278E-001	-4.49976E-006	0.00000E+000	-3.24400E-001	-8.95939E-004	8	..........a	0	-327.74
	6272	12.546	-3.28061E-001	-4.92889E-006	0.00000E+000	-3.27200E-001	-8.20939E-004	8	..........a	0	-327.74
	6300	12.602	-3.30898E-001	-4.97639E-006	0.00000E+000	-3.30000E-001	-8.04272E-004	8	..........a	0	-327.74
	6328	12.658	-3.33719E-001	-5.38511E-006	0.00000E+000	-3.32800E-001	-8.20939E-004	8	..........a	0	-327.74
	6356	12.714	-3.36503E-001	-5.44927E-006	0.00000E+000	-3.35600E-001	-8.20939E-004	8	..........a	0	-327.74
	6384	12.77	-3.39257E-001	-5.65675E-006	0.00000E+000	-3.38400E-001	-8.54272E-004	8	..........a	0	-327.74
	6412	12.826	-3.42086E-001	-5.59301E-006	0.00000E+000	-3.41200E-001	-8.04272E-004	8	..........a	0	-327.74
	6440	12.882	-3.44928E-001	-6.13421E-006	0.00000E+000	-3.44000E-001	-8.29272E-004	8	..........a	0	-327.74
	6468	12.938	-3.47661E-001	-5.91631E-006	0.00000E+000	-3.46800E-001	-8.04272E-004	8	..........a	0	-327.74
	6496	12.994	-3.50436E-001	-6.55751E-006	0.00000E+000	-3.49600E-001	-8.45939E-004	8	..........a	0	-327.74
	6524	13.05	-3.53294E-001	-6.68542E-006	0.00000E+000	-3.52400E-001	-8.04272E-004	8	..........a	0	-327.74
	6552	13.106	-3.56053E-001	-7.58076E-006	0.00000E+000	-3.55200E-001	-8.54272E-004	8	..........a	0	-327.74
	6580	13.162	-3.58848E-001	-7.14163E-006	0.00000E+000	-3.58000E-001	-8.29272E-004	8	..........a	0	-327.74
	6608	13.218	-3.61657E-001	-7.80616E-006	0.00000E+000	-3.60800E-001	-7.95939E-004	8	..........a	0	-327.74
	6636	13.274	-3.64428E-001	-8.13280E-006	0.00000E+000	-3.63600E-001	-8.45939E-004	8	..........a	0	-327.74
	6664	13.33	-3.67278E-001	-9.10148E-006	0.00000E+000	-3.66400E-001	-8.37606E-004	8	..........a	0	-327.74
	6692	13.386	-3.70082E-001	-9.31063E-006	0.00000E+000	-3.69200E-001	-8.29272E-004	8	..........a	0	-327.74
	6720	13.442	-3.72836E-001	-9.94974E-006	0.00000E+000	-3.72000E-001	-8.29272E-004	8	..........a	0	-327.74
	6748	13.498	-3.75678E-001	-1.02101E-005	0.00000E+000	-3.74800E-001	-8.04272E-004	8	..........a	0	-327.74
	6776	13.554	-3.78436E-001	-1.19587E-005	0.00000E+000	-3.77600E-001	-8.45939E-004	8	..........a	0	-327.74
	6804	13.61	-3.81248E-001	-1.22658E-005	0.00000E+000	-3.80400E-001	-8.37606E-004	8	..........a	0	-327.74
	6832	13.666	-3.84061E-001	-1.38732E-005	0.00000E+000	-3.83200E-001	-8.29272E-004	8	..........a	0	-327.74
	6860	13.722	-3.86819E-001	-1.39977E-005	0.00000E+000	-3.86000E-001	-8.45939E-004	8	..........a	0	-327.74
	6888	13.778	-3.89653E-001	-1.52356E-005	0.00000E+000	-3.88800E-001	-8.04272E-004	8	..........a	0	-327.74
	6916	13.834	-3.92448E-001	-1.60697E-005	0.00000E+000	-3.91600E-001	-7.95939E-004	8	..........a	0	-327.74
	6944	13.89	-3.95248E-001	-1.78441E-005	0.00000E+000	-3.94400E-001	-8.29272E-004	8	..........a	0	-327.74
	6972	13.946	-3.98057E-001	-1.88261E-005	0.00000E+000	-3.97200E-001	-8.54272E-004	8	..........a	0	-327.74
	7000	14.002	-4.00811E-001	-2.07651E-005	0.00000E+000	-4.00000E-001	-8.29272E-004	8	..........a	0	-327.74
	7028	14.058	-4.03636E-001	-2.22717E-005	0.00000E+000	-4.02800E-001	-9.04272E-004	8	..........a	0	-327.74
	7056	14.114	-4.06436E-001	-2.48435E-005	0.00000E+000	-4.05600E-001	-8.20939E-004	8	..........a	0	-327.74
	7084	14.17	-4.09232E-001	-2.55989E-005	0.00000E+000	-4.08400E-001	-8.62605E-004	8	..........a	0	-327.74
	7112	14.226	-4.11994E-001	-2.83520E-005	0.00000E+000	-4.11200E-001	-8.37606E-004	8	..........a	0	-327.74
	7140	14.282	-4.14819E-001	-3.04348E-005	0.00000E+000	-4.14000E-001	-8.29272E-004	8	..........a	0	-327.74
	7168	14.338	-4.17615E-001	-3.31770E-005	0.00000E+000	-4.16800E-001	-8.37606E-004	8	..........a	0	-327.74
	7196	14.394	-4.20428E-001	-3.53914E-005	0.00000E+000	-4.19600E-001	-8.62605E-004	8	..........a	0	-327.74
	7224	14.45	-4.23232E-001	-3.82812E-005	0.00000E+000	-4.22400E-001	-8.20939E-004	8	..........a	0	-327.74
	7252	14.506	-4.26015E-001	-4.09206E-005	0.00000E+000	-4.25200E-001	-7.95939E-004	8	..........a	0	-327.74
	7280	14.562	-4.28811E-001	-4.43561E-005	0.00000E+000	-4.28000E-001	-8.45939E-004	8	..........a	0	-327.74
	7308	14.618	-4.31619E-001	-4.74480E-005	0.00000E+000	-4.30800E-001	-8.54272E-004	8	..........a	0	-327.74
	7336	14.674	-4.34419E-001	-5.15206E-005	0.00000E+000	-4.33600E-001	-8.04272E-004	8	..........a	0	-327.74
	7364	14.73	-4.37173E-001	-5.49711E-005	0.00000E+000	-4.36400E-001	-8.20939E-004	8	..........a	0	-327.74
	7392	14.786	-4.39961E-001	-5.90400E-005	0.00000E+000	-4.39200E-001	-8.37606E-004	8	..........a	0	-327.74
	7420	14.842	-4.42790E-001	-6.30788E-005	0.00000E+000	-4.42000E-001	-8.20939E-004	8	..........a	0	-327.74
	7448	14.898	-4.45557E-001	-6.76814E-005	0.00000E+000	-4.44800E-001	-8.45939E-004	8	..........a	0	-327.74
	7476	14.954	-4.48403E-001	-7.21402E-005	0.00000E+000	-4.47600E-001	-8.29272E-004	8	..........a	0	-327.74
	7504	15.01	-4.51161E-001	-7.69948E-005	0.00000E+000	-4.50400E-001	-8.45939E-004	8	..........a	0	-327.74
	7532	15.066	-4.53973E-001	-8.20923E-005	0.00000E+000	-4.53200E-001	-8.87605E-004	8	..........a	0	-327.74
	7560	15.122	-4.56732E-001	-8.71915E-005	0.00000E+000	-4.56000E-001	-7.79272E-004	8	..........a	0	-327.74
	7588	15.178	-4.59557E-001	-9.27668E-005	0.00000E+000	-4.58800E-001	-8.29272E-004	8	..........a	0	-327.74
	7616	15.234	-4.62319E-001	-9.91980E-005	0.00000E+000	-4.61600E-001	-8.12605E-004	8	..........a	0	-327.74
	7644	15.29	-4.65136E-001	-1.03889E-004	0.00000E+000	-4.64400E-001	-8.79272E-004	8	..........a	0	-327.74
	7672	15.346	-4.67886E-001	-1.10278E-004	0.00000E+000	-4.67200E-001	-8.04272E-004	8	..........a	0	-327.74
	7700	15.402	-4.70744E-001	-1.16717E-004	0.00000E+000	-4.70000E-001	-8.12605E-004	8	..........a	0	-327.74
	7728	15.458	-4.73528E-001	-1.23253E-004	0.00000E+000	-4.72800E-001	-8.79272E-004	8	..........a	0	-327.74
	7756	15.514	-4.76298E-001	-1.30180E-004	0.00000E+000	-4.75600E-001	-8.45939E-004	8	..........a	0	-327.74
	7784	15.57	-4.79061E-001	-1.36800E-004	0.00000E+000	-4.78400E-001	-8.70939E-004	8	..........a	0	-327.74
	7812	15.626	-4.81898E-001	-1.44573E-004	0.00000E+000	-4.81200E-001	-8.20939E-004	8	..........a	0	-327.74
	7840	15.682	-4.84723E-001	-1.51683E-004	0.00000E+000	-4.84000E-001	-8.54272E-004	8	..........a	0	-327.74
	7868	15.738	-4.87465E-001	-1.60439E-004	0.00000E+000	-4.86800E-001	-8.62605E-004	8	..........a	0	-327.74
	7896	15.794	-4.90186E-001	-1.68398E-004	0.00000E+000	-4.89600E-001	-8.95939E-004	8	..........a	0	-327.74
	7924	15.85	-4.93057E-001	-1.77068E-004	0.00000E+000	-4.92400E-001	-8.54272E-004	8	..........a	0	-327.74
	7952	15.906	-4.95907E-001	-1.85874E-004	0.00000E+000	-4.95200E-001	-8.12605E-004	8	..........a	0	-327.74
	7980	15.962	-4.98657E-001	-1.95536E-004	0.00000E+000	-4.98000E-001	-8.54272E-004	8	..........a	0	-327.74
	8008	16.018	-5.01390E-001	-2.04983E-004	0.00000E+000	-5.00800E-001	-8.20939E-004	8	..........a	0	-327.74
	8036	16.074	-5.04161E-001	-2.15629E-004	0.00000E+000	-5.03600E-001	-8.29272E-004	8	..........a	0	-327.74
	8064	16.13	-5.06973E-001	-2.26038E-004	0.00000E+000	-5.06400E-001	-8.62605E-004	8	..........a	0	-327.74
	8092	16.186	-5.09807E-001	-2.38006E-004	0.00000E+000	-5.09200E-001	-8.45939E-004	8	..........a	0	-327.74
	8120	16.242	-5.12473E-001	-2.48391E-004	0.00000E+000	-5.12000E-001	-8.62605E-004	8	..........a	0	-327.74
	8148	16.298	-5.15336E-001	-2.61339E-004	0.00000E+000	-5.14800E-001	-8.70939E-004	8	..........a	0	-327.74
	8176	16.354	-5.18417E-001	-2.74570E-004	0.00000E+000	-5.17600E-001	-7.70939E-004	9	..........a	0	-327.74
	8204	16.41	-5.21196E-001	-2.87369E-004	0.00000E+000	-5.20400E-001	-8.45939E-004	9	..........a	0	-327.74
	8232	16.466	-5.23929E-001	-3.00553E-004	0.00000E+000	-5.23200E-001	-8.37606E-004	9	..........a	0	-327.74
	8260	16.522	-5.26762E-001	-3.15346E-004	0.00000E+000	-5.26000E-001	-8.54272E-004	9	..........a	0	-327.74
	8288	16.578	-5.29533E-001	-3.27100E-004	0.00000E+000	-5.28800E-001	-8.29272E-004	9	..........a	0	-327.74
	8316	16.634	-5.32337E-001	-3.43410E-004	0.00000E+000	-5.31600E-001	-8.29272E-004	9	..........a	0	-327.74
	8344	16.69	-5.35129E-001	-3.57772E-004	0.00000E+000	-5.34400E-001	-8.37606E-004	9	..........a	0	-327.74
	8372	16.746	-5.37933E-001	-3.73354E-004	0.00000E+000	-5.37200E-001	-7.87605E-004	9	..........a	0	-327.74
	8400	16.802	-5.40758E-001	-3.87996E-004	0.00000E+000	-5.40000E-001	-7.87605E-004	9	..........a	0	-327.74
	8428	16.858	-5.43492E-001	-4.03466E-004	0.00000E+000	-5.42800E-001	-8.29272E-004	9	..........a	0	-327.74
	8456	16.914	-5.46337E-001	-4.17928E-004	0.00000E+000	-5.45600E-001	-7.79272E-004	9	..........a	0	-327.74
	8484	16.97	-5.49162E-001	-4.33799E-004	0.00000E+000	-5.48400E-001	-8.79272E-004	9	..........a	0	-327.74
	8512	17.026	-5.51933E-001	-4.47192E-004	0.00000E+000	-5.51200E-001	-8.54272E-004	9	..........a	0	-327.74
	8540	17.082	-5.54742E-001	-4.62039E-004	0.00000E+000	-5.54000E-001	-8.79272E-004	9	..........a	0	-327.74
	8568	17.138	-5.57521E-001	-4.73484E-004	0.00000E+000	-5.56800E-001	-8.54272E-004	9	..........a	0	-327.74
	8596	17.194	-5.60317E-001	-4.87520E-004	0.00000E+000	-5.59600E-001	-8.70939E-004	9	..........a	0	-327.74
	8624	17.25	-5.63125E-001	-4.96571E-004	0.00000E+000	-5.62400E-001	-8.37606E-004	9	..........a	0	-327.74
	8652	17.306	-5.65896E-001	-5.09391E-004	0.00000E+000	-5.65200E-001	-8.37606E-004	9	..........a	0	-327.74
	8680	17.362	-5.68662E-001	-5.19324E-004	0.00000E+000	-5.68000E-001	-8.45939E-004	9	..........a	0	-327.74
	8708	17.418	-5.71487E-001	-5.29445E-004	0.00000E+000	-5.70800E-001	-8.62605E-004	9	..........a	0	-327.74
	8736	17.474	-5.74329E-001	-5.39219E-004	0.00000E+000	-5.73600E-001	-8.79272E-004	9	..........a	0	-327.74
	8764	17.53	-5.77108E-001	-5.50928E-004	0.00000E+000	-5.76400E-001	-8.37606E-004	9	..........a	0	-327.74
	8792	17.586	-5.79871E-001	-5.58951E-004	0.00000E+000	-5.79200E-001	-9.04272E-004	9	..........a	0	-327.74
	8820	17.642	-5.82721E-001	-5.66176E-004	0.00000E+000	-5.82000E-001	-8.62605E-004	9	..........a	0	-327.74
	8848	17.698	-5.85521E-001	-5.71788E-004	0.00000E+000	-5.84800E-001	-7.95939E-004	9	..........a	0	-327.74
	8876	17.754	-5.88312E-001	-5.77813E-004	0.00000E+000	-5.87600E-001	-8.70939E-004	9	..........a	0	-327.74
	8904	17.81	-5.91079E-001	-5.81089E-004	0.00000E+000	-5.90400E-001	-8.54272E-004	9	..........a	0	-327.74
	8932	17.866	-5.93904E-001	-5.86049E-004	0.00000E+000	-5.93200E-001	-8.45939E-004	9	..........a	0	-327.74
	8960	17.922	-5.96717E-001	-5.90550E-004	0.00000E+000	-5.96000E-001	-8.70939E-004	9	..........a	0	-327.74
	8988	17.978	-5.99533E-001	-5.95021E-004	0.00000E+000	-5.98800E-001	-8.29272E-004	9	..........a	0	-327.74
	9016	18.034	-6.02283E-001	-5.99008E-004	0.00000E+000	-6.01600E-001	-8.62605E-004	9	..........a	0	-327.74
	9044	18.09	-6.05125E-001	-6.03383E-004	0.00000E+000	-6.04400E-001	-8.37606E-004	9	..........a	0	-327.74
	9072	18.146	-6.07925E-001	-6.07202E-004	0.00000E+000	-6.07200E-001	-8.54272E-004	9	..........a	0	-327.74
	9100	18.202	-6.10675E-001	-6.08932E-004	0.00000E+000	-6.10000E-001	-8.54272E-004	9	..........a	0	-327.74
	9128	18.258	-6.13487E-001	-6.09993E-004	0.00000E+000	-6.12800E-001	-8.20939E-004	9	..........a	0	-327.74
	9156	18.314	-6.16258E-001	-6.11326E-004	0.00000E+000	-6.15600E-001	-8.37606E-004	9	..........a	0	-327.74
	9184	18.37	-6.19117E-001	-6.14097E-004	0.00000E+000	-6.18400E-001	-8.87605E-004	9	..........a	0	-327.74
	9212	18.426	-6.21837E-001	-6.16483E-004	0.00000E+000	-6.21200E-001	-8.04272E-004	9	..........a	0	-327.74
	9240	18.482	-6.24608E-001	-6.17135E-004	0.00000E+000	-6.24000E-001	-9.04272E-004	9	..........a	0	-327.74
	9268	18.538	-6.27492E-001	-6.19475E-004	0.00000E+000	-6.26800E-001	-8.37606E-004	9	..........a	0	-327.74
	9296	18.594	-6.30271E-001	-6.20891E-004	0.00000E+000	-6.29600E-001	-8.45939E-004	9	..........a	0	-327.74
	9324	18.65	-6.33079E-001	-6.22759E-004	0.00000E+000	-6.32400E-001	-8.87605E-004	9	..........a	0	-327.74
	9352	18.706	-6.35833E-001	-6.23056E-004	0.00000E+000	-6.35200E-001	-8.62605E-004	9	..........a	0	-327.74
	9380	18.762	-6.38712E-001	-6.24602E-004	0.00000E+000	-6.38000E-001	-8.70939E-004	9	..........a	0	-327.74
	9408	18.818	-6.41512E-001	-6.24084E-004	0.00000E+000	-6.40800E-001	-7.79272E-004	9	..........a	0	-327.74
	9436	18.874	-6.44300E-001	-6.26044E-004	0.00000E+000	-6.43600E-001	-8.20939E-004	9	..........a	0	-327.74
	9464	18.93	-6.47054E-001	-6.28868E-004	0.00000E+000	-6.46400E-001	-8.29272E-004	9	..........a	0	-327.74
	9492	18.986	-6.49858E-001	-6.28421E-004	0.00000E+000	-6.49200E-001	-8.45939E-004	9	..........a	0	-327.74
	9520	19.042	-6.52671E-001	-6.28438E-004	0.00000E+000	-6.52000E-001	-7.87605E-004	9	..........a	0	-327.74
	9548	19.098	-6.55467E-001	-6.28488E-004	0.00000E+000	-6.54800E-001	-8.37606E-004	9	..........a	0	-327.74
	9576	19.154	-6.58221E-001	-6.30548E-004	0.00000E+000	-6.57600E-001	-8.04272E-004	9	..........a	0	-327.74
	9604	19.21	-6.61071E-001	-6.32734E-004	0.00000E+000	-6.60400E-001	-8.45939E-004	9	..........a	0	-327.74
	9632	19.266	-6.63904E-001	-6.31422E-004	0.00000E+000	-6.63200E-001	-8.37606E-004	9	..........a	0	-327.74
	9660	19.322	-6.66621E-001	-6.30557E-004	0.00000E+000	-6.66000E-001	-8.95939E-004	9	..........a	0	-327.74
	9688	19.378	-6.69387E-001	-6.31037E-004	0.00000E+000	-6.68800E-001	-8.37606E-004	9	..........a	0	-327.74
	9716	19.434	-6.72221E-001	-6.33737E-004	0.00000E+000	-6.71600E-001	-8.12605E-004	9	..........a	0	-327.74
	9744	19.49	-6.75108E-001	-6.33716E-004	0.00000E+000	-6.74400E-001	-8.37606E-004	9	..........a	0	-327.74
	9772	19.546	-6.77821E-001	-6.34940E-004	0.00000E+000	-6.77200E-001	-7.95939E-004	9	..........a	0	-327.74
	9800	19.602	-6.80617E-001	-6.36745E-004	0.00000E+000	-6.80000E-001	-8.37606E-004	9	..........a	0	-327.74
	9828	19.658	-6.83437E-001	-6.36553E-004	0.00000E+000	-6.82800E-001	-8.20939E-004	9	..........a	0	-327.74
	9856	19.714	-6.86262E-001	-6.35692E-004	0.00000E+000	-6.85600E-001	-8.62605E-004	9	..........a	0	-327.74
	9884	19.77	-6.89046E-001	-6.35421E-004	0.00000E+000	-6.88400E-001	-8.37606E-004	9	..........a	0	-327.74
	9912	19.826	-6.91846E-001	-6.35454E-004	0.00000E+000	-6.91200E-001	-8.62605E-004	9	..........a	0	-327.74
	9940	19.882	-6.94633E-001	-6.33954E-004	0.00000E+000	-6.94000E-001	-8.37606E-004	9	..........a	0	-327.74
	9968	19.938	-6.97504E-001	-6.35546E-004	0.00000E+000	-6.96800E-001	-8.54272E-004	9	..........a	0	-327.74
	9996	19.994	-7.00262E-001	-6.36077E-004	0.00000E+000	-6.99600E-001	-8.62605E-004	9	..........a	0	-327.74
	10024	20.05	-7.02950E-001	-6.35738E-004	0.00000E+000	-7.02400E-001	-8.54272E-004	9	..........a	0	-327.74
	10052	20.106	-7.05825E-001	-6.36127E-004	0.00000E+000	-7.05200E-001	-8.37606E-004	9	..........a	0	-327.74
	10080	20.162	-7.08675E-001	-6.36474E-004	0.00000E+000	-7.08000E-001	-8.45939E-004	9	..........a	0	-327.74
	10108	20.218	-7.11479E-001	-6.36236E-004	0.00000E+000	-7.10800E-001	-8.12605E-004	9	..........a	0	-327.74
	10136	20.274	-7.14225E-001	-6.36770E-004	0.00000E+000	-7.13600E-001	-8.04272E-004	9	..........a	0	-327.74
	10164	20.33	-7.17062E-001	-6.35542E-004	0.00000E+000	-7.16400E-001	-8.45939E-004	9	..........a	0	-327.74
	10192	20.386	-7.19829E-001	-6.36449E-004	0.00000E+000	-7.19200E-001	-8.20939E-004	9	..........a	0	-327.74
	10220	20.442	-7.22658E-001	-6.35345E-004	0.00000E+000	-7.22000E-001	-8.95939E-004	9	..........a	0	-327.74
	10248	20.498	-7.25362E-001	-6.33645E-004	0.00000E+000	-7.24800E-001	-8.12605E-004	9	..........a	0	-327.74
	10276	20.554	-7.28217E-001	-6.36332E-004	0.00000E+000	-7.27600E-001	-8.37606E-004	9	..........a	0	-327.74
	10304	20.61	-7.31067E-001	-6.38174E-004	0.00000E+000	-7.30400E-001	-8.37606E-004	9	..........a	0	-327.74
	10332	20.666	-7.33858E-001	-6.39177E-004	0.00000E+000	-7.33200E-001	-8.54272E-004	9	..........a	0	-327.74
	10360	20.722	-7.36612E-001	-6.39909E-004	0.00000E+000	-7.36000E-001	-8.62605E-004	9	..........a	0	-327.74
	10388	20.778	-7.39450E-001	-6.37761E-004	0.00000E+000	-7.38800E-001	-8.70939E-004	9	..........a	0	-327.74
	10416	20.834	-7.42237E-001	-6.37380E-004	0.00000E+000	-7.41600E-001	-8.45939E-004	9	..........a	0	-327.74
	10444	20.89	-7.45079E-001	-6.37435E-004	0.00000E+000	-7.44400E-001	-8.62605E-004	9	..........a	0	-327.74
	10472	20.946	-7.47754E-001	-6.38592E-004	0.00000E+000	-7.47200E-001	-8.37606E-004	9	..........a	0	-327.74
	10500	21.002	-7.50629E-001	-6.39971E-004	0.00000E+000	-7.50000E-001	-8.70939E-004	9	..........a	0	-327.74
	10528	21.058	-7.53508E-001	-6.40489E-004	0.00000E+000	-7.52800E-001	-8.20939E-004	9	..........a	0	-327.74
	10556	21.114	-7.56250E-001	-6.40343E-004	0.00000E+000	-7.55600E-001	-8.70939E-004	9	..........a	0	-327.74
	10584	21.17	-7.59008E-001	-6.40519E-004	0.00000E+000	-7.58400E-001	-8.29272E-004	9	..........a	0	-327.74
	10612	21.226	-7.61837E-001	-6.39683E-004	0.00000E+000	-7.61200E-001	-8.70939E-004	9	..........a	0	-327.74
	10640	21.282	-7.64679E-001	-6.40072E-004	0.00000E+000	-7.64000E-001	-8.37606E-004	9	..........a	0	-327.74
	10668	21.338	-7.67454E-001	-6.38362E-004	0.00000E+000	-7.66800E-001	-8.20939E-004	9	..........a	0	-327.74
	10696	21.394	-7.70142E-001	-6.37222E-004	0.00000E+000	-7.69600E-001	-8.20939E-004	9	..........a	0	-327.74
	10724	21.45	-7.73042E-001	-6.39746E-004	0.00000E+000	-7.72400E-001	-8.29272E-004	9	..........a	0	-327.74
	10752	21.506	-7.75900E-001	-6.39645E-004	0.00000E+000	-7.75200E-001	-8.70939E-004	9	..........a	0	-327.74
	10780	21.562	-7.78625E-001	-6.37698E-004	0.00000E+000	-7.78000E-001	-8.62605E-004	9	..........a	0	-327.74
	10808	21.618	-7.81375E-001	-6.37130E-004	0.00000E+000	-7.80800E-001	-8.54272E-004	9	..........a	0	-327.74
	10836	21.674	-7.84212E-001	-6.37435E-004	0.00000E+000	-7.83600E-001	-8.62605E-004	9	..........a	0	-327.74
	10864	21.73	-7.87037E-001	-6.38810E-004	0.00000E+000	-7.86400E-001	-8.87605E-004	9	..........a	0	-327.74
	10892	21.786	-7.89825E-001	-6.40594E-004	0.00000E+000	-7.89200E-001	-8.37606E-004	9	..........a	0	-327.74
	10920	21.842	-7.92571E-001	-6.38918E-004	0.00000E+000	-7.92000E-001	-8.95939E-004	9	..........a	0	-327.74
	10948	21.898	-7.95417E-001	-6.38492E-004	0.00000E+000	-7.94800E-001	-8.37606E-004	9	..........a	0	-327.74
	10976	21.954	-7.98267E-001	-6.39675E-004	0.00000E+000	-7.97600E-001	-8.45939E-004	9	..........a	0	-327.74
	11004	22.01	-8.01004E-001	-6.36733E-004	0.00000E+000	-8.00400E-001	-8.62605E-004	9	..........a	0	-327.74
	11032	22.066	-8.03754E-001	-6.38513E-004	0.00000E+000	-8.03200E-001	-8.04272E-004	9	..........a	0	-327.74
	11060	22.122	-8.06583E-001	-6.41814E-004	0.00000E+000	-8.06000E-001	-8.45939E-004	9	..........a	0	-327.74
	11088	22.178	-8.09442E-001	-6.41593E-004	0.00000E+000	-8.08800E-001	-8.45939E-004	9	..........a	0	-327.74
	11116	22.234	-8.12229E-001	-6.41049E-004	0.00000E+000	-8.11600E-001	-8.37606E-004	9	..........a	0	-327.74
	11144	22.29	-8.14950E-001	-6.40427E-004	0.00000E+000	-8.14400E-001	-8.79272E-004	9	..........a	0	-327.74
	11172	22.346	-8.17842E-001	-6.40439E-004	0.00000E+000	-8.17200E-001	-8.54272E-004	9	..........a	0	-327.74
	11200	22.402	-8.20562E-001	-6.40949E-004	0.00000E+000	-8.20000E-001	-7.95939E-004	9	..........a	0	-327.74
	11228	22.458	-8.23342E-001	-6.40247E-004	0.00000E+000	-8.22800E-001	-8.70939E-004	9	..........a	0	-327.74
	11256	22.514	-8.26075E-001	-6.40477E-004	0.00000E+000	-8.25600E-001	-8.70939E-004	9	..........a	0	-327.74
	11284	22.57	-8.28946E-001	-6.39812E-004	0.00000E+000	-8.28400E-001	-8.87605E-004	9	..........a	0	-327.74
	11312	22.626	-8.31712E-001	-6.40021E-004	0.00000E+000	-8.31200E-001	-8.45939E-004	9	..........a	0	-327.74
	11340	22.682	-8.34562E-001	-6.39904E-004	0.00000E+000	-8.34000E-001	-8.79272E-004	9	..........a	0	-327.74
	11368	22.738	-8.37317E-001	-6.39169E-004	0.00000E+000	-8.36800E-001	-8.62605E-004	9	..........a	0	-327.74
	11396	22.794	-8.40129E-001	-6.39365E-004	0.00000E+000	-8.39600E-001	-8.20939E-004	9	..........a	0	-327.74
	11424	22.85	-8.42971E-001	-6.37485E-004	0.00000E+000	-8.42400E-001	-8.54272E-004	9	..........a	0	-327.74
	11452	22.906	-8.45721E-001	-6.39324E-004	0.00000E+000	-8.45200E-001	-8.04272E-004	9	..........a	0	-327.74
	11480	22.962	-8.48492E-001	-6.40694E-004	0.00000E+000	-8.48000E-001	-8.37606E-004	9	..........a	0	-327.74
	11508	23.018	-8.51396E-001	-6.40088E-004	0.00000E+000	-8.50800E-001	-8.20939E-004	9	..........a	0	-327.74
	11536	23.074	-8.54179E-001	-6.38216E-004	0.00000E+000	-8.53600E-001	-8.37606E-004	9	..........a	0	-327.74
	11564	23.13	-8.56950E-001	-6.39240E-004	0.00000E+000	-8.56400E-001	-8.95939E-004	9	..........a	0	-327.74
	11592	23.186	-8.59717E-001	-6.39307E-004	0.00000E+000	-8.59200E-001	-8.54272E-004	9	..........a	0	-327.74
	11620	23.242	-8.62487E-001	-6.38839E-004	0.00000E+000	-8.62000E-001	-8.54272E-004	9	..........a	0	-327.74
	11648	23.298	-8.65350E-001	-6.39528E-004	0.00000E+000	-8.64800E-001	-8.62605E-004	9	..........a	0	-327.74
	11676	23.354	-8.68167E-001	-6.40351E-004	0.00000E+000	-8.67600E-001	-8.54272E-004	9	..........a	0	-327.74
	11704	23.41	-8.70896E-001	-6.40911E-004	0.00000E+000	-8.70400E-001	-8.45939E-004	9	..........a	0	-327.74
	11732	23.466	-8.73762E-001	-6.39424E-004	0.00000E+000	-8.73200E-001	-8.45939E-004	9	..........a	0	-327.74
	11760	23.522	-8.76554E-001	-6.36315E-004	0.00000E+000	-8.76000E-001	-8.37606E-004	9	..........a	0	-327.74
	11788	23.578	-8.79317E-001	-6.39290E-004	0.00000E+000	-8.78800E-001	-8.70939E-004	9	..........a	0	-327.74
	11816	23.634	-8.82067E-001	-6.40753E-004	0.00000E+000	-8.81600E-001	-8.70939E-004	9	..........a	0	-327.74
	11844	23.69	-8.84904E-001	-6.40782E-004	0.00000E+000	-8.84400E-001	-8.20939E-004	9	..........a	0	-327.74
	11872	23.746	-8.87783E-001	-6.40130E-004	0.00000E+000	-8.87200E-001	-8.12605E-004	9	..........a	0	-327.74
	11900	23.802	-8.90529E-001	-6.40903E-004	0.00000E+000	-8.90000E-001	-8.12605E-004	9	..........a	0	-327.74
	11928	23.858	-8.93275E-001	-6.40740E-004	0.00000E+000	-8.92800E-001	-8.54272E-004	9	..........a	0	-327.74
	11956	23.914	-8.96112E-001	-6.40176E-004	0.00000E+000	-8.95600E-001	-8.62605E-004	9	..........a	0	-327.74
	11984	23.97	-8.98987E-001	-6.41087E-004	0.00000E+000	-8.98400E-001	-8.62605E-004	9	..........a	0	-327.74
	12012	24.026	-9.01729E-001	-6.40765E-004	0.00000E+000	-9.01200E-001	-8.95939E-004	9	..........a	0	-327.74
	12040	24.082	-9.04467E-001	-6.39286E-004	0.00000E+000	-9.04000E-001	-8.45939E-004	9	..........a	0	-327.74
	12068	24.138	-9.07275E-001	-6.40473E-004	0.00000E+000	-9.06800E-001	-8.37606E-004	9	..........a	0	-327.74
	12096	24.194	-9.10112E-001	-6.39315E-004	0.00000E+000	-9.09600E-001	-8.37606E-004	9	..........a	0	-327.74
	12124	24.25	-9.12933E-001	-6.40080E-004	0.00000E+000	-9.12400E-001	-8.54272E-004	9	..........a	0	-327.74
	12152	24.306	-9.15717E-001	-6.39787E-004	0.00000E+000	-9.15200E-001	-8.79272E-004	9	..........a	0	-327.74
	12180	24.362	-9.18571E-001	-6.41580E-004	0.00000E+000	-9.18000E-001	-8.54272E-004	9	..........a	0	-327.74
	12208	24.418	-9.21375E-001	-6.41684E-004	0.00000E+000	-9.20800E-001	-7.95939E-004	9	..........a	0	-327.74
	12236	24.474	-9.24092E-001	-6.37811E-004	0.00000E+000	-9.23600E-001	-8.87605E-004	9	..........a	0	-327.74
	12264	24.53	-9.26837E-001	-6.38818E-004	0.00000E+000	-9.26400E-001	-8.95939E-004	9	..........a	0	-327.74
	12292	24.586	-9.29733E-001	-6.38747E-004	0.00000E+000	-9.29200E-001	-8.54272E-004	9	..........a	0	-327.74
	12320	24.642	-9.32575E-001	-6.38860E-004	0.00000E+000	-9.32000E-001	-8.54272E-004	9	..........a	0	-327.74
	12348	24.698	-9.35337E-001	-6.40824E-004	0.00000E+000	-9.34800E-001	-8.29272E-004	9	..........a	0	-327.74
	12376	24.754	-9.38108E-001	-6.42562E-004	0.00000E+000	-9.37600E-001	-7.87605E-004	9	..........a	0	-327.74
	12404	24.81	-9.40958E-001	-6.43895E-004	0.00000E+000	-9.40400E-001	-8.79272E-004	9	..........a	0	-327.74
	12432	24.866	-9.43717E-001	-6.40439E-004	0.00000E+000	-9.43200E-001	-8.45939E-004	9	..........a	0	-327.74
	12460	24.922	-9.46487E-001	-6.37268E-004	0.00000E+000	-9.46000E-001	-8.45939E-004	9	..........a	0	-327.74
	12488	24.978	-9.49250E-001	-6.38367E-004	0.00000E+000	-9.48800E-001	-8.70939E-004	9	..........a	0	-327.74
	12516	25.034	-9.52075E-001	-6.39595E-004	0.00000E+000	-9.51600E-001	-8.62605E-004	9	..........a	0	-327.74
	12544	25.09	-9.54946E-001	-6.40761E-004	0.00000E+000	-9.54400E-001	-8.29272E-004	9	..........a	0	-327.74
	12572	25.146	-9.57775E-001	-6.41643E-004	0.00000E+000	-9.57200E-001	-8.62605E-004	9	..........a	0	-327.74
	12600	25.202	-9.60479E-001	-6.41505E-004	0.00000E+000	-9.60000E-001	-8.20939E-004	9	..........a	0	-327.74
	12628	25.258	-9.63333E-001	-6.41609E-004	0.00000E+000	-9.62800E-001	-8.79272E-004	9	..........a	0	-327.74
	12656	25.314	-9.66125E-001	-6.41944E-004	0.00000E+000	-9.65600E-001	-8.62605E-004	9	..........a	0	-327.74
	12684	25.37	-9.68904E-001	-6.41467E-004	0.00000E+000	-9.68400E-001	-8.62605E-004	9	..........a	0	-327.74
	12712	25.426	-9.71658E-001	-6.42566E-004	0.00000E+000	-9.71200E-001	-8.62605E-004	9	..........a	0	-327.74
	12740	25.482	-9.74433E-001	-6.41438E-004	0.00000E+000	-9.74000E-001	-8.62605E-004	9	..........a	0	-327.74
	12768	25.538	-9.77292E-001	-6.43949E-004	0.00000E+000	-9.76800E-001	-8.12605E-004	9	..........a	0	-327.74
	12796	25.594	-9.80083E-001	-6.42424E-004	0.00000E+000	-9.79600E-001	-8.20939E-004	9	..........a	0	-327.74
	12824	25.65	-9.82867E-001	-6.43644E-004	0.00000E+000	-9.82400E-001	-8.62605E-004	9	..........a	0	-327.74
	12852	25.706	-9.85662E-001	-6.42963E-004	0.00000E+000	-9.85200E-001	-9.04272E-004	9	..........a	0	-327.74
	12880	25.762	-9.88483E-001	-6.39152E-004	0.00000E+000	-9.88000E-001	-8.95939E-004	9	..........a	0	-327.74
	12908	25.818	-9.91262E-001	-6.42148E-004	0.00000E+000	-9.90800E-001	-8.04272E-004	9	..........a	0	-327.74
	12936	25.874	-9.94079E-001	-6.39315E-004	0.00000E+000	-9.93600E-001	-8.37606E-004	9	..........a	0	-327.74
	12964	25.93	-9.96933E-001	-6.39938E-004	0.00000E+000	-9.96400E-001	-8.37606E-004	9	..........a	0	-327.74
	12992	25.986	-9.99696E-001	-6.42850E-004	0.00000E+000	-9.99200E-001	-8.37606E-004	9	..........a	0	-327.74
	13000	26.002	-1.00045E+000	-6.42466E-004	0.00000E+000	-1.00000E+000	-8.95939E-004	9	..........a	0	-327.74