File: data/02-SI/Figures_S9_S11_RDE/14btmapaq-rde/1mkcl--5mmolar14btmapaq-nitrogen-rde-400-50mvpers.DTA
EXPLAIN
TAG	LSV
TITLE	LABEL	Linear Sweep Voltammetry	Test &Identifier
DATE	LABEL	1/31/2023	Date
TIME	LABEL	13:08:55	Time
NOTES	NOTES	1	&Notes...

PSTAT	PSTAT	REF3000-21108	Potentiostat
VINIT	POTEN	3.00000E-001	F	&Initial E (V)
VFINAL	POTEN	-1.00000E+000	F	&Final E (V)
SCANRATE	QUANT	4.99999E+001	&Scan Rate (mV/s)
STEPSIZE	QUANT	1.00000E-001	St&ep Size (mV)
IMODE	SELECTOR	0	I/E Range &Mode
IRANGE	QUANT	1.00000E+002	&Max Current (mA)
AREA	QUANT	1.00000E+000	Electrode &Area (cm^2)
ELECTRODETYPE	SELECTOR	0	Electrode Type
STRIPPING	TOGGLE	F	Used for Stripping
POLARITY	TOGGLE	F	Signal Polarity
CONDIT	TWOPARAM	F	1.50000E+001	0.00000E+000	Conditionin&g	Time(s)	E(V)
DELAY	TWOPARAM	F	3.00000E+001	0.00000E+000	Init. De&lay	Time(s)	Stab.(mV/s)
EQDELAY	QUANT	0.00000E+000	Equil. &Time (s)
IRCOMP	SELECTOR	0	IRCom&p
PFCOR	QUANT	5.00000E+001	PF Corr. (ohm)
SAMPLINGMODE	SELECTOR	1	Sampling &Mode
EOC	QUANT	0	Open Circuit (V)
PSTATMODEL	IQUANT	5	Pstat Model
PSTATSECTION	LABEL	REF3000-21108	Pstat Section
PSTATSERIALNO	LABEL	21108	Pstat Serial Number
CTRLMODE	IQUANT	1	Control Mode
ELECTROMETER	IQUANT	0	RE=0 or CS=1
IESTAB	IQUANT	2	I/E Stability
CASPEED	IQUANT	4	Control Amp Speed
CONVENTION	IQUANT	1	Current Convention
ICHRANGE	IQUANT	2	Ich Range
ICHRANGEMODE	TOGGLE	F	Ich Auto Range
ICHOFFSETENABLE	TOGGLE	F	Ich Offset Enable
ICHOFFSET	QUANT	0	Ich Offset (V)
ICHFILTER	IQUANT	2	Ich Filter
VCHRANGE	IQUANT	2	Vch Range
VCHRANGEMODE	TOGGLE	T	Vch Auto Range
VCHOFFSETENABLE	TOGGLE	F	Vch Offset Enable
VCHOFFSET	QUANT	0	Vch Offset (V)
VCHFILTER	IQUANT	2	Vch Filter
ACHRANGE	IQUANT	2	Ach Range
ACHOFFSETENABLE	TOGGLE	F	Ach Offset Enable
ACHOFFSET	QUANT	0	Ach Offset (V)
ACHFILTER	IQUANT	0	Ach Filter
IERANGELOWERLIMIT	IQUANT	2	I/E Range Lower Limit
IERANGEMODE	TOGGLE	T	I/E AutoRange
IERANGE	IQUANT	11	I/E Range
POSFEEDENABLE	TOGGLE	F	Positive Feedback IR Comp
POSFEEDRESISTANCE	QUANT	0	Positive Feedback Resistance (ohm)
ACHSELECT	IQUANT	0	Ach Select
SENSECABLEID	IQUANT	14	Sense Cable ID
PWRCABLEID	IQUANT	7	Power Cable ID
DCCALDATE	LABEL	11/9/2022	DC Calibration Date
ACCALDATE	LABEL	11/9/2022	AC Calibration Date
THERMOSELECT	IQUANT	1	Thermo Select
FRAMEWORKVERSION	LABEL	7.8.2	Framework Version
INSTRUMENTVERSION	LABEL	4.40	Instrument Version
COMPLIANCEVOLTAGE	IQUANT	0	Compliance Voltage
CURVE	TABLE	13001
	Pt	T	Vf	Im	Vu	Sig	Ach	IERange	Over	Cycle	Temp
	#	s	V vs. Ref.	A	V	V	V	#	bits	#	deg C
	0	0.002	3.00075E-001	-7.63533E-005	0.00000E+000	3.00000E-001	-2.92722E-005	11	..........a	0	-327.74
	28	0.058	2.96318E-001	8.95082E-006	0.00000E+000	2.97200E-001	-1.37606E-004	8	..........a	0	-327.74
	56	0.114	2.93497E-001	6.60268E-006	0.00000E+000	2.94400E-001	-3.04272E-004	8	..........a	0	-327.74
	84	0.17	2.90714E-001	5.04447E-006	0.00000E+000	2.91600E-001	-1.29272E-004	8	..........a	0	-327.74
	112	0.226	2.87889E-001	4.39119E-006	0.00000E+000	2.88800E-001	-2.87606E-004	8	..........a	0	-327.74
	140	0.282	2.85060E-001	3.87248E-006	0.00000E+000	2.86000E-001	-3.29272E-004	8	..........a	0	-327.74
	168	0.338	2.82310E-001	3.32419E-006	0.00000E+000	2.83200E-001	-2.70939E-004	8	..........a	0	-327.74
	196	0.394	2.79581E-001	2.80423E-006	0.00000E+000	2.80400E-001	-3.76056E-005	8	..........a	0	-327.74
	224	0.45	2.76747E-001	2.85548E-006	0.00000E+000	2.77600E-001	-1.04272E-004	8	..........a	0	-327.74
	252	0.506	2.73960E-001	2.54842E-006	0.00000E+000	2.74800E-001	-8.76056E-005	8	..........a	0	-327.74
	280	0.562	2.71027E-001	2.14262E-006	0.00000E+000	2.72000E-001	-2.62606E-004	8	..........a	0	-327.74
	308	0.618	2.68297E-001	2.13804E-006	0.00000E+000	2.69200E-001	-3.62606E-004	8	..........a	0	-327.74
	336	0.674	2.65531E-001	1.78807E-006	0.00000E+000	2.66400E-001	-1.95939E-004	8	..........a	0	-327.74
	364	0.73	2.62756E-001	1.92722E-006	0.00000E+000	2.63600E-001	-1.26055E-005	8	..........a	0	-327.74
	392	0.786	2.59943E-001	1.66224E-006	0.00000E+000	2.60800E-001	-5.42722E-005	8	..........a	0	-327.74
	420	0.842	2.57139E-001	1.40310E-006	0.00000E+000	2.58000E-001	-1.62606E-004	8	..........a	0	-327.74
	448	0.898	2.54285E-001	1.72974E-006	0.00000E+000	2.55200E-001	-4.12606E-004	8	..........a	0	-327.74
	476	0.954	2.51510E-001	1.68266E-006	0.00000E+000	2.52400E-001	-1.12606E-004	8	..........a	0	-327.74
	504	1.01	2.48797E-001	1.84973E-006	0.00000E+000	2.49600E-001	-1.70939E-004	8	..........a	0	-327.74
	532	1.066	2.45931E-001	1.60641E-006	0.00000E+000	2.46800E-001	-1.79272E-004	8	..........a	0	-327.74
	560	1.122	2.42813E-001	1.51309E-006	0.00000E+000	2.44000E-001	-2.62606E-004	8	......s...a	0	-327.74
	588	1.178	2.40004E-001	1.17353E-006	0.00000E+000	2.41200E-001	-1.95939E-004	8	..........a	0	-327.74
	616	1.234	2.37216E-001	1.24269E-006	0.00000E+000	2.38400E-001	-2.70939E-004	8	..........a	0	-327.74
	644	1.29	2.34418E-001	1.46684E-006	0.00000E+000	2.35600E-001	-2.70939E-004	8	..........a	0	-327.74
	672	1.346	2.31624E-001	1.22728E-006	0.00000E+000	2.32800E-001	-1.70939E-004	8	..........a	0	-327.74
	700	1.402	2.28813E-001	1.23478E-006	0.00000E+000	2.30000E-001	-7.09389E-005	8	..........a	0	-327.74
	728	1.458	2.26021E-001	1.23936E-006	0.00000E+000	2.27200E-001	-1.04272E-004	8	..........a	0	-327.74
	756	1.514	2.23221E-001	1.13395E-006	0.00000E+000	2.24400E-001	-2.09389E-005	8	..........a	0	-327.74
	784	1.57	2.20424E-001	1.28727E-006	0.00000E+000	2.21600E-001	-2.62606E-004	8	..........a	0	-327.74
	812	1.626	2.17628E-001	1.43393E-006	0.00000E+000	2.18800E-001	-1.54272E-004	8	..........a	0	-327.74
	840	1.682	2.14830E-001	1.20186E-006	0.00000E+000	2.16000E-001	-2.12606E-004	8	..........a	0	-327.74
	868	1.738	2.12028E-001	1.35352E-006	0.00000E+000	2.13200E-001	-1.45939E-004	8	..........a	0	-327.74
	896	1.794	2.09238E-001	1.39351E-006	0.00000E+000	2.10400E-001	-2.45939E-004	8	..........a	0	-327.74
	924	1.85	2.06441E-001	1.02063E-006	0.00000E+000	2.07600E-001	-1.12606E-004	8	..........a	0	-327.74
	952	1.906	2.03653E-001	1.12729E-006	0.00000E+000	2.04800E-001	-2.29272E-004	8	..........a	0	-327.74
	980	1.962	2.00841E-001	1.00855E-006	0.00000E+000	2.02000E-001	-1.45939E-004	8	..........a	0	-327.74
	1008	2.018	1.98038E-001	9.34385E-007	0.00000E+000	1.99200E-001	-3.54272E-004	8	..........a	0	-327.74
	1036	2.074	1.95248E-001	8.02729E-007	0.00000E+000	1.96400E-001	-1.29272E-004	8	..........a	0	-327.74
	1064	2.13	1.92454E-001	7.36901E-007	0.00000E+000	1.93600E-001	2.07278E-005	8	..........a	0	-327.74
	1092	2.186	1.89642E-001	4.55673E-007	0.00000E+000	1.90800E-001	-1.37606E-004	8	..........a	0	-327.74
	1120	2.242	1.86849E-001	5.87329E-007	0.00000E+000	1.88000E-001	-2.45939E-004	8	..........a	0	-327.74
	1148	2.298	1.84045E-001	5.05253E-007	0.00000E+000	1.85200E-001	-1.37606E-004	8	..........a	0	-327.74
	1176	2.354	1.81239E-001	7.52733E-007	0.00000E+000	1.82400E-001	-3.87606E-004	8	..........a	0	-327.74
	1204	2.41	1.78441E-001	6.69823E-007	0.00000E+000	1.79600E-001	-3.20939E-004	8	..........a	0	-327.74
	1232	2.466	1.75649E-001	5.35667E-007	0.00000E+000	1.76800E-001	-1.87606E-004	8	..........a	0	-327.74
	1260	2.522	1.72844E-001	7.73148E-007	0.00000E+000	1.74000E-001	-7.09389E-005	8	..........a	0	-327.74
	1288	2.578	1.70077E-001	6.84405E-007	0.00000E+000	1.71200E-001	-4.59389E-005	8	..........a	0	-327.74
	1316	2.634	1.67253E-001	4.06927E-007	0.00000E+000	1.68400E-001	-2.45939E-004	8	..........a	0	-327.74
	1344	2.69	1.64454E-001	6.77739E-007	0.00000E+000	1.65600E-001	-9.59389E-005	8	..........a	0	-327.74
	1372	2.746	1.61662E-001	3.39016E-007	0.00000E+000	1.62800E-001	-2.95939E-004	8	..........a	0	-327.74
	1400	2.802	1.58853E-001	2.94436E-007	0.00000E+000	1.60000E-001	-2.12606E-004	8	..........a	0	-327.74
	1428	2.858	1.56062E-001	4.26092E-007	0.00000E+000	1.57200E-001	-1.20939E-004	8	..........a	0	-327.74
	1456	2.914	1.53253E-001	2.71105E-007	0.00000E+000	1.54400E-001	-1.70939E-004	8	..........a	0	-327.74
	1484	2.97	1.50466E-001	6.61074E-007	0.00000E+000	1.51600E-001	-2.20939E-004	8	..........a	0	-327.74
	1512	3.026	1.47655E-001	5.11919E-007	0.00000E+000	1.48800E-001	-2.79272E-004	8	..........a	0	-327.74
	1540	3.082	1.44870E-001	5.38583E-007	0.00000E+000	1.46000E-001	-2.12606E-004	8	..........a	0	-327.74
	1568	3.138	1.42062E-001	2.78604E-007	0.00000E+000	1.43200E-001	-3.29272E-004	8	..........a	0	-327.74
	1596	3.194	1.39237E-001	1.24033E-007	0.00000E+000	1.40400E-001	-2.95939E-004	8	..........a	0	-327.74
	1624	3.25	1.36469E-001	4.44563E-008	0.00000E+000	1.37600E-001	-1.62606E-004	8	..........a	0	-327.74
	1652	3.306	1.33673E-001	4.26926E-007	0.00000E+000	1.34800E-001	-3.45939E-004	8	..........a	0	-327.74
	1680	3.362	1.30868E-001	-1.26780E-007	0.00000E+000	1.32000E-001	-5.04272E-004	8	..........a	0	-327.74
	1708	3.418	1.28078E-001	1.54864E-007	0.00000E+000	1.29200E-001	-2.70939E-004	8	..........a	0	-327.74
	1736	3.474	1.25277E-001	1.67363E-007	0.00000E+000	1.26400E-001	-1.04272E-004	8	..........a	0	-327.74
	1764	3.53	1.22475E-001	1.16117E-007	0.00000E+000	1.23600E-001	-1.87606E-004	8	..........a	0	-327.74
	1792	3.586	1.19688E-001	2.36941E-007	0.00000E+000	1.20800E-001	-1.54272E-004	8	..........a	0	-327.74
	1820	3.642	1.16878E-001	1.24033E-007	0.00000E+000	1.18000E-001	-2.70939E-004	8	..........a	0	-327.74
	1848	3.698	1.14070E-001	1.37782E-007	0.00000E+000	1.15200E-001	-3.62606E-004	8	..........a	0	-327.74
	1876	3.754	1.11271E-001	-2.96350E-007	0.00000E+000	1.12400E-001	-3.04272E-004	8	..........a	0	-327.74
	1904	3.81	1.08483E-001	1.73613E-007	0.00000E+000	1.09600E-001	-2.04272E-004	8	..........a	0	-327.74
	1932	3.866	1.05682E-001	1.02924E-008	0.00000E+000	1.06800E-001	-4.59389E-005	8	..........a	0	-327.74
	1960	3.922	1.02869E-001	1.62364E-007	0.00000E+000	1.04000E-001	-2.62606E-004	8	..........a	0	-327.74
	1988	3.978	1.00076E-001	-2.15106E-007	0.00000E+000	1.01200E-001	-1.20939E-004	8	..........a	0	-327.74
	2016	4.034	9.72772E-002	-1.66360E-007	0.00000E+000	9.84000E-002	-2.87606E-004	8	..........a	0	-327.74
	2044	4.09	9.44681E-002	-4.20506E-007	0.00000E+000	9.56000E-002	-1.87606E-004	8	..........a	0	-327.74
	2072	4.146	9.16931E-002	3.96511E-007	0.00000E+000	9.28000E-002	-2.79272E-004	8	..........a	0	-327.74
	2100	4.202	8.88881E-002	-9.96987E-008	0.00000E+000	9.00000E-002	-1.62606E-004	8	..........a	0	-327.74
	2128	4.258	8.60839E-002	-4.59670E-007	0.00000E+000	8.72000E-002	2.07278E-005	8	..........a	0	-327.74
	2156	4.314	8.33039E-002	-2.30522E-007	0.00000E+000	8.44000E-002	-1.04272E-004	8	..........a	0	-327.74
	2184	4.37	8.04918E-002	-2.10940E-007	0.00000E+000	8.16000E-002	-4.04272E-004	8	..........a	0	-327.74
	2212	4.426	7.77056E-002	-2.79268E-007	0.00000E+000	7.88000E-002	-4.20939E-004	8	..........a	0	-327.74
	2240	4.482	7.48897E-002	-3.69677E-007	0.00000E+000	7.60000E-002	-2.62606E-004	8	..........a	0	-327.74
	2268	4.538	7.21076E-002	-2.85934E-007	0.00000E+000	7.32000E-002	-1.37606E-004	8	..........a	0	-327.74
	2296	4.594	6.92872E-002	-2.42187E-007	0.00000E+000	7.04000E-002	-3.04272E-004	8	..........a	0	-327.74
	2324	4.65	6.65076E-002	2.41524E-007	0.00000E+000	6.76000E-002	-1.37606E-004	8	..........a	0	-327.74
	2352	4.706	6.37018E-002	-1.95941E-007	0.00000E+000	6.48000E-002	-2.37606E-004	8	..........a	0	-327.74
	2380	4.762	6.08935E-002	-4.11757E-007	0.00000E+000	6.20000E-002	-1.62606E-004	8	..........a	0	-327.74
	2408	4.818	5.81047E-002	8.44531E-008	0.00000E+000	5.92000E-002	-2.29272E-004	8	..........a	0	-327.74
	2436	4.874	5.53076E-002	-3.25931E-007	0.00000E+000	5.64000E-002	-2.79272E-004	8	..........a	0	-327.74
	2464	4.93	5.25035E-002	-3.40929E-007	0.00000E+000	5.36000E-002	-2.20939E-004	8	..........a	0	-327.74
	2492	4.986	4.97039E-002	-4.13007E-007	0.00000E+000	5.08000E-002	-3.62606E-004	8	..........a	0	-327.74
	2520	5.042	4.69097E-002	-4.07174E-007	0.00000E+000	4.80000E-002	-2.37606E-004	8	..........a	0	-327.74
	2548	5.098	4.41051E-002	-2.83434E-007	0.00000E+000	4.52000E-002	-2.45939E-004	8	..........a	0	-327.74
	2576	5.154	4.13006E-002	-3.12598E-007	0.00000E+000	4.24000E-002	-3.12606E-004	8	..........a	0	-327.74
	2604	5.21	3.85085E-002	-4.70919E-007	0.00000E+000	3.96000E-002	-5.29272E-004	8	..........a	0	-327.74
	2632	5.266	3.57106E-002	-1.31779E-007	0.00000E+000	3.68000E-002	-1.20939E-004	8	..........a	0	-327.74
	2660	5.322	3.29085E-002	-6.22157E-007	0.00000E+000	3.40000E-002	-2.09389E-005	8	..........a	0	-327.74
	2688	5.378	3.01039E-002	-2.03857E-007	0.00000E+000	3.12000E-002	-2.20939E-004	8	..........a	0	-327.74
	2716	5.434	2.73331E-002	-2.32188E-007	0.00000E+000	2.84000E-002	-2.37606E-004	8	..........a	0	-327.74
	2744	5.49	2.45235E-002	-2.23022E-007	0.00000E+000	2.56000E-002	-2.12606E-004	8	..........a	0	-327.74
	2772	5.546	2.16995E-002	-2.13023E-007	0.00000E+000	2.28000E-002	-3.12606E-004	8	..........a	0	-327.74
	2800	5.602	1.88913E-002	-3.96758E-007	0.00000E+000	2.00000E-002	-1.37606E-004	8	..........a	0	-327.74
	2828	5.658	1.60872E-002	-3.59261E-007	0.00000E+000	1.72000E-002	1.23945E-005	8	..........a	0	-327.74
	2856	5.714	1.32927E-002	-3.58845E-007	0.00000E+000	1.44000E-002	-2.20939E-004	8	..........a	0	-327.74
	2884	5.77	1.04948E-002	-2.62602E-007	0.00000E+000	1.16000E-002	-2.29272E-004	8	..........a	0	-327.74
	2912	5.826	7.70164E-003	-5.03833E-007	0.00000E+000	8.79997E-003	-2.04272E-004	8	..........a	0	-327.74
	2940	5.882	4.90726E-003	-3.90925E-007	0.00000E+000	5.99995E-003	-1.54272E-004	8	..........a	0	-327.74
	2968	5.938	2.10452E-003	-4.23839E-007	0.00000E+000	3.19996E-003	4.06111E-006	8	..........a	0	-327.74
	2996	5.994	-6.94568E-004	-5.27581E-007	0.00000E+000	3.99977E-004	5.40611E-005	8	..........a	0	-327.74
	3024	6.05	-3.49361E-003	-1.40945E-007	0.00000E+000	-2.40004E-003	-3.04272E-004	8	..........a	0	-327.74
	3052	6.106	-6.29090E-003	-3.39679E-007	0.00000E+000	-5.20003E-003	-2.95939E-004	8	..........a	0	-327.74
	3080	6.162	-9.09165E-003	-4.12590E-007	0.00000E+000	-8.00005E-003	-3.70939E-004	8	..........a	0	-327.74
	3108	6.218	-1.18729E-002	-4.73419E-007	0.00000E+000	-1.08000E-002	-1.70939E-004	8	..........a	0	-327.74
	3136	6.274	-1.46785E-002	-2.20106E-007	0.00000E+000	-1.36000E-002	-2.54272E-004	8	..........a	0	-327.74
	3164	6.33	-1.75004E-002	-2.95100E-007	0.00000E+000	-1.64000E-002	-8.76056E-005	8	..........a	0	-327.74
	3192	6.386	-2.02847E-002	-6.04242E-007	0.00000E+000	-1.92000E-002	9.57278E-005	8	..........a	0	-327.74
	3220	6.442	-2.30646E-002	-5.59523E-008	0.00000E+000	-2.20000E-002	-6.26056E-005	8	..........a	0	-327.74
	3248	6.498	-2.58886E-002	-6.75902E-007	0.00000E+000	-2.48000E-002	-6.26056E-005	8	..........a	0	-327.74
	3276	6.554	-2.86599E-002	-2.98849E-007	0.00000E+000	-2.76000E-002	-1.45939E-004	8	..........a	0	-327.74
	3304	6.61	-3.14536E-002	-5.14665E-007	0.00000E+000	-3.04000E-002	-8.76056E-005	8	..........a	0	-327.74
	3332	6.666	-3.42403E-002	-3.08015E-007	0.00000E+000	-3.32000E-002	3.73944E-005	8	..........a	0	-327.74
	3360	6.722	-3.70574E-002	-6.18824E-007	0.00000E+000	-3.60000E-002	-1.45939E-004	8	..........a	0	-327.74
	3388	6.778	-3.98361E-002	-3.65511E-007	0.00000E+000	-3.88000E-002	4.57278E-005	8	..........a	0	-327.74
	3416	6.834	-4.26407E-002	-2.29688E-007	0.00000E+000	-4.16000E-002	-3.76056E-005	8	..........a	0	-327.74
	3444	6.89	-4.54324E-002	-5.75910E-007	0.00000E+000	-4.44000E-002	-4.59389E-005	8	..........a	0	-327.74
	3472	6.946	-4.82574E-002	-3.48845E-007	0.00000E+000	-4.72000E-002	-7.92722E-005	8	..........a	0	-327.74
	3500	7.002	-5.10440E-002	-5.30081E-007	0.00000E+000	-5.00000E-002	4.57278E-005	8	..........a	0	-327.74
	3528	7.058	-5.38607E-002	-6.73403E-007	0.00000E+000	-5.28000E-002	-8.76056E-005	8	..........a	0	-327.74
	3556	7.114	-5.66453E-002	-8.87552E-007	0.00000E+000	-5.56000E-002	-1.26055E-005	8	..........a	0	-327.74
	3584	7.17	-5.94432E-002	-6.70486E-007	0.00000E+000	-5.84000E-002	-2.09389E-005	8	..........a	0	-327.74
	3612	7.226	-6.22324E-002	-2.58019E-007	0.00000E+000	-6.12000E-002	9.57278E-005	8	..........a	0	-327.74
	3640	7.282	-6.50432E-002	-1.45112E-007	0.00000E+000	-6.40000E-002	-2.92722E-005	8	..........a	0	-327.74
	3668	7.338	-6.78307E-002	-3.83009E-007	0.00000E+000	-6.68000E-002	-4.27222E-006	8	..........a	0	-327.74
	3696	7.394	-7.06282E-002	-1.74693E-007	0.00000E+000	-6.96000E-002	1.23945E-005	8	..........a	0	-327.74
	3724	7.45	-7.34361E-002	-4.16340E-007	0.00000E+000	-7.24000E-002	2.90611E-005	8	..........a	0	-327.74
	3752	7.506	-7.62119E-002	-4.00091E-007	0.00000E+000	-7.52000E-002	2.07278E-005	8	..........a	0	-327.74
	3780	7.562	-7.90149E-002	-3.70510E-007	0.00000E+000	-7.80000E-002	4.57278E-005	8	..........a	0	-327.74
	3808	7.618	-8.18336E-002	-5.24665E-007	0.00000E+000	-8.08000E-002	-6.26056E-005	8	..........a	0	-327.74
	3836	7.674	-8.46299E-002	-6.50071E-007	0.00000E+000	-8.36000E-002	-1.54272E-004	8	..........a	0	-327.74
	3864	7.73	-8.74261E-002	-6.94651E-007	0.00000E+000	-8.64000E-002	-7.92722E-005	8	..........a	0	-327.74
	3892	7.786	-9.02253E-002	-5.49246E-007	0.00000E+000	-8.92000E-002	8.73944E-005	8	..........a	0	-327.74
	3920	7.842	-9.30328E-002	-5.35914E-007	0.00000E+000	-9.20000E-002	-2.29272E-004	8	..........a	0	-327.74
	3948	7.898	-9.58244E-002	-5.09249E-007	0.00000E+000	-9.48000E-002	-9.59389E-005	8	..........a	0	-327.74
	3976	7.954	-9.86086E-002	-6.10491E-007	0.00000E+000	-9.76000E-002	-1.37606E-004	8	..........a	0	-327.74
	4004	8.01	-1.01411E-001	-7.18816E-007	0.00000E+000	-1.00400E-001	-1.12606E-004	8	..........a	0	-327.74
	4032	8.066	-1.04208E-001	-6.46321E-007	0.00000E+000	-1.03200E-001	4.57278E-005	8	..........a	0	-327.74
	4060	8.122	-1.07012E-001	-6.90485E-007	0.00000E+000	-1.06000E-001	-3.76056E-005	8	..........a	0	-327.74
	4088	8.178	-1.09824E-001	-7.23815E-007	0.00000E+000	-1.08800E-001	-1.26055E-005	8	..........a	0	-327.74
	4116	8.234	-1.12615E-001	-8.45055E-007	0.00000E+000	-1.11600E-001	-2.12606E-004	8	..........a	0	-327.74
	4144	8.29	-1.15407E-001	-4.52170E-007	0.00000E+000	-1.14400E-001	-1.04272E-004	8	..........a	0	-327.74
	4172	8.346	-1.18210E-001	-4.26339E-007	0.00000E+000	-1.17200E-001	2.07278E-005	8	..........a	0	-327.74
	4200	8.402	-1.21008E-001	-7.37564E-007	0.00000E+000	-1.20000E-001	-1.95939E-004	8	..........a	0	-327.74
	4228	8.458	-1.23812E-001	-8.78386E-007	0.00000E+000	-1.22800E-001	1.23945E-005	8	..........a	0	-327.74
	4256	8.514	-1.26604E-001	-9.39631E-007	0.00000E+000	-1.25600E-001	-6.26056E-005	8	..........a	0	-327.74
	4284	8.57	-1.29391E-001	-3.99258E-007	0.00000E+000	-1.28400E-001	-2.92722E-005	8	..........a	0	-327.74
	4312	8.626	-1.32209E-001	-8.96718E-007	0.00000E+000	-1.31200E-001	-1.37606E-004	8	..........a	0	-327.74
	4340	8.682	-1.35004E-001	-6.69236E-007	0.00000E+000	-1.34000E-001	-1.12606E-004	8	..........a	0	-327.74
	4368	8.738	-1.37794E-001	-3.83843E-007	0.00000E+000	-1.36800E-001	4.57278E-005	8	..........a	0	-327.74
	4396	8.794	-1.40597E-001	-9.20049E-007	0.00000E+000	-1.39600E-001	4.06111E-006	8	..........a	0	-327.74
	4424	8.85	-1.43389E-001	-6.70070E-007	0.00000E+000	-1.42400E-001	7.07278E-005	8	..........a	0	-327.74
	4452	8.906	-1.46186E-001	-8.90469E-007	0.00000E+000	-1.45200E-001	4.57278E-005	8	..........a	0	-327.74
	4480	8.962	-1.48992E-001	-5.85076E-007	0.00000E+000	-1.48000E-001	-1.20939E-004	8	..........a	0	-327.74
	4508	9.018	-1.51801E-001	-7.36731E-007	0.00000E+000	-1.50800E-001	-1.26055E-005	8	..........a	0	-327.74
	4536	9.074	-1.54576E-001	-3.02182E-007	0.00000E+000	-1.53600E-001	4.06111E-006	8	..........a	0	-327.74
	4564	9.13	-1.57389E-001	-5.55079E-007	0.00000E+000	-1.56400E-001	-2.92722E-005	8	..........a	0	-327.74
	4592	9.186	-1.60189E-001	-8.08808E-007	0.00000E+000	-1.59200E-001	1.45728E-004	8	..........a	0	-327.74
	4620	9.242	-1.62978E-001	-6.82985E-007	0.00000E+000	-1.62000E-001	-3.76056E-005	8	..........a	0	-327.74
	4648	9.298	-1.65786E-001	-7.22565E-007	0.00000E+000	-1.64800E-001	-1.26055E-005	8	..........a	0	-327.74
	4676	9.354	-1.68579E-001	-4.14673E-007	0.00000E+000	-1.67600E-001	-2.12606E-004	8	..........a	0	-327.74
	4704	9.41	-1.71402E-001	-1.00963E-006	0.00000E+000	-1.70400E-001	4.57278E-005	8	..........a	0	-327.74
	4732	9.466	-1.74175E-001	-9.92960E-007	0.00000E+000	-1.73200E-001	1.62394E-004	8	..........a	0	-327.74
	4760	9.522	-1.76965E-001	-7.10900E-007	0.00000E+000	-1.76000E-001	-2.92722E-005	8	..........a	0	-327.74
	4788	9.578	-1.79776E-001	-1.00713E-006	0.00000E+000	-1.78800E-001	7.07278E-005	8	..........a	0	-327.74
	4816	9.634	-1.82585E-001	-6.52571E-007	0.00000E+000	-1.81600E-001	-5.42722E-005	8	..........a	0	-327.74
	4844	9.69	-1.85376E-001	-7.63812E-007	0.00000E+000	-1.84400E-001	-1.26055E-005	8	..........a	0	-327.74
	4872	9.746	-1.88161E-001	-1.01962E-006	0.00000E+000	-1.87200E-001	7.90611E-005	8	..........a	0	-327.74
	4900	9.802	-1.90963E-001	-8.20057E-007	0.00000E+000	-1.90000E-001	1.54061E-004	8	..........a	0	-327.74
	4928	9.858	-1.93767E-001	-5.54246E-007	0.00000E+000	-1.92800E-001	1.45728E-004	8	..........a	0	-327.74
	4956	9.914	-1.96567E-001	-8.73387E-007	0.00000E+000	-1.95600E-001	1.20728E-004	8	..........a	0	-327.74
	4984	9.97	-1.99378E-001	-6.67570E-007	0.00000E+000	-1.98400E-001	1.87394E-004	8	..........a	0	-327.74
	5012	10.026	-2.02165E-001	-8.67137E-007	0.00000E+000	-2.01200E-001	1.23945E-005	8	..........a	0	-327.74
	5040	10.082	-2.04956E-001	-5.02166E-007	0.00000E+000	-2.04000E-001	-4.27222E-006	8	..........a	0	-327.74
	5068	10.138	-2.07768E-001	-1.07754E-006	0.00000E+000	-2.06800E-001	1.45728E-004	8	..........a	0	-327.74
	5096	10.194	-2.10570E-001	-8.27140E-007	0.00000E+000	-2.09600E-001	2.90611E-005	8	..........a	0	-327.74
	5124	10.25	-2.13352E-001	-1.00338E-006	0.00000E+000	-2.12400E-001	-1.04272E-004	8	..........a	0	-327.74
	5152	10.306	-2.16157E-001	-8.53805E-007	0.00000E+000	-2.15200E-001	2.90611E-005	8	..........a	0	-327.74
	5180	10.362	-2.18967E-001	-1.14045E-006	0.00000E+000	-2.18000E-001	9.57278E-005	8	..........a	0	-327.74
	5208	10.418	-2.21753E-001	-1.25544E-006	0.00000E+000	-2.20800E-001	-1.70939E-004	8	..........a	0	-327.74
	5236	10.474	-2.24553E-001	-9.26299E-007	0.00000E+000	-2.23600E-001	-1.20939E-004	8	..........a	0	-327.74
	5264	10.53	-2.27346E-001	-9.02134E-007	0.00000E+000	-2.26400E-001	7.07278E-005	8	..........a	0	-327.74
	5292	10.586	-2.30154E-001	-1.20669E-006	0.00000E+000	-2.29200E-001	7.90611E-005	8	..........a	0	-327.74
	5320	10.642	-2.32959E-001	-9.57963E-007	0.00000E+000	-2.32000E-001	-4.27222E-006	8	..........a	0	-327.74
	5348	10.698	-2.35748E-001	-1.36710E-006	0.00000E+000	-2.34800E-001	5.40611E-005	8	..........a	0	-327.74
	5376	10.754	-2.38548E-001	-1.36335E-006	0.00000E+000	-2.37600E-001	-8.76056E-005	8	..........a	0	-327.74
	5404	10.81	-2.41344E-001	-9.07134E-007	0.00000E+000	-2.40400E-001	-7.09389E-005	8	..........a	0	-327.74
	5432	10.866	-2.44138E-001	-1.45126E-006	0.00000E+000	-2.43200E-001	-1.26055E-005	8	..........a	0	-327.74
	5460	10.922	-2.46948E-001	-1.45501E-006	0.00000E+000	-2.46000E-001	1.12394E-004	8	..........a	0	-327.74
	5488	10.978	-2.49742E-001	-1.25461E-006	0.00000E+000	-2.48800E-001	-1.87606E-004	8	..........a	0	-327.74
	5516	11.034	-2.52540E-001	-1.15836E-006	0.00000E+000	-2.51600E-001	-1.37606E-004	8	..........a	0	-327.74
	5544	11.09	-2.55347E-001	-1.25002E-006	0.00000E+000	-2.54400E-001	7.90611E-005	8	..........a	0	-327.74
	5572	11.146	-2.58149E-001	-1.19586E-006	0.00000E+000	-2.57200E-001	-2.92722E-005	8	..........a	0	-327.74
	5600	11.202	-2.60929E-001	-1.27169E-006	0.00000E+000	-2.60000E-001	1.95728E-004	8	..........a	0	-327.74
	5628	11.258	-2.63729E-001	-1.26252E-006	0.00000E+000	-2.62800E-001	-7.92722E-005	8	..........a	0	-327.74
	5656	11.314	-2.66198E-001	-1.30627E-006	0.00000E+000	-2.65600E-001	-1.12606E-004	8	......s...a	0	-327.74
	5684	11.37	-2.69061E-001	-1.60458E-006	0.00000E+000	-2.68400E-001	-1.04272E-004	8	..........a	0	-327.74
	5712	11.426	-2.71873E-001	-1.65041E-006	0.00000E+000	-2.71200E-001	-1.95939E-004	8	..........a	0	-327.74
	5740	11.482	-2.74640E-001	-1.06962E-006	0.00000E+000	-2.74000E-001	-1.79272E-004	8	..........a	0	-327.74
	5768	11.538	-2.77365E-001	-1.59375E-006	0.00000E+000	-2.76800E-001	-6.26056E-005	8	..........a	0	-327.74
	5796	11.594	-2.80203E-001	-9.28799E-007	0.00000E+000	-2.79600E-001	1.23945E-005	8	..........a	0	-327.74
	5824	11.65	-2.83048E-001	-1.57333E-006	0.00000E+000	-2.82400E-001	-3.76056E-005	8	..........a	0	-327.74
	5852	11.706	-2.85857E-001	-1.50167E-006	0.00000E+000	-2.85200E-001	-2.92722E-005	8	..........a	0	-327.74
	5880	11.762	-2.88603E-001	-1.42459E-006	0.00000E+000	-2.88000E-001	-2.20939E-004	8	..........a	0	-327.74
	5908	11.818	-2.91448E-001	-1.97663E-006	0.00000E+000	-2.90800E-001	-5.42722E-005	8	..........a	0	-327.74
	5936	11.874	-2.94223E-001	-1.37960E-006	0.00000E+000	-2.93600E-001	-3.76056E-005	8	..........a	0	-327.74
	5964	11.93	-2.97015E-001	-1.57541E-006	0.00000E+000	-2.96400E-001	-7.09389E-005	8	..........a	0	-327.74
	5992	11.986	-2.99865E-001	-1.79540E-006	0.00000E+000	-2.99200E-001	1.23945E-005	8	..........a	0	-327.74
	6020	12.042	-3.02615E-001	-1.61208E-006	0.00000E+000	-3.02000E-001	-2.09389E-005	8	..........a	0	-327.74
	6048	12.098	-3.05457E-001	-2.06037E-006	0.00000E+000	-3.04800E-001	-7.92722E-005	8	..........a	0	-327.74
	6076	12.154	-3.08194E-001	-1.78581E-006	0.00000E+000	-3.07600E-001	3.73944E-005	8	..........a	0	-327.74
	6104	12.21	-3.11007E-001	-2.13162E-006	0.00000E+000	-3.10400E-001	-1.62606E-004	8	..........a	0	-327.74
	6132	12.266	-3.13778E-001	-1.88081E-006	0.00000E+000	-3.13200E-001	-1.20939E-004	8	..........a	0	-327.74
	6160	12.322	-3.16619E-001	-2.00371E-006	0.00000E+000	-3.16000E-001	4.57278E-005	8	..........a	0	-327.74
	6188	12.378	-3.19369E-001	-2.02288E-006	0.00000E+000	-3.18800E-001	-8.76056E-005	8	..........a	0	-327.74
	6216	12.434	-3.22190E-001	-1.88664E-006	0.00000E+000	-3.21600E-001	-1.87606E-004	8	..........a	0	-327.74
	6244	12.49	-3.25019E-001	-2.48701E-006	0.00000E+000	-3.24400E-001	-2.09389E-005	8	..........a	0	-327.74
	6272	12.546	-3.27832E-001	-2.21911E-006	0.00000E+000	-3.27200E-001	-1.04272E-004	8	..........a	0	-327.74
	6300	12.602	-3.30619E-001	-2.69324E-006	0.00000E+000	-3.30000E-001	-4.59389E-005	8	..........a	0	-327.74
	6328	12.658	-3.33303E-001	-2.86073E-006	0.00000E+000	-3.32800E-001	2.90611E-005	8	..........a	0	-327.74
	6356	12.714	-3.36173E-001	-3.12321E-006	0.00000E+000	-3.35600E-001	2.20728E-004	8	..........a	0	-327.74
	6384	12.77	-3.39036E-001	-3.09029E-006	0.00000E+000	-3.38400E-001	-1.26055E-005	8	..........a	0	-327.74
	6412	12.826	-3.41848E-001	-3.20028E-006	0.00000E+000	-3.41200E-001	-1.20939E-004	8	..........a	0	-327.74
	6440	12.882	-3.44523E-001	-3.48943E-006	0.00000E+000	-3.44000E-001	-1.29272E-004	8	..........a	0	-327.74
	6468	12.938	-3.47403E-001	-3.91648E-006	0.00000E+000	-3.46800E-001	-1.62606E-004	8	..........a	0	-327.74
	6496	12.994	-3.50236E-001	-3.93106E-006	0.00000E+000	-3.49600E-001	-1.29272E-004	8	..........a	0	-327.74
	6524	13.05	-3.53015E-001	-4.48393E-006	0.00000E+000	-3.52400E-001	1.20728E-004	8	..........a	0	-327.74
	6552	13.106	-3.55757E-001	-4.55351E-006	0.00000E+000	-3.55200E-001	-1.95939E-004	8	..........a	0	-327.74
	6580	13.162	-3.58628E-001	-4.82349E-006	0.00000E+000	-3.58000E-001	-3.20939E-004	8	..........a	0	-327.74
	6608	13.218	-3.61440E-001	-5.32178E-006	0.00000E+000	-3.60800E-001	-2.95939E-004	8	..........a	0	-327.74
	6636	13.274	-3.64223E-001	-5.65217E-006	0.00000E+000	-3.63600E-001	-2.12606E-004	8	..........a	0	-327.74
	6664	13.33	-3.67023E-001	-6.15879E-006	0.00000E+000	-3.66400E-001	-2.04272E-004	8	..........a	0	-327.74
	6692	13.386	-3.69803E-001	-6.40877E-006	0.00000E+000	-3.69200E-001	-7.92722E-005	8	..........a	0	-327.74
	6720	13.442	-3.72598E-001	-7.35037E-006	0.00000E+000	-3.72000E-001	-8.76056E-005	8	..........a	0	-327.74
	6748	13.498	-3.75419E-001	-7.64451E-006	0.00000E+000	-3.74800E-001	-2.04272E-004	8	..........a	0	-327.74
	6776	13.554	-3.78211E-001	-8.13239E-006	0.00000E+000	-3.77600E-001	-1.29272E-004	8	..........a	0	-327.74
	6804	13.61	-3.81053E-001	-9.28229E-006	0.00000E+000	-3.80400E-001	-3.12606E-004	8	..........a	0	-327.74
	6832	13.666	-3.83823E-001	-9.69726E-006	0.00000E+000	-3.83200E-001	3.73944E-005	8	..........a	0	-327.74
	6860	13.722	-3.86548E-001	-1.05259E-005	0.00000E+000	-3.86000E-001	-2.09389E-005	8	..........a	0	-327.74
	6888	13.778	-3.89315E-001	-1.14155E-005	0.00000E+000	-3.88800E-001	-3.76056E-005	8	..........a	0	-327.74
	6916	13.834	-3.92311E-001	-1.22341E-005	0.00000E+000	-3.91600E-001	-2.45939E-004	8	..........a	0	-327.74
	6944	13.89	-3.95057E-001	-1.29932E-005	0.00000E+000	-3.94400E-001	-1.45939E-004	8	..........a	0	-327.74
	6972	13.946	-3.97782E-001	-1.44219E-005	0.00000E+000	-3.97200E-001	-6.26056E-005	8	..........a	0	-327.74
	7000	14.002	-4.00557E-001	-1.53360E-005	0.00000E+000	-4.00000E-001	-1.79272E-004	8	..........a	0	-327.74
	7028	14.058	-4.03428E-001	-1.65955E-005	0.00000E+000	-4.02800E-001	-1.37606E-004	8	..........a	0	-327.74
	7056	14.114	-4.06232E-001	-1.78912E-005	0.00000E+000	-4.05600E-001	-2.45939E-004	8	..........a	0	-327.74
	7084	14.17	-4.09053E-001	-1.90044E-005	0.00000E+000	-4.08400E-001	-3.29272E-004	8	..........a	0	-327.74
	7112	14.226	-4.11782E-001	-2.07476E-005	0.00000E+000	-4.11200E-001	-3.12606E-004	8	..........a	0	-327.74
	7140	14.282	-4.14515E-001	-2.21158E-005	0.00000E+000	-4.14000E-001	-2.04272E-004	8	..........a	0	-327.74
	7168	14.338	-4.17440E-001	-2.39582E-005	0.00000E+000	-4.16800E-001	-3.29272E-004	8	..........a	0	-327.74
	7196	14.394	-4.20228E-001	-2.58139E-005	0.00000E+000	-4.19600E-001	-6.26056E-005	8	..........a	0	-327.74
	7224	14.45	-4.22919E-001	-2.76262E-005	0.00000E+000	-4.22400E-001	-3.76056E-005	8	..........a	0	-327.74
	7252	14.506	-4.25744E-001	-2.95278E-005	0.00000E+000	-4.25200E-001	-1.04272E-004	8	..........a	0	-327.74
	7280	14.562	-4.28611E-001	-3.15418E-005	0.00000E+000	-4.28000E-001	-1.20939E-004	8	..........a	0	-327.74
	7308	14.618	-4.31382E-001	-3.38012E-005	0.00000E+000	-4.30800E-001	-2.87606E-004	8	..........a	0	-327.74
	7336	14.674	-4.34086E-001	-3.61906E-005	0.00000E+000	-4.33600E-001	-3.76056E-005	8	..........a	0	-327.74
	7364	14.73	-4.36894E-001	-3.88116E-005	0.00000E+000	-4.36400E-001	-1.37606E-004	8	..........a	0	-327.74
	7392	14.786	-4.39686E-001	-4.10593E-005	0.00000E+000	-4.39200E-001	1.45728E-004	8	..........a	0	-327.74
	7420	14.842	-4.42536E-001	-4.38304E-005	0.00000E+000	-4.42000E-001	-1.54272E-004	8	..........a	0	-327.74
	7448	14.898	-4.45307E-001	-4.61977E-005	0.00000E+000	-4.44800E-001	-1.04272E-004	8	..........a	0	-327.74
	7476	14.954	-4.48123E-001	-4.94132E-005	0.00000E+000	-4.47600E-001	-2.70939E-004	8	..........a	0	-327.74
	7504	15.01	-4.50923E-001	-5.27580E-005	0.00000E+000	-4.50400E-001	-1.20939E-004	8	..........a	0	-327.74
	7532	15.066	-4.53707E-001	-5.56832E-005	0.00000E+000	-4.53200E-001	-5.42722E-005	8	..........a	0	-327.74
	7560	15.122	-4.56490E-001	-5.93137E-005	0.00000E+000	-4.56000E-001	-1.37606E-004	8	..........a	0	-327.74
	7588	15.178	-4.59244E-001	-6.31413E-005	0.00000E+000	-4.58800E-001	4.57278E-005	8	..........a	0	-327.74
	7616	15.234	-4.62128E-001	-6.70418E-005	0.00000E+000	-4.61600E-001	-2.09389E-005	8	..........a	0	-327.74
	7644	15.29	-4.64869E-001	-7.06753E-005	0.00000E+000	-4.64400E-001	-5.42722E-005	8	..........a	0	-327.74
	7672	15.346	-4.67719E-001	-7.47704E-005	0.00000E+000	-4.67200E-001	-1.29272E-004	8	..........a	0	-327.74
	7700	15.402	-4.70532E-001	-7.90721E-005	0.00000E+000	-4.70000E-001	-1.79272E-004	8	..........a	0	-327.74
	7728	15.458	-4.73236E-001	-8.31801E-005	0.00000E+000	-4.72800E-001	-1.26055E-005	8	..........a	0	-327.74
	7756	15.514	-4.75994E-001	-8.75256E-005	0.00000E+000	-4.75600E-001	1.37394E-004	8	..........a	0	-327.74
	7784	15.57	-4.78886E-001	-9.20981E-005	0.00000E+000	-4.78400E-001	-1.95939E-004	8	..........a	0	-327.74
	7812	15.626	-4.81694E-001	-9.73627E-005	0.00000E+000	-4.81200E-001	-1.62606E-004	8	..........a	0	-327.74
	7840	15.682	-4.84469E-001	-1.02204E-004	0.00000E+000	-4.84000E-001	-2.29272E-004	8	..........a	0	-327.74
	7868	15.738	-4.87203E-001	-1.07926E-004	0.00000E+000	-4.86800E-001	-3.76056E-005	8	..........a	0	-327.74
	7896	15.794	-4.90053E-001	-1.13312E-004	0.00000E+000	-4.89600E-001	-2.45939E-004	8	..........a	0	-327.74
	7924	15.85	-4.92873E-001	-1.19478E-004	0.00000E+000	-4.92400E-001	-1.29272E-004	8	..........a	0	-327.74
	7952	15.906	-4.95628E-001	-1.25640E-004	0.00000E+000	-4.95200E-001	-4.59389E-005	8	..........a	0	-327.74
	7980	15.962	-4.98465E-001	-1.31594E-004	0.00000E+000	-4.98000E-001	-2.04272E-004	8	..........a	0	-327.74
	8008	16.018	-5.01219E-001	-1.38927E-004	0.00000E+000	-5.00800E-001	-1.79272E-004	8	..........a	0	-327.74
	8036	16.074	-5.03982E-001	-1.45586E-004	0.00000E+000	-5.03600E-001	2.07278E-005	8	..........a	0	-327.74
	8064	16.13	-5.06848E-001	-1.52936E-004	0.00000E+000	-5.06400E-001	-1.37606E-004	8	..........a	0	-327.74
	8092	16.186	-5.09594E-001	-1.60740E-004	0.00000E+000	-5.09200E-001	-1.04272E-004	8	..........a	0	-327.74
	8120	16.242	-5.12394E-001	-1.68416E-004	0.00000E+000	-5.12000E-001	-2.29272E-004	8	..........a	0	-327.74
	8148	16.298	-5.15136E-001	-1.75752E-004	0.00000E+000	-5.14800E-001	-1.45939E-004	8	..........a	0	-327.74
	8176	16.354	-5.17936E-001	-1.84441E-004	0.00000E+000	-5.17600E-001	-1.70939E-004	8	..........a	0	-327.74
	8204	16.41	-5.20765E-001	-1.92950E-004	0.00000E+000	-5.20400E-001	-1.54272E-004	8	..........a	0	-327.74
	8232	16.466	-5.23565E-001	-2.01678E-004	0.00000E+000	-5.23200E-001	-2.54272E-004	8	..........a	0	-327.74
	8260	16.522	-5.26294E-001	-2.10695E-004	0.00000E+000	-5.26000E-001	-1.12606E-004	8	..........a	0	-327.74
	8288	16.578	-5.29128E-001	-2.19732E-004	0.00000E+000	-5.28800E-001	-1.37606E-004	8	..........a	0	-327.74
	8316	16.634	-5.31869E-001	-2.28285E-004	0.00000E+000	-5.31600E-001	-1.04272E-004	8	..........a	0	-327.74
	8344	16.69	-5.34673E-001	-2.37410E-004	0.00000E+000	-5.34400E-001	-9.59389E-005	8	..........a	0	-327.74
	8372	16.746	-5.37498E-001	-2.45812E-004	0.00000E+000	-5.37200E-001	-1.79272E-004	8	..........a	0	-327.74
	8400	16.802	-5.40194E-001	-2.54461E-004	0.00000E+000	-5.40000E-001	-7.92722E-005	8	..........a	0	-327.74
	8428	16.858	-5.42973E-001	-2.62874E-004	0.00000E+000	-5.42800E-001	-1.45939E-004	8	..........a	0	-327.74
	8456	16.914	-5.45950E-001	-2.72807E-004	0.00000E+000	-5.45600E-001	2.54061E-004	9	..........a	0	-327.74
	8484	16.97	-5.48887E-001	-2.79798E-004	0.00000E+000	-5.48400E-001	5.40611E-005	9	..........a	0	-327.74
	8512	17.026	-5.51579E-001	-2.86538E-004	0.00000E+000	-5.51200E-001	5.40611E-005	9	..........a	0	-327.74
	8540	17.082	-5.54383E-001	-2.93454E-004	0.00000E+000	-5.54000E-001	1.87394E-004	9	..........a	0	-327.74
	8568	17.138	-5.57246E-001	-2.99166E-004	0.00000E+000	-5.56800E-001	1.04061E-004	9	..........a	0	-327.74
	8596	17.194	-5.60004E-001	-3.04172E-004	0.00000E+000	-5.59600E-001	-4.27222E-006	9	..........a	0	-327.74
	8624	17.25	-5.62850E-001	-3.08280E-004	0.00000E+000	-5.62400E-001	1.12394E-004	9	..........a	0	-327.74
	8652	17.306	-5.65554E-001	-3.11994E-004	0.00000E+000	-5.65200E-001	1.20728E-004	9	..........a	0	-327.74
	8680	17.362	-5.68392E-001	-3.14940E-004	0.00000E+000	-5.68000E-001	-5.42722E-005	9	..........a	0	-327.74
	8708	17.418	-5.71242E-001	-3.17276E-004	0.00000E+000	-5.70800E-001	-3.76056E-005	9	..........a	0	-327.74
	8736	17.474	-5.74037E-001	-3.19378E-004	0.00000E+000	-5.73600E-001	9.57278E-005	9	..........a	0	-327.74
	8764	17.53	-5.76771E-001	-3.20185E-004	0.00000E+000	-5.76400E-001	1.12394E-004	9	..........a	0	-327.74
	8792	17.586	-5.79575E-001	-3.21100E-004	0.00000E+000	-5.79200E-001	9.57278E-005	9	..........a	0	-327.74
	8820	17.642	-5.82454E-001	-3.21300E-004	0.00000E+000	-5.82000E-001	4.06111E-006	9	..........a	0	-327.74
	8848	17.698	-5.85225E-001	-3.21643E-004	0.00000E+000	-5.84800E-001	4.06111E-006	9	..........a	0	-327.74
	8876	17.754	-5.88083E-001	-3.21543E-004	0.00000E+000	-5.87600E-001	-2.09389E-005	9	..........a	0	-327.74
	8904	17.81	-5.90821E-001	-3.21192E-004	0.00000E+000	-5.90400E-001	-1.20939E-004	9	..........a	0	-327.74
	8932	17.866	-5.93621E-001	-3.20941E-004	0.00000E+000	-5.93200E-001	7.90611E-005	9	..........a	0	-327.74
	8960	17.922	-5.96429E-001	-3.20845E-004	0.00000E+000	-5.96000E-001	-2.09389E-005	9	..........a	0	-327.74
	8988	17.978	-5.99283E-001	-3.20832E-004	0.00000E+000	-5.98800E-001	-1.26055E-005	9	..........a	0	-327.74
	9016	18.034	-6.02054E-001	-3.21054E-004	0.00000E+000	-6.01600E-001	-1.04272E-004	9	..........a	0	-327.74
	9044	18.09	-6.04825E-001	-3.20920E-004	0.00000E+000	-6.04400E-001	4.57278E-005	9	..........a	0	-327.74
	9072	18.146	-6.07650E-001	-3.20636E-004	0.00000E+000	-6.07200E-001	-8.76056E-005	9	..........a	0	-327.74
	9100	18.202	-6.10408E-001	-3.20502E-004	0.00000E+000	-6.10000E-001	-1.12606E-004	9	..........a	0	-327.74
	9128	18.258	-6.13233E-001	-3.20302E-004	0.00000E+000	-6.12800E-001	-2.92722E-005	9	..........a	0	-327.74
	9156	18.314	-6.15975E-001	-3.20406E-004	0.00000E+000	-6.15600E-001	1.45728E-004	9	..........a	0	-327.74
	9184	18.37	-6.18775E-001	-3.20130E-004	0.00000E+000	-6.18400E-001	-5.42722E-005	9	..........a	0	-327.74
	9212	18.426	-6.21579E-001	-3.20114E-004	0.00000E+000	-6.21200E-001	-5.42722E-005	9	..........a	0	-327.74
	9240	18.482	-6.24412E-001	-3.20068E-004	0.00000E+000	-6.24000E-001	-7.09389E-005	9	..........a	0	-327.74
	9268	18.538	-6.27204E-001	-3.20552E-004	0.00000E+000	-6.26800E-001	1.29061E-004	9	..........a	0	-327.74
	9296	18.594	-6.30004E-001	-3.20745E-004	0.00000E+000	-6.29600E-001	-3.76056E-005	9	..........a	0	-327.74
	9324	18.65	-6.32775E-001	-3.21162E-004	0.00000E+000	-6.32400E-001	-4.27222E-006	9	..........a	0	-327.74
	9352	18.706	-6.35596E-001	-3.21204E-004	0.00000E+000	-6.35200E-001	-2.09389E-005	9	..........a	0	-327.74
	9380	18.762	-6.38458E-001	-3.21927E-004	0.00000E+000	-6.38000E-001	4.06111E-006	9	..........a	0	-327.74
	9408	18.818	-6.41250E-001	-3.21576E-004	0.00000E+000	-6.40800E-001	-1.04272E-004	9	..........a	0	-327.74
	9436	18.874	-6.43983E-001	-3.21931E-004	0.00000E+000	-6.43600E-001	3.73944E-005	9	..........a	0	-327.74
	9464	18.93	-6.46779E-001	-3.21923E-004	0.00000E+000	-6.46400E-001	7.90611E-005	9	..........a	0	-327.74
	9492	18.986	-6.49587E-001	-3.21819E-004	0.00000E+000	-6.49200E-001	8.73944E-005	9	..........a	0	-327.74
	9520	19.042	-6.52346E-001	-3.22249E-004	0.00000E+000	-6.52000E-001	1.23945E-005	9	..........a	0	-327.74
	9548	19.098	-6.55212E-001	-3.22353E-004	0.00000E+000	-6.54800E-001	2.07278E-005	9	..........a	0	-327.74
	9576	19.154	-6.58008E-001	-3.21936E-004	0.00000E+000	-6.57600E-001	-3.76056E-005	9	..........a	0	-327.74
	9604	19.21	-6.60829E-001	-3.22073E-004	0.00000E+000	-6.60400E-001	-6.26056E-005	9	..........a	0	-327.74
	9632	19.266	-6.63621E-001	-3.22036E-004	0.00000E+000	-6.63200E-001	4.06111E-006	9	..........a	0	-327.74
	9660	19.322	-6.66333E-001	-3.21793E-004	0.00000E+000	-6.66000E-001	5.40611E-005	9	..........a	0	-327.74
	9688	19.378	-6.69154E-001	-3.21635E-004	0.00000E+000	-6.68800E-001	2.90611E-005	9	..........a	0	-327.74
	9716	19.434	-6.71992E-001	-3.21442E-004	0.00000E+000	-6.71600E-001	6.23944E-005	9	..........a	0	-327.74
	9744	19.49	-6.74817E-001	-3.21681E-004	0.00000E+000	-6.74400E-001	-1.37606E-004	9	..........a	0	-327.74
	9772	19.546	-6.77604E-001	-3.21279E-004	0.00000E+000	-6.77200E-001	-1.54272E-004	9	..........a	0	-327.74
	9800	19.602	-6.80383E-001	-3.21731E-004	0.00000E+000	-6.80000E-001	-6.26056E-005	9	..........a	0	-327.74
	9828	19.658	-6.83175E-001	-3.21488E-004	0.00000E+000	-6.82800E-001	5.40611E-005	9	..........a	0	-327.74
	9856	19.714	-6.86004E-001	-3.21346E-004	0.00000E+000	-6.85600E-001	-6.26056E-005	9	..........a	0	-327.74
	9884	19.77	-6.88758E-001	-3.21242E-004	0.00000E+000	-6.88400E-001	2.07278E-005	9	..........a	0	-327.74
	9912	19.826	-6.91587E-001	-3.21087E-004	0.00000E+000	-6.91200E-001	-1.20939E-004	9	..........a	0	-327.74
	9940	19.882	-6.94392E-001	-3.20352E-004	0.00000E+000	-6.94000E-001	-5.42722E-005	9	..........a	0	-327.74
	9968	19.938	-6.97158E-001	-3.19717E-004	0.00000E+000	-6.96800E-001	9.57278E-005	9	..........a	0	-327.74
	9996	19.994	-6.99975E-001	-3.18768E-004	0.00000E+000	-6.99600E-001	1.37394E-004	9	..........a	0	-327.74
	10024	20.05	-7.02779E-001	-3.18568E-004	0.00000E+000	-7.02400E-001	-9.59389E-005	9	..........a	0	-327.74
	10052	20.106	-7.05558E-001	-3.18797E-004	0.00000E+000	-7.05200E-001	2.07278E-005	9	..........a	0	-327.74
	10080	20.162	-7.08358E-001	-3.18317E-004	0.00000E+000	-7.08000E-001	4.57278E-005	9	..........a	0	-327.74
	10108	20.218	-7.11171E-001	-3.18722E-004	0.00000E+000	-7.10800E-001	-8.76056E-005	9	..........a	0	-327.74
	10136	20.274	-7.13992E-001	-3.18701E-004	0.00000E+000	-7.13600E-001	2.04061E-004	9	..........a	0	-327.74
	10164	20.33	-7.16767E-001	-3.19115E-004	0.00000E+000	-7.16400E-001	-7.09389E-005	9	..........a	0	-327.74
	10192	20.386	-7.19529E-001	-3.19090E-004	0.00000E+000	-7.19200E-001	-2.92722E-005	9	..........a	0	-327.74
	10220	20.442	-7.22346E-001	-3.19696E-004	0.00000E+000	-7.22000E-001	2.90611E-005	9	..........a	0	-327.74
	10248	20.498	-7.25146E-001	-3.20260E-004	0.00000E+000	-7.24800E-001	6.23944E-005	9	..........a	0	-327.74
	10276	20.554	-7.28050E-001	-3.20490E-004	0.00000E+000	-7.27600E-001	-9.59389E-005	9	..........a	0	-327.74
	10304	20.61	-7.30779E-001	-3.20778E-004	0.00000E+000	-7.30400E-001	1.20728E-004	9	..........a	0	-327.74
	10332	20.666	-7.33562E-001	-3.20862E-004	0.00000E+000	-7.33200E-001	-4.59389E-005	9	..........a	0	-327.74
	10360	20.722	-7.36350E-001	-3.21071E-004	0.00000E+000	-7.36000E-001	1.62394E-004	9	..........a	0	-327.74
	10388	20.778	-7.39175E-001	-3.21150E-004	0.00000E+000	-7.38800E-001	5.40611E-005	9	..........a	0	-327.74
	10416	20.834	-7.41996E-001	-3.21125E-004	0.00000E+000	-7.41600E-001	7.90611E-005	9	..........a	0	-327.74
	10444	20.89	-7.44771E-001	-3.21300E-004	0.00000E+000	-7.44400E-001	-3.76056E-005	9	..........a	0	-327.74
	10472	20.946	-7.47562E-001	-3.21839E-004	0.00000E+000	-7.47200E-001	-3.76056E-005	9	..........a	0	-327.74
	10500	21.002	-7.50367E-001	-3.21781E-004	0.00000E+000	-7.50000E-001	1.23945E-005	9	..........a	0	-327.74
	10528	21.058	-7.53187E-001	-3.21547E-004	0.00000E+000	-7.52800E-001	7.90611E-005	9	..........a	0	-327.74
	10556	21.114	-7.55908E-001	-3.21363E-004	0.00000E+000	-7.55600E-001	1.79061E-004	9	..........a	0	-327.74
	10584	21.17	-7.58783E-001	-3.20557E-004	0.00000E+000	-7.58400E-001	-2.12606E-004	9	..........a	0	-327.74
	10612	21.226	-7.61604E-001	-3.19683E-004	0.00000E+000	-7.61200E-001	-1.62606E-004	9	..........a	0	-327.74
	10640	21.282	-7.64379E-001	-3.19784E-004	0.00000E+000	-7.64000E-001	-1.20939E-004	9	..........a	0	-327.74
	10668	21.338	-7.67171E-001	-3.19006E-004	0.00000E+000	-7.66800E-001	-4.27222E-006	9	..........a	0	-327.74
	10696	21.394	-7.69933E-001	-3.19173E-004	0.00000E+000	-7.69600E-001	-1.37606E-004	9	..........a	0	-327.74
	10724	21.45	-7.72758E-001	-3.19019E-004	0.00000E+000	-7.72400E-001	-1.26055E-005	9	..........a	0	-327.74
	10752	21.506	-7.75583E-001	-3.18392E-004	0.00000E+000	-7.75200E-001	-1.12606E-004	9	..........a	0	-327.74
	10780	21.562	-7.78358E-001	-3.18701E-004	0.00000E+000	-7.78000E-001	-1.45939E-004	9	..........a	0	-327.74
	10808	21.618	-7.81158E-001	-3.19341E-004	0.00000E+000	-7.80800E-001	-7.09389E-005	9	..........a	0	-327.74
	10836	21.674	-7.83992E-001	-3.19529E-004	0.00000E+000	-7.83600E-001	-1.79272E-004	9	..........a	0	-327.74
	10864	21.73	-7.86779E-001	-3.19575E-004	0.00000E+000	-7.86400E-001	-7.92722E-005	9	..........a	0	-327.74
	10892	21.786	-7.89504E-001	-3.19733E-004	0.00000E+000	-7.89200E-001	-1.12606E-004	9	..........a	0	-327.74
	10920	21.842	-7.92358E-001	-3.19859E-004	0.00000E+000	-7.92000E-001	-1.79272E-004	9	..........a	0	-327.74
	10948	21.898	-7.95187E-001	-3.20197E-004	0.00000E+000	-7.94800E-001	2.90611E-005	9	..........a	0	-327.74
	10976	21.954	-7.97929E-001	-3.20448E-004	0.00000E+000	-7.97600E-001	-7.92722E-005	9	..........a	0	-327.74
	11004	22.01	-8.00758E-001	-3.20026E-004	0.00000E+000	-8.00400E-001	-2.20939E-004	9	..........a	0	-327.74
	11032	22.066	-8.03487E-001	-3.20147E-004	0.00000E+000	-8.03200E-001	1.12394E-004	9	..........a	0	-327.74
	11060	22.122	-8.06329E-001	-3.20268E-004	0.00000E+000	-8.06000E-001	-8.76056E-005	9	..........a	0	-327.74
	11088	22.178	-8.09142E-001	-3.20674E-004	0.00000E+000	-8.08800E-001	-1.26055E-005	9	..........a	0	-327.74
	11116	22.234	-8.11912E-001	-3.20732E-004	0.00000E+000	-8.11600E-001	7.90611E-005	9	..........a	0	-327.74
	11144	22.29	-8.14758E-001	-3.21108E-004	0.00000E+000	-8.14400E-001	-1.20939E-004	9	..........a	0	-327.74
	11172	22.346	-8.17537E-001	-3.21096E-004	0.00000E+000	-8.17200E-001	1.23945E-005	9	..........a	0	-327.74
	11200	22.402	-8.20304E-001	-3.21192E-004	0.00000E+000	-8.20000E-001	4.06111E-006	9	..........a	0	-327.74
	11228	22.458	-8.23012E-001	-3.21685E-004	0.00000E+000	-8.22800E-001	4.57278E-005	9	..........a	0	-327.74
	11256	22.514	-8.25900E-001	-3.21739E-004	0.00000E+000	-8.25600E-001	1.62394E-004	9	..........a	0	-327.74
	11284	22.57	-8.28729E-001	-3.21806E-004	0.00000E+000	-8.28400E-001	-9.59389E-005	9	..........a	0	-327.74
	11312	22.626	-8.31437E-001	-3.21656E-004	0.00000E+000	-8.31200E-001	5.40611E-005	9	..........a	0	-327.74
	11340	22.682	-8.34237E-001	-3.21827E-004	0.00000E+000	-8.34000E-001	-1.12606E-004	9	..........a	0	-327.74
	11368	22.738	-8.37021E-001	-3.21451E-004	0.00000E+000	-8.36800E-001	-7.92722E-005	9	..........a	0	-327.74
	11396	22.794	-8.39892E-001	-3.21225E-004	0.00000E+000	-8.39600E-001	-2.92722E-005	9	..........a	0	-327.74
	11424	22.85	-8.42683E-001	-3.21363E-004	0.00000E+000	-8.42400E-001	-7.09389E-005	9	..........a	0	-327.74
	11452	22.906	-8.45517E-001	-3.21497E-004	0.00000E+000	-8.45200E-001	-4.27222E-006	9	..........a	0	-327.74
	11480	22.962	-8.48333E-001	-3.21171E-004	0.00000E+000	-8.48000E-001	-5.42722E-005	9	..........a	0	-327.74
	11508	23.018	-8.51167E-001	-3.20686E-004	0.00000E+000	-8.50800E-001	-1.70939E-004	9	..........a	0	-327.74
	11536	23.074	-8.53929E-001	-3.20970E-004	0.00000E+000	-8.53600E-001	6.23944E-005	9	..........a	0	-327.74
	11564	23.13	-8.56575E-001	-3.20828E-004	0.00000E+000	-8.56400E-001	5.40611E-005	9	..........a	0	-327.74
	11592	23.186	-8.59496E-001	-3.20623E-004	0.00000E+000	-8.59200E-001	-1.20939E-004	9	..........a	0	-327.74
	11620	23.242	-8.62321E-001	-3.20891E-004	0.00000E+000	-8.62000E-001	-2.92722E-005	9	..........a	0	-327.74
	11648	23.298	-8.65112E-001	-3.20807E-004	0.00000E+000	-8.64800E-001	1.23945E-005	9	..........a	0	-327.74
	11676	23.354	-8.67875E-001	-3.20511E-004	0.00000E+000	-8.67600E-001	-1.20939E-004	9	..........a	0	-327.74
	11704	23.41	-8.70671E-001	-3.20590E-004	0.00000E+000	-8.70400E-001	-8.76056E-005	9	..........a	0	-327.74
	11732	23.466	-8.73492E-001	-3.20615E-004	0.00000E+000	-8.73200E-001	-1.26055E-005	9	..........a	0	-327.74
	11760	23.522	-8.76300E-001	-3.20690E-004	0.00000E+000	-8.76000E-001	4.06111E-006	9	..........a	0	-327.74
	11788	23.578	-8.79004E-001	-3.21037E-004	0.00000E+000	-8.78800E-001	4.57278E-005	9	..........a	0	-327.74
	11816	23.634	-8.81833E-001	-3.20586E-004	0.00000E+000	-8.81600E-001	-5.42722E-005	9	..........a	0	-327.74
	11844	23.69	-8.84692E-001	-3.20389E-004	0.00000E+000	-8.84400E-001	-3.76056E-005	9	..........a	0	-327.74
	11872	23.746	-8.87458E-001	-3.20373E-004	0.00000E+000	-8.87200E-001	-4.27222E-006	9	..........a	0	-327.74
	11900	23.802	-8.90237E-001	-3.20160E-004	0.00000E+000	-8.90000E-001	-8.76056E-005	9	..........a	0	-327.74
	11928	23.858	-8.93108E-001	-3.20222E-004	0.00000E+000	-8.92800E-001	-2.09389E-005	9	..........a	0	-327.74
	11956	23.914	-8.95879E-001	-3.20272E-004	0.00000E+000	-8.95600E-001	1.54061E-004	9	..........a	0	-327.74
	11984	23.97	-8.98692E-001	-3.19692E-004	0.00000E+000	-8.98400E-001	-1.04272E-004	9	..........a	0	-327.74
	12012	24.026	-9.01454E-001	-3.19445E-004	0.00000E+000	-9.01200E-001	-3.76056E-005	9	..........a	0	-327.74
	12040	24.082	-9.04283E-001	-3.19182E-004	0.00000E+000	-9.04000E-001	5.40611E-005	9	..........a	0	-327.74
	12068	24.138	-9.07092E-001	-3.18822E-004	0.00000E+000	-9.06800E-001	1.29061E-004	9	..........a	0	-327.74
	12096	24.194	-9.09862E-001	-3.18789E-004	0.00000E+000	-9.09600E-001	1.23945E-005	9	..........a	0	-327.74
	12124	24.25	-9.12608E-001	-3.19591E-004	0.00000E+000	-9.12400E-001	2.07278E-005	9	..........a	0	-327.74
	12152	24.306	-9.15504E-001	-3.19859E-004	0.00000E+000	-9.15200E-001	3.73944E-005	9	..........a	0	-327.74
	12180	24.362	-9.18317E-001	-3.20285E-004	0.00000E+000	-9.18000E-001	2.07278E-005	9	..........a	0	-327.74
	12208	24.418	-9.21100E-001	-3.20352E-004	0.00000E+000	-9.20800E-001	-6.26056E-005	9	..........a	0	-327.74
	12236	24.474	-9.23775E-001	-3.21229E-004	0.00000E+000	-9.23600E-001	7.07278E-005	9	..........a	0	-327.74
	12264	24.53	-9.26692E-001	-3.20193E-004	0.00000E+000	-9.26400E-001	-1.62606E-004	9	..........a	0	-327.74
	12292	24.586	-9.29479E-001	-3.20348E-004	0.00000E+000	-9.29200E-001	1.12394E-004	9	..........a	0	-327.74
	12320	24.642	-9.32371E-001	-3.19692E-004	0.00000E+000	-9.32000E-001	-2.37606E-004	9	..........a	0	-327.74
	12348	24.698	-9.35021E-001	-3.19784E-004	0.00000E+000	-9.34800E-001	-1.45939E-004	9	..........a	0	-327.74
	12376	24.754	-9.37887E-001	-3.19478E-004	0.00000E+000	-9.37600E-001	-5.42722E-005	9	..........a	0	-327.74
	12404	24.81	-9.40637E-001	-3.19474E-004	0.00000E+000	-9.40400E-001	8.73944E-005	9	..........a	0	-327.74
	12432	24.866	-9.43500E-001	-3.19625E-004	0.00000E+000	-9.43200E-001	-2.20939E-004	9	..........a	0	-327.74
	12460	24.922	-9.46254E-001	-3.20456E-004	0.00000E+000	-9.46000E-001	-6.26056E-005	9	..........a	0	-327.74
	12488	24.978	-9.49087E-001	-3.20803E-004	0.00000E+000	-9.48800E-001	-2.04272E-004	9	..........a	0	-327.74
	12516	25.034	-9.51875E-001	-3.21543E-004	0.00000E+000	-9.51600E-001	-9.59389E-005	9	..........a	0	-327.74
	12544	25.09	-9.54683E-001	-3.21484E-004	0.00000E+000	-9.54400E-001	-1.12606E-004	9	..........a	0	-327.74
	12572	25.146	-9.57525E-001	-3.21706E-004	0.00000E+000	-9.57200E-001	-3.54272E-004	9	..........a	0	-327.74
	12600	25.202	-9.60254E-001	-3.21998E-004	0.00000E+000	-9.60000E-001	-4.59389E-005	9	..........a	0	-327.74
	12628	25.258	-9.63017E-001	-3.21576E-004	0.00000E+000	-9.62800E-001	1.04061E-004	9	..........a	0	-327.74
	12656	25.314	-9.65850E-001	-3.21192E-004	0.00000E+000	-9.65600E-001	-7.92722E-005	9	..........a	0	-327.74
	12684	25.37	-9.68667E-001	-3.21392E-004	0.00000E+000	-9.68400E-001	-1.79272E-004	9	..........a	0	-327.74
	12712	25.426	-9.71475E-001	-3.20745E-004	0.00000E+000	-9.71200E-001	-7.09389E-005	9	..........a	0	-327.74
	12740	25.482	-9.74212E-001	-3.20356E-004	0.00000E+000	-9.74000E-001	-5.42722E-005	9	..........a	0	-327.74
	12768	25.538	-9.77037E-001	-3.20139E-004	0.00000E+000	-9.76800E-001	8.73944E-005	9	..........a	0	-327.74
	12796	25.594	-9.79796E-001	-3.20164E-004	0.00000E+000	-9.79600E-001	1.20728E-004	9	..........a	0	-327.74
	12824	25.65	-9.82637E-001	-3.19955E-004	0.00000E+000	-9.82400E-001	7.07278E-005	9	..........a	0	-327.74
	12852	25.706	-9.85458E-001	-3.19926E-004	0.00000E+000	-9.85200E-001	-1.12606E-004	9	..........a	0	-327.74
	12880	25.762	-9.88279E-001	-3.19529E-004	0.00000E+000	-9.88000E-001	-5.42722E-005	9	..........a	0	-327.74
	12908	25.818	-9.91042E-001	-3.19829E-004	0.00000E+000	-9.90800E-001	-3.76056E-005	9	..........a	0	-327.74
	12936	25.874	-9.93837E-001	-3.19357E-004	0.00000E+000	-9.93600E-001	-3.76056E-005	9	..........a	0	-327.74
	12964	25.93	-9.96683E-001	-3.19817E-004	0.00000E+000	-9.96400E-001	-8.76056E-005	9	..........a	0	-327.74
	12992	25.986	-9.99387E-001	-3.19921E-004	0.00000E+000	-9.99200E-001	9.57278E-005	9	..........a	0	-327.74
	13000	26.002	-1.00027E+000	-3.20176E-004	0.00000E+000	-1.00000E+000	-2.09389E-005	9	..........a	0	-327.74