File: data/02-SI/Figures_S9_S11_RDE/14btmapaq-rde/1mkcl--5mmolar14btmapaq-nitrogen-rde-600-50mvpers.DTA
EXPLAIN
TAG	LSV
TITLE	LABEL	Linear Sweep Voltammetry	Test &Identifier
DATE	LABEL	1/31/2023	Date
TIME	LABEL	13:10:01	Time
NOTES	NOTES	1	&Notes...

PSTAT	PSTAT	REF3000-21108	Potentiostat
VINIT	POTEN	3.00000E-001	F	&Initial E (V)
VFINAL	POTEN	-1.00000E+000	F	&Final E (V)
SCANRATE	QUANT	4.99999E+001	&Scan Rate (mV/s)
STEPSIZE	QUANT	1.00000E-001	St&ep Size (mV)
IMODE	SELECTOR	0	I/E Range &Mode
IRANGE	QUANT	1.00000E+002	&Max Current (mA)
AREA	QUANT	1.00000E+000	Electrode &Area (cm^2)
ELECTRODETYPE	SELECTOR	0	Electrode Type
STRIPPING	TOGGLE	F	Used for Stripping
POLARITY	TOGGLE	F	Signal Polarity
CONDIT	TWOPARAM	F	1.50000E+001	0.00000E+000	Conditionin&g	Time(s)	E(V)
DELAY	TWOPARAM	F	3.00000E+001	0.00000E+000	Init. De&lay	Time(s)	Stab.(mV/s)
EQDELAY	QUANT	0.00000E+000	Equil. &Time (s)
IRCOMP	SELECTOR	0	IRCom&p
PFCOR	QUANT	5.00000E+001	PF Corr. (ohm)
SAMPLINGMODE	SELECTOR	1	Sampling &Mode
EOC	QUANT	0	Open Circuit (V)
PSTATMODEL	IQUANT	5	Pstat Model
PSTATSECTION	LABEL	REF3000-21108	Pstat Section
PSTATSERIALNO	LABEL	21108	Pstat Serial Number
CTRLMODE	IQUANT	1	Control Mode
ELECTROMETER	IQUANT	0	RE=0 or CS=1
IESTAB	IQUANT	2	I/E Stability
CASPEED	IQUANT	4	Control Amp Speed
CONVENTION	IQUANT	1	Current Convention
ICHRANGE	IQUANT	2	Ich Range
ICHRANGEMODE	TOGGLE	F	Ich Auto Range
ICHOFFSETENABLE	TOGGLE	F	Ich Offset Enable
ICHOFFSET	QUANT	0	Ich Offset (V)
ICHFILTER	IQUANT	2	Ich Filter
VCHRANGE	IQUANT	2	Vch Range
VCHRANGEMODE	TOGGLE	T	Vch Auto Range
VCHOFFSETENABLE	TOGGLE	F	Vch Offset Enable
VCHOFFSET	QUANT	0	Vch Offset (V)
VCHFILTER	IQUANT	2	Vch Filter
ACHRANGE	IQUANT	2	Ach Range
ACHOFFSETENABLE	TOGGLE	F	Ach Offset Enable
ACHOFFSET	QUANT	0	Ach Offset (V)
ACHFILTER	IQUANT	0	Ach Filter
IERANGELOWERLIMIT	IQUANT	2	I/E Range Lower Limit
IERANGEMODE	TOGGLE	T	I/E AutoRange
IERANGE	IQUANT	11	I/E Range
POSFEEDENABLE	TOGGLE	F	Positive Feedback IR Comp
POSFEEDRESISTANCE	QUANT	0	Positive Feedback Resistance (ohm)
ACHSELECT	IQUANT	0	Ach Select
SENSECABLEID	IQUANT	14	Sense Cable ID
PWRCABLEID	IQUANT	7	Power Cable ID
DCCALDATE	LABEL	11/9/2022	DC Calibration Date
ACCALDATE	LABEL	11/9/2022	AC Calibration Date
THERMOSELECT	IQUANT	1	Thermo Select
FRAMEWORKVERSION	LABEL	7.8.2	Framework Version
INSTRUMENTVERSION	LABEL	4.40	Instrument Version
COMPLIANCEVOLTAGE	IQUANT	0	Compliance Voltage
CURVE	TABLE	13001
	Pt	T	Vf	Im	Vu	Sig	Ach	IERange	Over	Cycle	Temp
	#	s	V vs. Ref.	A	V	V	V	#	bits	#	deg C
	0	0.002	2.99763E-001	-3.21237E-005	0.00000E+000	3.00000E-001	-8.62605E-004	11	..........a	0	-327.74
	28	0.058	2.96072E-001	1.21268E-005	0.00000E+000	2.97200E-001	-9.29272E-004	8	..........a	0	-327.74
	56	0.114	2.93310E-001	8.06965E-006	0.00000E+000	2.94400E-001	-8.87605E-004	8	..........a	0	-327.74
	84	0.17	2.90456E-001	6.46894E-006	0.00000E+000	2.91600E-001	-9.12605E-004	8	..........a	0	-327.74
	112	0.226	2.87747E-001	5.07739E-006	0.00000E+000	2.88800E-001	-9.20939E-004	8	..........a	0	-327.74
	140	0.282	2.84847E-001	4.47368E-006	0.00000E+000	2.86000E-001	-8.95939E-004	8	..........a	0	-327.74
	168	0.338	2.82193E-001	4.61701E-006	0.00000E+000	2.83200E-001	-9.37606E-004	8	..........a	0	-327.74
	196	0.394	2.79402E-001	3.79457E-006	0.00000E+000	2.80400E-001	-9.37606E-004	8	..........a	0	-327.74
	224	0.45	2.76614E-001	3.05213E-006	0.00000E+000	2.77600E-001	-9.29272E-004	8	..........a	0	-327.74
	252	0.506	2.73597E-001	3.42543E-006	0.00000E+000	2.74800E-001	-9.62605E-004	8	..........a	0	-327.74
	280	0.562	2.71072E-001	3.23920E-006	0.00000E+000	2.72000E-001	-9.45939E-004	8	..........a	0	-327.74
	308	0.618	2.68072E-001	2.96922E-006	0.00000E+000	2.69200E-001	-8.87605E-004	8	..........a	0	-327.74
	336	0.674	2.65356E-001	2.69883E-006	0.00000E+000	2.66400E-001	-8.79272E-004	8	..........a	0	-327.74
	364	0.73	2.62460E-001	2.66716E-006	0.00000E+000	2.63600E-001	-9.04272E-004	8	..........a	0	-327.74
	392	0.786	2.59797E-001	2.48384E-006	0.00000E+000	2.60800E-001	-9.54272E-004	8	..........a	0	-327.74
	420	0.842	2.56877E-001	2.40593E-006	0.00000E+000	2.58000E-001	-9.04272E-004	8	..........a	0	-327.74
	448	0.898	2.54247E-001	2.23886E-006	0.00000E+000	2.55200E-001	-9.95939E-004	8	..........a	0	-327.74
	476	0.954	2.51293E-001	2.30344E-006	0.00000E+000	2.52400E-001	-9.20939E-004	8	..........a	0	-327.74
	504	1.01	2.48656E-001	2.03221E-006	0.00000E+000	2.49600E-001	-9.29272E-004	8	..........a	0	-327.74
	532	1.066	2.45760E-001	2.17720E-006	0.00000E+000	2.46800E-001	-9.45939E-004	8	..........a	0	-327.74
	560	1.122	2.42788E-001	1.84556E-006	0.00000E+000	2.44000E-001	-9.04272E-004	8	......s...a	0	-327.74
	588	1.178	2.39970E-001	1.80098E-006	0.00000E+000	2.41200E-001	-9.62605E-004	8	..........a	0	-327.74
	616	1.234	2.37186E-001	2.08221E-006	0.00000E+000	2.38400E-001	-9.20939E-004	8	..........a	0	-327.74
	644	1.29	2.34409E-001	2.17179E-006	0.00000E+000	2.35600E-001	-9.87605E-004	8	..........a	0	-327.74
	672	1.346	2.31591E-001	1.59850E-006	0.00000E+000	2.32800E-001	-9.79272E-004	8	..........a	0	-327.74
	700	1.402	2.28789E-001	1.67308E-006	0.00000E+000	2.30000E-001	-9.70939E-004	8	..........a	0	-327.74
	728	1.458	2.26005E-001	2.01555E-006	0.00000E+000	2.27200E-001	-9.95939E-004	8	..........a	0	-327.74
	756	1.514	2.23191E-001	1.69891E-006	0.00000E+000	2.24400E-001	-9.45939E-004	8	..........a	0	-327.74
	784	1.57	2.20404E-001	1.52017E-006	0.00000E+000	2.21600E-001	-9.62605E-004	8	..........a	0	-327.74
	812	1.626	2.17618E-001	1.83973E-006	0.00000E+000	2.18800E-001	-9.62605E-004	8	..........a	0	-327.74
	840	1.682	2.14804E-001	1.61266E-006	0.00000E+000	2.16000E-001	-8.79272E-004	8	..........a	0	-327.74
	868	1.738	2.12002E-001	1.48642E-006	0.00000E+000	2.13200E-001	-9.20939E-004	8	..........a	0	-327.74
	896	1.794	2.09213E-001	1.19936E-006	0.00000E+000	2.10400E-001	-9.54272E-004	8	..........a	0	-327.74
	924	1.85	2.06413E-001	1.56017E-006	0.00000E+000	2.07600E-001	-9.37606E-004	8	..........a	0	-327.74
	952	1.906	2.03617E-001	1.76557E-006	0.00000E+000	2.04800E-001	-8.45939E-004	8	..........a	0	-327.74
	980	1.962	2.00814E-001	1.68932E-006	0.00000E+000	2.02000E-001	-8.79272E-004	8	..........a	0	-327.74
	1008	2.018	1.98005E-001	1.32935E-006	0.00000E+000	1.99200E-001	-9.54272E-004	8	..........a	0	-327.74
	1036	2.074	1.95208E-001	1.57975E-006	0.00000E+000	1.96400E-001	-9.79272E-004	8	..........a	0	-327.74
	1064	2.13	1.92402E-001	8.54391E-007	0.00000E+000	1.93600E-001	-9.45939E-004	8	..........a	0	-327.74
	1092	2.186	1.89618E-001	1.11604E-006	0.00000E+000	1.90800E-001	-8.79272E-004	8	..........a	0	-327.74
	1120	2.242	1.86806E-001	9.47717E-007	0.00000E+000	1.88000E-001	-9.62605E-004	8	..........a	0	-327.74
	1148	2.298	1.84026E-001	1.03313E-006	0.00000E+000	1.85200E-001	-9.37606E-004	8	..........a	0	-327.74
	1176	2.354	1.81223E-001	9.10220E-007	0.00000E+000	1.82400E-001	-9.29272E-004	8	..........a	0	-327.74
	1204	2.41	1.78420E-001	7.92313E-007	0.00000E+000	1.79600E-001	-9.29272E-004	8	..........a	0	-327.74
	1232	2.466	1.75627E-001	8.81472E-007	0.00000E+000	1.76800E-001	-9.37606E-004	8	..........a	0	-327.74
	1260	2.522	1.72824E-001	9.62716E-007	0.00000E+000	1.74000E-001	-9.37606E-004	8	..........a	0	-327.74
	1288	2.578	1.70023E-001	1.05146E-006	0.00000E+000	1.71200E-001	-9.54272E-004	8	..........a	0	-327.74
	1316	2.634	1.67223E-001	8.74390E-007	0.00000E+000	1.68400E-001	-9.29272E-004	8	..........a	0	-327.74
	1344	2.69	1.64425E-001	6.29409E-007	0.00000E+000	1.65600E-001	-9.12605E-004	8	..........a	0	-327.74
	1372	2.746	1.61623E-001	8.91472E-007	0.00000E+000	1.62800E-001	-9.54272E-004	8	..........a	0	-327.74
	1400	2.802	1.58813E-001	4.34008E-007	0.00000E+000	1.60000E-001	-9.70939E-004	8	..........a	0	-327.74
	1428	2.858	1.56025E-001	4.37758E-007	0.00000E+000	1.57200E-001	-9.20939E-004	8	..........a	0	-327.74
	1456	2.914	1.53231E-001	7.45650E-007	0.00000E+000	1.54400E-001	-9.12605E-004	8	..........a	0	-327.74
	1484	2.97	1.50422E-001	4.71089E-007	0.00000E+000	1.51600E-001	-9.70939E-004	8	..........a	0	-327.74
	1512	3.026	1.47629E-001	4.77338E-007	0.00000E+000	1.48800E-001	-9.12605E-004	8	..........a	0	-327.74
	1540	3.082	1.44826E-001	5.14835E-007	0.00000E+000	1.46000E-001	-8.87605E-004	8	..........a	0	-327.74
	1568	3.138	1.42011E-001	1.14867E-007	0.00000E+000	1.43200E-001	-9.29272E-004	8	..........a	0	-327.74
	1596	3.194	1.39236E-001	4.48174E-007	0.00000E+000	1.40400E-001	-8.79272E-004	8	..........a	0	-327.74
	1624	3.25	1.36416E-001	3.66930E-007	0.00000E+000	1.37600E-001	-9.20939E-004	8	..........a	0	-327.74
	1652	3.306	1.33629E-001	2.74855E-007	0.00000E+000	1.34800E-001	-9.12605E-004	8	..........a	0	-327.74
	1680	3.362	1.30844E-001	2.81937E-007	0.00000E+000	1.32000E-001	-9.04272E-004	8	..........a	0	-327.74
	1708	3.418	1.28032E-001	3.19851E-007	0.00000E+000	1.29200E-001	-9.12605E-004	8	..........a	0	-327.74
	1736	3.474	1.25249E-001	4.35258E-007	0.00000E+000	1.26400E-001	-9.20939E-004	8	..........a	0	-327.74
	1764	3.53	1.22440E-001	3.18184E-007	0.00000E+000	1.23600E-001	-9.54272E-004	8	..........a	0	-327.74
	1792	3.586	1.19652E-001	1.46531E-007	0.00000E+000	1.20800E-001	-9.20939E-004	8	..........a	0	-327.74
	1820	3.642	1.16850E-001	3.54431E-007	0.00000E+000	1.18000E-001	-9.70939E-004	8	..........a	0	-327.74
	1848	3.698	1.14074E-001	4.39841E-007	0.00000E+000	1.15200E-001	-9.45939E-004	8	..........a	0	-327.74
	1876	3.754	1.11249E-001	3.67764E-007	0.00000E+000	1.12400E-001	-8.95939E-004	8	..........a	0	-327.74
	1904	3.81	1.08451E-001	2.33191E-007	0.00000E+000	1.09600E-001	-9.87605E-004	8	..........a	0	-327.74
	1932	3.866	1.05668E-001	3.84429E-007	0.00000E+000	1.06800E-001	-9.54272E-004	8	..........a	0	-327.74
	1960	3.922	1.02865E-001	-1.50945E-007	0.00000E+000	1.04000E-001	-9.87605E-004	8	..........a	0	-327.74
	1988	3.978	1.00075E-001	-2.85934E-007	0.00000E+000	1.01200E-001	-9.20939E-004	8	..........a	0	-327.74
	2016	4.034	9.72772E-002	4.98170E-007	0.00000E+000	9.84000E-002	-9.04272E-004	8	..........a	0	-327.74
	2044	4.09	9.44468E-002	-4.84529E-008	0.00000E+000	9.56000E-002	-9.79272E-004	8	..........a	0	-327.74
	2072	4.146	9.16789E-002	1.61947E-007	0.00000E+000	9.28000E-002	-9.54272E-004	8	..........a	0	-327.74
	2100	4.202	8.88681E-002	7.82036E-008	0.00000E+000	9.00000E-002	-9.87605E-004	8	..........a	0	-327.74
	2128	4.258	8.60814E-002	4.21926E-007	0.00000E+000	8.72000E-002	-9.79272E-004	8	..........a	0	-327.74
	2156	4.314	8.32797E-002	1.77918E-008	0.00000E+000	8.44000E-002	-9.54272E-004	8	..........a	0	-327.74
	2184	4.37	8.04747E-002	-2.36354E-007	0.00000E+000	8.16000E-002	-9.45939E-004	8	..........a	0	-327.74
	2212	4.426	7.76781E-002	-2.88711E-008	0.00000E+000	7.88000E-002	-9.29272E-004	8	..........a	0	-327.74
	2240	4.482	7.48760E-002	-1.32196E-007	0.00000E+000	7.60000E-002	-9.70939E-004	8	..........a	0	-327.74
	2268	4.538	7.20922E-002	-1.09559E-008	0.00000E+000	7.32000E-002	-9.12605E-004	8	..........a	0	-327.74
	2296	4.594	6.92801E-002	2.77771E-007	0.00000E+000	7.04000E-002	-9.29272E-004	8	..........a	0	-327.74
	2324	4.65	6.64893E-002	-2.59686E-007	0.00000E+000	6.76000E-002	-9.29272E-004	8	..........a	0	-327.74
	2352	4.706	6.36856E-002	-4.16757E-007	0.00000E+000	6.48000E-002	-8.79272E-004	8	..........a	0	-327.74
	2380	4.762	6.08901E-002	-4.18006E-007	0.00000E+000	6.20000E-002	-9.20939E-004	8	..........a	0	-327.74
	2408	4.818	5.80872E-002	-1.67887E-008	0.00000E+000	5.92000E-002	-9.95939E-004	8	..........a	0	-327.74
	2436	4.874	5.52968E-002	-1.85109E-007	0.00000E+000	5.64000E-002	-9.12605E-004	8	..........a	0	-327.74
	2464	4.93	5.24926E-002	-1.34696E-007	0.00000E+000	5.36000E-002	-9.54272E-004	8	..........a	0	-327.74
	2492	4.986	4.96743E-002	-3.36763E-007	0.00000E+000	5.08000E-002	-9.62605E-004	8	..........a	0	-327.74
	2520	5.042	4.68901E-002	-2.80934E-007	0.00000E+000	4.80000E-002	-9.70939E-004	8	..........a	0	-327.74
	2548	5.098	4.40893E-002	-4.91751E-007	0.00000E+000	4.52000E-002	-9.04272E-004	8	..........a	0	-327.74
	2576	5.154	4.12860E-002	2.07083E-008	0.00000E+000	4.24000E-002	-9.20939E-004	8	..........a	0	-327.74
	2604	5.21	3.84847E-002	-3.01766E-007	0.00000E+000	3.96000E-002	-9.79272E-004	8	..........a	0	-327.74
	2632	5.266	3.56964E-002	-3.12598E-007	0.00000E+000	3.68000E-002	-9.29272E-004	8	..........a	0	-327.74
	2660	5.322	3.28985E-002	-3.85926E-007	0.00000E+000	3.40000E-002	-9.04272E-004	8	..........a	0	-327.74
	2688	5.378	3.00935E-002	-2.81767E-007	0.00000E+000	3.12000E-002	-9.04272E-004	8	..........a	0	-327.74
	2716	5.434	2.73039E-002	-3.31763E-007	0.00000E+000	2.84000E-002	-9.29272E-004	8	..........a	0	-327.74
	2744	5.49	2.44947E-002	-3.13015E-007	0.00000E+000	2.56000E-002	-9.20939E-004	8	..........a	0	-327.74
	2772	5.546	2.16714E-002	-2.02607E-007	0.00000E+000	2.28000E-002	-8.87605E-004	8	..........a	0	-327.74
	2800	5.602	1.88892E-002	-2.42187E-007	0.00000E+000	2.00000E-002	-9.04272E-004	8	..........a	0	-327.74
	2828	5.658	1.60731E-002	-3.53012E-007	0.00000E+000	1.72000E-002	-8.87605E-004	8	..........a	0	-327.74
	2856	5.714	1.32925E-002	-2.33021E-007	0.00000E+000	1.44000E-002	-9.12605E-004	8	..........a	0	-327.74
	2884	5.77	1.04938E-002	-2.23022E-007	0.00000E+000	1.16000E-002	-8.87605E-004	8	..........a	0	-327.74
	2912	5.826	7.68001E-003	-4.31339E-007	0.00000E+000	8.79997E-003	-9.12605E-004	8	..........a	0	-327.74
	2940	5.882	4.90472E-003	-1.92608E-007	0.00000E+000	5.99995E-003	-9.12605E-004	8	..........a	0	-327.74
	2968	5.938	2.09477E-003	-1.93858E-007	0.00000E+000	3.19996E-003	-9.04272E-004	8	..........a	0	-327.74
	2996	5.994	-6.93693E-004	-5.75910E-007	0.00000E+000	3.99977E-004	-9.12605E-004	8	..........a	0	-327.74
	3024	6.05	-3.50378E-003	-4.98417E-007	0.00000E+000	-2.40004E-003	-8.95939E-004	8	..........a	0	-327.74
	3052	6.106	-6.30015E-003	-3.28014E-007	0.00000E+000	-5.20003E-003	-9.62605E-004	8	..........a	0	-327.74
	3080	6.162	-9.09557E-003	-5.29664E-007	0.00000E+000	-8.00005E-003	-8.95939E-004	8	..........a	0	-327.74
	3108	6.218	-1.18969E-002	-7.58812E-007	0.00000E+000	-1.08000E-002	-8.87605E-004	8	..........a	0	-327.74
	3136	6.274	-1.47052E-002	-2.28855E-007	0.00000E+000	-1.36000E-002	-9.20939E-004	8	..........a	0	-327.74
	3164	6.33	-1.75063E-002	-6.81319E-007	0.00000E+000	-1.64000E-002	-8.79272E-004	8	..........a	0	-327.74
	3192	6.386	-2.02908E-002	-4.90501E-007	0.00000E+000	-1.92000E-002	-8.54272E-004	8	..........a	0	-327.74
	3220	6.442	-2.30946E-002	-5.28831E-007	0.00000E+000	-2.20000E-002	-8.95939E-004	8	..........a	0	-327.74
	3248	6.498	-2.58725E-002	-3.62594E-007	0.00000E+000	-2.48000E-002	-8.87605E-004	8	..........a	0	-327.74
	3276	6.554	-2.86853E-002	-7.17149E-007	0.00000E+000	-2.76000E-002	-9.54272E-004	8	..........a	0	-327.74
	3304	6.61	-3.14715E-002	-4.80918E-007	0.00000E+000	-3.04000E-002	-9.04272E-004	8	..........a	0	-327.74
	3332	6.666	-3.42436E-002	-1.71360E-007	0.00000E+000	-3.32000E-002	-8.79272E-004	8	..........a	0	-327.74
	3360	6.722	-3.70599E-002	-4.45921E-007	0.00000E+000	-3.60000E-002	-9.29272E-004	8	..........a	0	-327.74
	3388	6.778	-3.98807E-002	-6.13824E-007	0.00000E+000	-3.88000E-002	-8.54272E-004	8	..........a	0	-327.74
	3416	6.834	-4.26936E-002	-6.47571E-007	0.00000E+000	-4.16000E-002	-9.54272E-004	8	..........a	0	-327.74
	3444	6.89	-4.54794E-002	-2.93850E-007	0.00000E+000	-4.44000E-002	-9.37606E-004	8	..........a	0	-327.74
	3472	6.946	-4.82944E-002	-4.33422E-007	0.00000E+000	-4.72000E-002	-9.12605E-004	8	..........a	0	-327.74
	3500	7.002	-5.10715E-002	-3.65511E-007	0.00000E+000	-5.00000E-002	-9.45939E-004	8	..........a	0	-327.74
	3528	7.058	-5.38540E-002	-4.32172E-007	0.00000E+000	-5.28000E-002	-9.54272E-004	8	..........a	0	-327.74
	3556	7.114	-5.66619E-002	-6.27573E-007	0.00000E+000	-5.56000E-002	-9.45939E-004	8	..........a	0	-327.74
	3584	7.17	-5.94799E-002	-6.13407E-007	0.00000E+000	-5.84000E-002	-9.37606E-004	8	..........a	0	-327.74
	3612	7.226	-6.22703E-002	-7.67978E-007	0.00000E+000	-6.12000E-002	-9.20939E-004	8	..........a	0	-327.74
	3640	7.282	-6.50669E-002	-6.78402E-007	0.00000E+000	-6.40000E-002	-9.20939E-004	8	..........a	0	-327.74
	3668	7.338	-6.78744E-002	-5.15499E-007	0.00000E+000	-6.68000E-002	-9.20939E-004	8	..........a	0	-327.74
	3696	7.394	-7.06736E-002	-5.96326E-007	0.00000E+000	-6.96000E-002	-9.04272E-004	8	..........a	0	-327.74
	3724	7.45	-7.34565E-002	-4.16757E-007	0.00000E+000	-7.24000E-002	-9.54272E-004	8	..........a	0	-327.74
	3752	7.506	-7.62749E-002	-8.01726E-007	0.00000E+000	-7.52000E-002	-9.04272E-004	8	..........a	0	-327.74
	3780	7.562	-7.90469E-002	-5.15082E-007	0.00000E+000	-7.80000E-002	-9.29272E-004	8	..........a	0	-327.74
	3808	7.618	-8.18453E-002	-3.74260E-007	0.00000E+000	-8.08000E-002	-9.87605E-004	8	..........a	0	-327.74
	3836	7.674	-8.46549E-002	-6.08825E-007	0.00000E+000	-8.36000E-002	-9.20939E-004	8	..........a	0	-327.74
	3864	7.73	-8.74411E-002	-3.90925E-007	0.00000E+000	-8.64000E-002	-8.70939E-004	8	..........a	0	-327.74
	3892	7.786	-9.02503E-002	-5.44663E-007	0.00000E+000	-8.92000E-002	-9.54272E-004	8	..........a	0	-327.74
	3920	7.842	-9.30378E-002	-9.03384E-007	0.00000E+000	-9.20000E-002	-9.29272E-004	8	..........a	0	-327.74
	3948	7.898	-9.58282E-002	-6.45072E-007	0.00000E+000	-9.48000E-002	-9.37606E-004	8	..........a	0	-327.74
	3976	7.954	-9.86365E-002	-4.80085E-007	0.00000E+000	-9.76000E-002	-8.20939E-004	8	..........a	0	-327.74
	4004	8.01	-1.01449E-001	-4.94250E-007	0.00000E+000	-1.00400E-001	-9.29272E-004	8	..........a	0	-327.74
	4032	8.066	-1.04247E-001	-6.95901E-007	0.00000E+000	-1.03200E-001	-9.20939E-004	8	..........a	0	-327.74
	4060	8.122	-1.07042E-001	-5.50912E-007	0.00000E+000	-1.06000E-001	-9.45939E-004	8	..........a	0	-327.74
	4088	8.178	-1.09836E-001	-4.05924E-007	0.00000E+000	-1.08800E-001	-9.04272E-004	8	..........a	0	-327.74
	4116	8.234	-1.12645E-001	-1.05879E-006	0.00000E+000	-1.11600E-001	-9.70939E-004	8	..........a	0	-327.74
	4144	8.29	-1.15431E-001	-7.11733E-007	0.00000E+000	-1.14400E-001	-9.79272E-004	8	..........a	0	-327.74
	4172	8.346	-1.18229E-001	-5.10916E-007	0.00000E+000	-1.17200E-001	-9.70939E-004	8	..........a	0	-327.74
	4200	8.402	-1.21025E-001	-7.03817E-007	0.00000E+000	-1.20000E-001	-8.87605E-004	8	..........a	0	-327.74
	4228	8.458	-1.23821E-001	-4.35922E-007	0.00000E+000	-1.22800E-001	-9.62605E-004	8	..........a	0	-327.74
	4256	8.514	-1.26620E-001	-5.87160E-007	0.00000E+000	-1.25600E-001	-9.29272E-004	8	..........a	0	-327.74
	4284	8.57	-1.29439E-001	-9.47547E-007	0.00000E+000	-1.28400E-001	-8.87605E-004	8	..........a	0	-327.74
	4312	8.626	-1.32244E-001	-7.73811E-007	0.00000E+000	-1.31200E-001	-9.29272E-004	8	..........a	0	-327.74
	4340	8.682	-1.35036E-001	-6.69236E-007	0.00000E+000	-1.34000E-001	-8.62605E-004	8	..........a	0	-327.74
	4368	8.738	-1.37824E-001	-1.14836E-006	0.00000E+000	-1.36800E-001	-9.29272E-004	8	..........a	0	-327.74
	4396	8.794	-1.40627E-001	-8.81303E-007	0.00000E+000	-1.39600E-001	-8.87605E-004	8	..........a	0	-327.74
	4424	8.85	-1.43417E-001	-7.44230E-007	0.00000E+000	-1.42400E-001	-9.04272E-004	8	..........a	0	-327.74
	4452	8.906	-1.46228E-001	-1.05046E-006	0.00000E+000	-1.45200E-001	-8.79272E-004	8	..........a	0	-327.74
	4480	8.962	-1.49024E-001	-1.21169E-006	0.00000E+000	-1.48000E-001	-9.12605E-004	8	..........a	0	-327.74
	4508	9.018	-1.51829E-001	-6.83402E-007	0.00000E+000	-1.50800E-001	-9.37606E-004	8	..........a	0	-327.74
	4536	9.074	-1.54619E-001	-8.56721E-007	0.00000E+000	-1.53600E-001	-9.29272E-004	8	..........a	0	-327.74
	4564	9.13	-1.57427E-001	-1.27544E-006	0.00000E+000	-1.56400E-001	-8.95939E-004	8	..........a	0	-327.74
	4592	9.186	-1.60234E-001	-8.85886E-007	0.00000E+000	-1.59200E-001	-8.04272E-004	8	..........a	0	-327.74
	4620	9.242	-1.63023E-001	-6.31323E-007	0.00000E+000	-1.62000E-001	-9.37606E-004	8	..........a	0	-327.74
	4648	9.298	-1.65814E-001	-7.31315E-007	0.00000E+000	-1.64800E-001	-9.29272E-004	8	..........a	0	-327.74
	4676	9.354	-1.68619E-001	-9.88794E-007	0.00000E+000	-1.67600E-001	-9.54272E-004	8	..........a	0	-327.74
	4704	9.41	-1.71413E-001	-1.09045E-006	0.00000E+000	-1.70400E-001	-9.37606E-004	8	..........a	0	-327.74
	4732	9.466	-1.74213E-001	-9.11717E-007	0.00000E+000	-1.73200E-001	-8.95939E-004	8	..........a	0	-327.74
	4760	9.522	-1.77013E-001	-7.40481E-007	0.00000E+000	-1.76000E-001	-8.87605E-004	8	..........a	0	-327.74
	4788	9.578	-1.79808E-001	-8.46305E-007	0.00000E+000	-1.78800E-001	-9.04272E-004	8	..........a	0	-327.74
	4816	9.634	-1.82605E-001	-7.90893E-007	0.00000E+000	-1.81600E-001	-8.87605E-004	8	..........a	0	-327.74
	4844	9.69	-1.85417E-001	-9.54630E-007	0.00000E+000	-1.84400E-001	-9.45939E-004	8	..........a	0	-327.74
	4872	9.746	-1.88213E-001	-1.15836E-006	0.00000E+000	-1.87200E-001	-9.12605E-004	8	..........a	0	-327.74
	4900	9.802	-1.91003E-001	-9.10884E-007	0.00000E+000	-1.90000E-001	-8.87605E-004	8	..........a	0	-327.74
	4928	9.858	-1.93812E-001	-1.15420E-006	0.00000E+000	-1.92800E-001	-9.54272E-004	8	..........a	0	-327.74
	4956	9.914	-1.96607E-001	-1.12587E-006	0.00000E+000	-1.95600E-001	-9.45939E-004	8	..........a	0	-327.74
	4984	9.97	-1.99389E-001	-1.15253E-006	0.00000E+000	-1.98400E-001	-9.54272E-004	8	..........a	0	-327.74
	5012	10.026	-2.02191E-001	-9.65463E-007	0.00000E+000	-2.01200E-001	-9.29272E-004	8	..........a	0	-327.74
	5040	10.082	-2.04997E-001	-9.57546E-007	0.00000E+000	-2.04000E-001	-8.62605E-004	8	..........a	0	-327.74
	5068	10.138	-2.07805E-001	-1.35168E-006	0.00000E+000	-2.06800E-001	-9.45939E-004	8	..........a	0	-327.74
	5096	10.194	-2.10592E-001	-1.32418E-006	0.00000E+000	-2.09600E-001	-8.95939E-004	8	..........a	0	-327.74
	5124	10.25	-2.13394E-001	-1.44292E-006	0.00000E+000	-2.12400E-001	-8.54272E-004	8	..........a	0	-327.74
	5152	10.306	-2.16182E-001	-1.05171E-006	0.00000E+000	-2.15200E-001	-9.37606E-004	8	..........a	0	-327.74
	5180	10.362	-2.18997E-001	-1.27294E-006	0.00000E+000	-2.18000E-001	-9.62605E-004	8	..........a	0	-327.74
	5208	10.418	-2.21792E-001	-1.21586E-006	0.00000E+000	-2.20800E-001	-8.87605E-004	8	..........a	0	-327.74
	5236	10.474	-2.24569E-001	-1.04546E-006	0.00000E+000	-2.23600E-001	-9.70939E-004	8	..........a	0	-327.74
	5264	10.53	-2.27375E-001	-7.79228E-007	0.00000E+000	-2.26400E-001	-8.95939E-004	8	..........a	0	-327.74
	5292	10.586	-2.30162E-001	-1.40376E-006	0.00000E+000	-2.29200E-001	-9.54272E-004	8	..........a	0	-327.74
	5320	10.642	-2.32974E-001	-1.30169E-006	0.00000E+000	-2.32000E-001	-8.45939E-004	8	..........a	0	-327.74
	5348	10.698	-2.35784E-001	-1.65041E-006	0.00000E+000	-2.34800E-001	-9.79272E-004	8	..........a	0	-327.74
	5376	10.754	-2.38565E-001	-1.23377E-006	0.00000E+000	-2.37600E-001	-8.95939E-004	8	..........a	0	-327.74
	5404	10.81	-2.41352E-001	-1.30002E-006	0.00000E+000	-2.40400E-001	-9.12605E-004	8	..........a	0	-327.74
	5432	10.866	-2.44165E-001	-1.31502E-006	0.00000E+000	-2.43200E-001	-8.79272E-004	8	..........a	0	-327.74
	5460	10.922	-2.46955E-001	-1.40959E-006	0.00000E+000	-2.46000E-001	-9.12605E-004	8	..........a	0	-327.74
	5488	10.978	-2.49790E-001	-1.63958E-006	0.00000E+000	-2.48800E-001	-9.29272E-004	8	..........a	0	-327.74
	5516	11.034	-2.52585E-001	-1.11003E-006	0.00000E+000	-2.51600E-001	-9.04272E-004	8	..........a	0	-327.74
	5544	11.09	-2.55399E-001	-1.63374E-006	0.00000E+000	-2.54400E-001	-9.37606E-004	8	..........a	0	-327.74
	5572	11.146	-2.58167E-001	-1.39543E-006	0.00000E+000	-2.57200E-001	-9.70939E-004	8	..........a	0	-327.74
	5600	11.202	-2.60969E-001	-1.50125E-006	0.00000E+000	-2.60000E-001	-9.37606E-004	8	..........a	0	-327.74
	5628	11.258	-2.63760E-001	-1.48792E-006	0.00000E+000	-2.62800E-001	-8.29272E-004	8	..........a	0	-327.74
	5656	11.314	-2.66419E-001	-1.76415E-006	0.00000E+000	-2.65600E-001	-9.62605E-004	8	......s...a	0	-327.74
	5684	11.37	-2.69303E-001	-1.69582E-006	0.00000E+000	-2.68400E-001	-9.37606E-004	8	..........a	0	-327.74
	5712	11.426	-2.72073E-001	-1.43709E-006	0.00000E+000	-2.71200E-001	-9.29272E-004	8	..........a	0	-327.74
	5740	11.482	-2.74882E-001	-1.62958E-006	0.00000E+000	-2.74000E-001	-9.87605E-004	8	..........a	0	-327.74
	5768	11.538	-2.77657E-001	-1.50084E-006	0.00000E+000	-2.76800E-001	-9.12605E-004	8	..........a	0	-327.74
	5796	11.594	-2.80382E-001	-1.62833E-006	0.00000E+000	-2.79600E-001	-9.20939E-004	8	..........a	0	-327.74
	5824	11.65	-2.83211E-001	-1.45751E-006	0.00000E+000	-2.82400E-001	-9.45939E-004	8	..........a	0	-327.74
	5852	11.706	-2.85890E-001	-1.98830E-006	0.00000E+000	-2.85200E-001	-9.20939E-004	8	..........a	0	-327.74
	5880	11.762	-2.88890E-001	-1.68915E-006	0.00000E+000	-2.88000E-001	-9.45939E-004	8	..........a	0	-327.74
	5908	11.818	-2.91565E-001	-1.82998E-006	0.00000E+000	-2.90800E-001	-8.87605E-004	8	..........a	0	-327.74
	5936	11.874	-2.94440E-001	-1.51792E-006	0.00000E+000	-2.93600E-001	-9.04272E-004	8	..........a	0	-327.74
	5964	11.93	-2.97244E-001	-1.46084E-006	0.00000E+000	-2.96400E-001	-9.62605E-004	8	..........a	0	-327.74
	5992	11.986	-3.00048E-001	-1.70707E-006	0.00000E+000	-2.99200E-001	-8.79272E-004	8	..........a	0	-327.74
	6020	12.042	-3.02848E-001	-2.02621E-006	0.00000E+000	-3.02000E-001	-9.12605E-004	8	..........a	0	-327.74
	6048	12.098	-3.05644E-001	-1.41543E-006	0.00000E+000	-3.04800E-001	-9.12605E-004	8	..........a	0	-327.74
	6076	12.154	-3.08365E-001	-1.72540E-006	0.00000E+000	-3.07600E-001	-8.95939E-004	8	..........a	0	-327.74
	6104	12.21	-3.11198E-001	-1.90747E-006	0.00000E+000	-3.10400E-001	-9.20939E-004	8	..........a	0	-327.74
	6132	12.266	-3.13982E-001	-2.02829E-006	0.00000E+000	-3.13200E-001	-9.62605E-004	8	..........a	0	-327.74
	6160	12.322	-3.16798E-001	-2.30660E-006	0.00000E+000	-3.16000E-001	-9.20939E-004	8	..........a	0	-327.74
	6188	12.378	-3.19448E-001	-2.29494E-006	0.00000E+000	-3.18800E-001	-9.70939E-004	8	..........a	0	-327.74
	6216	12.434	-3.22465E-001	-2.38160E-006	0.00000E+000	-3.21600E-001	-9.12605E-004	8	..........a	0	-327.74
	6244	12.49	-3.25236E-001	-2.48867E-006	0.00000E+000	-3.24400E-001	-9.12605E-004	8	..........a	0	-327.74
	6272	12.546	-3.28023E-001	-2.44493E-006	0.00000E+000	-3.27200E-001	-9.37606E-004	8	..........a	0	-327.74
	6300	12.602	-3.30698E-001	-2.93739E-006	0.00000E+000	-3.30000E-001	-9.04272E-004	8	..........a	0	-327.74
	6328	12.658	-3.33619E-001	-2.73199E-006	0.00000E+000	-3.32800E-001	-8.79272E-004	8	..........a	0	-327.74
	6356	12.714	-3.36265E-001	-3.00405E-006	0.00000E+000	-3.35600E-001	-8.20939E-004	8	..........a	0	-327.74
	6384	12.77	-3.39194E-001	-3.40152E-006	0.00000E+000	-3.38400E-001	-8.70939E-004	8	..........a	0	-327.74
	6412	12.826	-3.42023E-001	-3.77357E-006	0.00000E+000	-3.41200E-001	-9.79272E-004	8	..........a	0	-327.74
	6440	12.882	-3.44765E-001	-3.44776E-006	0.00000E+000	-3.44000E-001	-9.62605E-004	8	..........a	0	-327.74
	6468	12.938	-3.47661E-001	-4.00189E-006	0.00000E+000	-3.46800E-001	-9.45939E-004	8	..........a	0	-327.74
	6496	12.994	-3.50490E-001	-3.95272E-006	0.00000E+000	-3.49600E-001	-9.20939E-004	8	..........a	0	-327.74
	6524	13.05	-3.53169E-001	-4.29145E-006	0.00000E+000	-3.52400E-001	-8.87605E-004	8	..........a	0	-327.74
	6552	13.106	-3.56040E-001	-4.62892E-006	0.00000E+000	-3.55200E-001	-9.37606E-004	8	..........a	0	-327.74
	6580	13.162	-3.58765E-001	-4.66433E-006	0.00000E+000	-3.58000E-001	-9.29272E-004	8	..........a	0	-327.74
	6608	13.218	-3.61594E-001	-5.04513E-006	0.00000E+000	-3.60800E-001	-9.79272E-004	8	..........a	0	-327.74
	6636	13.274	-3.64303E-001	-5.82591E-006	0.00000E+000	-3.63600E-001	-9.37606E-004	8	..........a	0	-327.74
	6664	13.33	-3.67269E-001	-6.26045E-006	0.00000E+000	-3.66400E-001	-9.54272E-004	8	..........a	0	-327.74
	6692	13.386	-3.69890E-001	-6.75000E-006	0.00000E+000	-3.69200E-001	-9.62605E-004	8	..........a	0	-327.74
	6720	13.442	-3.72828E-001	-7.78116E-006	0.00000E+000	-3.72000E-001	-9.54272E-004	8	..........a	0	-327.74
	6748	13.498	-3.75661E-001	-7.78866E-006	0.00000E+000	-3.74800E-001	-9.20939E-004	8	..........a	0	-327.74
	6776	13.554	-3.78490E-001	-8.59985E-006	0.00000E+000	-3.77600E-001	-9.37606E-004	8	..........a	0	-327.74
	6804	13.61	-3.81215E-001	-9.35354E-006	0.00000E+000	-3.80400E-001	-9.54272E-004	8	..........a	0	-327.74
	6832	13.666	-3.83998E-001	-1.02001E-005	0.00000E+000	-3.83200E-001	-9.95939E-004	8	..........a	0	-327.74
	6860	13.722	-3.86648E-001	-1.06430E-005	0.00000E+000	-3.86000E-001	-9.62605E-004	8	..........a	0	-327.74
	6888	13.778	-3.89615E-001	-1.17367E-005	0.00000E+000	-3.88800E-001	-9.87605E-004	8	..........a	0	-327.74
	6916	13.834	-3.92353E-001	-1.28108E-005	0.00000E+000	-3.91600E-001	-9.29272E-004	8	..........a	0	-327.74
	6944	13.89	-3.95203E-001	-1.38398E-005	0.00000E+000	-3.94400E-001	-1.00427E-003	8	..........a	0	-327.74
	6972	13.946	-3.98028E-001	-1.47794E-005	0.00000E+000	-3.97200E-001	-9.45939E-004	8	..........a	0	-327.74
	7000	14.002	-4.00832E-001	-1.59384E-005	0.00000E+000	-4.00000E-001	-9.54272E-004	8	..........a	0	-327.74
	7028	14.058	-4.03628E-001	-1.72492E-005	0.00000E+000	-4.02800E-001	-9.62605E-004	8	..........a	0	-327.74
	7056	14.114	-4.06419E-001	-1.93444E-005	0.00000E+000	-4.05600E-001	-9.45939E-004	8	..........a	0	-327.74
	7084	14.17	-4.09157E-001	-2.05114E-005	0.00000E+000	-4.08400E-001	-9.62605E-004	8	..........a	0	-327.74
	7112	14.226	-4.12011E-001	-2.25608E-005	0.00000E+000	-4.11200E-001	-9.87605E-004	8	..........a	0	-327.74
	7140	14.282	-4.14748E-001	-2.37911E-005	0.00000E+000	-4.14000E-001	-1.03761E-003	8	..........a	0	-327.74
	7168	14.338	-4.17665E-001	-2.58472E-005	0.00000E+000	-4.16800E-001	-9.95939E-004	8	..........a	0	-327.74
	7196	14.394	-4.20261E-001	-2.77137E-005	0.00000E+000	-4.19600E-001	-9.20939E-004	8	..........a	0	-327.74
	7224	14.45	-4.23228E-001	-3.00948E-005	0.00000E+000	-4.22400E-001	-9.62605E-004	8	..........a	0	-327.74
	7252	14.506	-4.26028E-001	-3.19901E-005	0.00000E+000	-4.25200E-001	-9.79272E-004	8	..........a	0	-327.74
	7280	14.562	-4.28803E-001	-3.42611E-005	0.00000E+000	-4.28000E-001	-9.95939E-004	8	..........a	0	-327.74
	7308	14.618	-4.31519E-001	-3.69251E-005	0.00000E+000	-4.30800E-001	-9.79272E-004	8	..........a	0	-327.74
	7336	14.674	-4.34411E-001	-3.99652E-005	0.00000E+000	-4.33600E-001	-9.95939E-004	8	..........a	0	-327.74
	7364	14.73	-4.37086E-001	-4.21988E-005	0.00000E+000	-4.36400E-001	-9.12605E-004	8	..........a	0	-327.74
	7392	14.786	-4.39978E-001	-4.53419E-005	0.00000E+000	-4.39200E-001	-9.70939E-004	8	..........a	0	-327.74
	7420	14.842	-4.42690E-001	-4.82862E-005	0.00000E+000	-4.42000E-001	-9.29272E-004	8	..........a	0	-327.74
	7448	14.898	-4.45561E-001	-5.14514E-005	0.00000E+000	-4.44800E-001	-1.01261E-003	8	..........a	0	-327.74
	7476	14.954	-4.48390E-001	-5.49378E-005	0.00000E+000	-4.47600E-001	-9.62605E-004	8	..........a	0	-327.74
	7504	15.01	-4.51186E-001	-5.84717E-005	0.00000E+000	-4.50400E-001	-8.70939E-004	8	..........a	0	-327.74
	7532	15.066	-4.53969E-001	-6.20856E-005	0.00000E+000	-4.53200E-001	-9.79272E-004	8	..........a	0	-327.74
	7560	15.122	-4.56790E-001	-6.61681E-005	0.00000E+000	-4.56000E-001	-9.62605E-004	8	..........a	0	-327.74
	7588	15.178	-4.59473E-001	-7.01049E-005	0.00000E+000	-4.58800E-001	-9.62605E-004	8	..........a	0	-327.74
	7616	15.234	-4.62361E-001	-7.43604E-005	0.00000E+000	-4.61600E-001	-8.87605E-004	8	..........a	0	-327.74
	7644	15.29	-4.64994E-001	-7.87950E-005	0.00000E+000	-4.64400E-001	-8.95939E-004	8	..........a	0	-327.74
	7672	15.346	-4.67907E-001	-8.25497E-005	0.00000E+000	-4.67200E-001	-9.20939E-004	8	..........a	0	-327.74
	7700	15.402	-4.70523E-001	-8.72639E-005	0.00000E+000	-4.70000E-001	-9.12605E-004	8	..........a	0	-327.74
	7728	15.458	-4.73528E-001	-9.22181E-005	0.00000E+000	-4.72800E-001	-9.12605E-004	8	..........a	0	-327.74
	7756	15.514	-4.76319E-001	-9.79810E-005	0.00000E+000	-4.75600E-001	-8.79272E-004	8	..........a	0	-327.74
	7784	15.57	-4.79132E-001	-1.03306E-004	0.00000E+000	-4.78400E-001	-1.01261E-003	8	..........a	0	-327.74
	7812	15.626	-4.81861E-001	-1.08400E-004	0.00000E+000	-4.81200E-001	-9.62605E-004	8	..........a	0	-327.74
	7840	15.682	-4.84736E-001	-1.14126E-004	0.00000E+000	-4.84000E-001	-8.62605E-004	8	..........a	0	-327.74
	7868	15.738	-4.87340E-001	-1.20143E-004	0.00000E+000	-4.86800E-001	-9.54272E-004	8	..........a	0	-327.74
	7896	15.794	-4.90248E-001	-1.26596E-004	0.00000E+000	-4.89600E-001	-9.20939E-004	8	..........a	0	-327.74
	7924	15.85	-4.92928E-001	-1.33211E-004	0.00000E+000	-4.92400E-001	-9.62605E-004	8	..........a	0	-327.74
	7952	15.906	-4.95915E-001	-1.39994E-004	0.00000E+000	-4.95200E-001	-9.54272E-004	8	..........a	0	-327.74
	7980	15.962	-4.98490E-001	-1.46702E-004	0.00000E+000	-4.98000E-001	-9.45939E-004	8	..........a	0	-327.74
	8008	16.018	-5.01461E-001	-1.53843E-004	0.00000E+000	-5.00800E-001	-8.12605E-004	8	..........a	0	-327.74
	8036	16.074	-5.04232E-001	-1.61683E-004	0.00000E+000	-5.03600E-001	-9.20939E-004	8	..........a	0	-327.74
	8064	16.13	-5.07057E-001	-1.69707E-004	0.00000E+000	-5.06400E-001	-9.20939E-004	8	..........a	0	-327.74
	8092	16.186	-5.09757E-001	-1.78192E-004	0.00000E+000	-5.09200E-001	-9.29272E-004	8	..........a	0	-327.74
	8120	16.242	-5.12486E-001	-1.86901E-004	0.00000E+000	-5.12000E-001	-9.62605E-004	8	..........a	0	-327.74
	8148	16.298	-5.15298E-001	-1.95823E-004	0.00000E+000	-5.14800E-001	-9.70939E-004	8	..........a	0	-327.74
	8176	16.354	-5.18215E-001	-2.05532E-004	0.00000E+000	-5.17600E-001	-9.87605E-004	8	..........a	0	-327.74
	8204	16.41	-5.20848E-001	-2.15131E-004	0.00000E+000	-5.20400E-001	-9.12605E-004	8	..........a	0	-327.74
	8232	16.466	-5.23632E-001	-2.24886E-004	0.00000E+000	-5.23200E-001	-9.87605E-004	8	..........a	0	-327.74
	8260	16.522	-5.26515E-001	-2.34434E-004	0.00000E+000	-5.26000E-001	-9.37606E-004	8	..........a	0	-327.74
	8288	16.578	-5.29265E-001	-2.44309E-004	0.00000E+000	-5.28800E-001	-9.12605E-004	8	..........a	0	-327.74
	8316	16.634	-5.32073E-001	-2.53971E-004	0.00000E+000	-5.31600E-001	-1.01261E-003	8	..........a	0	-327.74
	8344	16.69	-5.34869E-001	-2.64513E-004	0.00000E+000	-5.34400E-001	-9.37606E-004	8	..........a	0	-327.74
	8372	16.746	-5.37842E-001	-2.76049E-004	0.00000E+000	-5.37200E-001	-9.45939E-004	9	..........a	0	-327.74
	8400	16.802	-5.40737E-001	-2.85255E-004	0.00000E+000	-5.40000E-001	-8.87605E-004	9	..........a	0	-327.74
	8428	16.858	-5.43362E-001	-2.95100E-004	0.00000E+000	-5.42800E-001	-8.87605E-004	9	..........a	0	-327.74
	8456	16.914	-5.46337E-001	-3.04464E-004	0.00000E+000	-5.45600E-001	-8.62605E-004	9	..........a	0	-327.74
	8484	16.97	-5.48900E-001	-3.13432E-004	0.00000E+000	-5.48400E-001	-9.12605E-004	9	..........a	0	-327.74
	8512	17.026	-5.51950E-001	-3.22002E-004	0.00000E+000	-5.51200E-001	-9.29272E-004	9	..........a	0	-327.74
	8540	17.082	-5.54675E-001	-3.29628E-004	0.00000E+000	-5.54000E-001	-8.79272E-004	9	..........a	0	-327.74
	8568	17.138	-5.57508E-001	-3.36678E-004	0.00000E+000	-5.56800E-001	-9.37606E-004	9	..........a	0	-327.74
	8596	17.194	-5.60237E-001	-3.44087E-004	0.00000E+000	-5.59600E-001	-8.62605E-004	9	..........a	0	-327.74
	8624	17.25	-5.63096E-001	-3.50434E-004	0.00000E+000	-5.62400E-001	-9.20939E-004	9	..........a	0	-327.74
	8652	17.306	-5.65725E-001	-3.56527E-004	0.00000E+000	-5.65200E-001	-9.12605E-004	9	..........a	0	-327.74
	8680	17.362	-5.68654E-001	-3.61529E-004	0.00000E+000	-5.68000E-001	-9.12605E-004	9	..........a	0	-327.74
	8708	17.418	-5.71458E-001	-3.65870E-004	0.00000E+000	-5.70800E-001	-9.12605E-004	9	..........a	0	-327.74
	8736	17.474	-5.74325E-001	-3.69180E-004	0.00000E+000	-5.73600E-001	-9.95939E-004	9	..........a	0	-327.74
	8764	17.53	-5.77129E-001	-3.72397E-004	0.00000E+000	-5.76400E-001	-9.54272E-004	9	..........a	0	-327.74
	8792	17.586	-5.79900E-001	-3.74683E-004	0.00000E+000	-5.79200E-001	-9.04272E-004	9	..........a	0	-327.74
	8820	17.642	-5.82662E-001	-3.76472E-004	0.00000E+000	-5.82000E-001	-9.04272E-004	9	..........a	0	-327.74
	8848	17.698	-5.85529E-001	-3.78728E-004	0.00000E+000	-5.84800E-001	-9.20939E-004	9	..........a	0	-327.74
	8876	17.754	-5.88200E-001	-3.79806E-004	0.00000E+000	-5.87600E-001	-9.37606E-004	9	..........a	0	-327.74
	8904	17.81	-5.91050E-001	-3.81114E-004	0.00000E+000	-5.90400E-001	-9.20939E-004	9	..........a	0	-327.74
	8932	17.866	-5.93746E-001	-3.81791E-004	0.00000E+000	-5.93200E-001	-8.87605E-004	9	..........a	0	-327.74
	8960	17.922	-5.96754E-001	-3.83195E-004	0.00000E+000	-5.96000E-001	-8.62605E-004	9	..........a	0	-327.74
	8988	17.978	-5.99304E-001	-3.83893E-004	0.00000E+000	-5.98800E-001	-8.87605E-004	9	..........a	0	-327.74
	9016	18.034	-6.02312E-001	-3.84302E-004	0.00000E+000	-6.01600E-001	-8.62605E-004	9	..........a	0	-327.74
	9044	18.09	-6.05121E-001	-3.85339E-004	0.00000E+000	-6.04400E-001	-9.45939E-004	9	..........a	0	-327.74
	9072	18.146	-6.07954E-001	-3.86592E-004	0.00000E+000	-6.07200E-001	-9.37606E-004	9	..........a	0	-327.74
	9100	18.202	-6.10600E-001	-3.87386E-004	0.00000E+000	-6.10000E-001	-9.29272E-004	9	..........a	0	-327.74
	9128	18.258	-6.13483E-001	-3.88623E-004	0.00000E+000	-6.12800E-001	-9.45939E-004	9	..........a	0	-327.74
	9156	18.314	-6.16142E-001	-3.89660E-004	0.00000E+000	-6.15600E-001	-9.45939E-004	9	..........a	0	-327.74
	9184	18.37	-6.19104E-001	-3.90370E-004	0.00000E+000	-6.18400E-001	-8.79272E-004	9	..........a	0	-327.74
	9212	18.426	-6.21742E-001	-3.90412E-004	0.00000E+000	-6.21200E-001	-8.12605E-004	9	..........a	0	-327.74
	9240	18.482	-6.24608E-001	-3.91402E-004	0.00000E+000	-6.24000E-001	-9.62605E-004	9	..........a	0	-327.74
	9268	18.538	-6.27467E-001	-3.91523E-004	0.00000E+000	-6.26800E-001	-9.04272E-004	9	..........a	0	-327.74
	9296	18.594	-6.30296E-001	-3.91640E-004	0.00000E+000	-6.29600E-001	-9.29272E-004	9	..........a	0	-327.74
	9324	18.65	-6.33021E-001	-3.91285E-004	0.00000E+000	-6.32400E-001	-8.87605E-004	9	..........a	0	-327.74
	9352	18.706	-6.35892E-001	-3.90942E-004	0.00000E+000	-6.35200E-001	-9.62605E-004	9	..........a	0	-327.74
	9380	18.762	-6.38579E-001	-3.90733E-004	0.00000E+000	-6.38000E-001	-9.37606E-004	9	..........a	0	-327.74
	9408	18.818	-6.41483E-001	-3.90687E-004	0.00000E+000	-6.40800E-001	-8.79272E-004	9	..........a	0	-327.74
	9436	18.874	-6.44154E-001	-3.91724E-004	0.00000E+000	-6.43600E-001	-9.54272E-004	9	..........a	0	-327.74
	9464	18.93	-6.47021E-001	-3.91929E-004	0.00000E+000	-6.46400E-001	-8.62605E-004	9	..........a	0	-327.74
	9492	18.986	-6.49679E-001	-3.92313E-004	0.00000E+000	-6.49200E-001	-9.79272E-004	9	..........a	0	-327.74
	9520	19.042	-6.52696E-001	-3.93036E-004	0.00000E+000	-6.52000E-001	-9.04272E-004	9	..........a	0	-327.74
	9548	19.098	-6.55471E-001	-3.93211E-004	0.00000E+000	-6.54800E-001	-9.62605E-004	9	..........a	0	-327.74
	9576	19.154	-6.58254E-001	-3.92702E-004	0.00000E+000	-6.57600E-001	-9.54272E-004	9	..........a	0	-327.74
	9604	19.21	-6.61021E-001	-3.91632E-004	0.00000E+000	-6.60400E-001	-8.79272E-004	9	..........a	0	-327.74
	9632	19.266	-6.63908E-001	-3.90265E-004	0.00000E+000	-6.63200E-001	-9.29272E-004	9	..........a	0	-327.74
	9660	19.322	-6.66525E-001	-3.90491E-004	0.00000E+000	-6.66000E-001	-9.12605E-004	9	..........a	0	-327.74
	9688	19.378	-6.69425E-001	-3.91289E-004	0.00000E+000	-6.68800E-001	-9.87605E-004	9	..........a	0	-327.74
	9716	19.434	-6.72100E-001	-3.91799E-004	0.00000E+000	-6.71600E-001	-9.54272E-004	9	..........a	0	-327.74
	9744	19.49	-6.75096E-001	-3.91557E-004	0.00000E+000	-6.74400E-001	-8.95939E-004	9	..........a	0	-327.74
	9772	19.546	-6.77617E-001	-3.90646E-004	0.00000E+000	-6.77200E-001	-9.12605E-004	9	..........a	0	-327.74
	9800	19.602	-6.80671E-001	-3.90295E-004	0.00000E+000	-6.80000E-001	-9.37606E-004	9	..........a	0	-327.74
	9828	19.658	-6.83404E-001	-3.90984E-004	0.00000E+000	-6.82800E-001	-9.45939E-004	9	..........a	0	-327.74
	9856	19.714	-6.86279E-001	-3.91812E-004	0.00000E+000	-6.85600E-001	-9.45939E-004	9	..........a	0	-327.74
	9884	19.77	-6.88996E-001	-3.91452E-004	0.00000E+000	-6.88400E-001	-1.00427E-003	9	..........a	0	-327.74
	9912	19.826	-6.91833E-001	-3.90934E-004	0.00000E+000	-6.91200E-001	-9.12605E-004	9	..........a	0	-327.74
	9940	19.882	-6.94521E-001	-3.91122E-004	0.00000E+000	-6.94000E-001	-9.95939E-004	9	..........a	0	-327.74
	9968	19.938	-6.97500E-001	-3.91782E-004	0.00000E+000	-6.96800E-001	-9.62605E-004	9	..........a	0	-327.74
	9996	19.994	-7.00037E-001	-3.92029E-004	0.00000E+000	-6.99600E-001	-8.87605E-004	9	..........a	0	-327.74
	10024	20.05	-7.02921E-001	-3.91979E-004	0.00000E+000	-7.02400E-001	-9.79272E-004	9	..........a	0	-327.74
	10052	20.106	-7.05871E-001	-3.92346E-004	0.00000E+000	-7.05200E-001	-9.62605E-004	9	..........a	0	-327.74
	10080	20.162	-7.08692E-001	-3.92877E-004	0.00000E+000	-7.08000E-001	-8.87605E-004	9	..........a	0	-327.74
	10108	20.218	-7.11379E-001	-3.92998E-004	0.00000E+000	-7.10800E-001	-9.20939E-004	9	..........a	0	-327.74
	10136	20.274	-7.14150E-001	-3.93153E-004	0.00000E+000	-7.13600E-001	-9.79272E-004	9	..........a	0	-327.74
	10164	20.33	-7.16933E-001	-3.92827E-004	0.00000E+000	-7.16400E-001	-9.54272E-004	9	..........a	0	-327.74
	10192	20.386	-7.19825E-001	-3.92392E-004	0.00000E+000	-7.19200E-001	-9.04272E-004	9	..........a	0	-327.74
	10220	20.442	-7.22442E-001	-3.92384E-004	0.00000E+000	-7.22000E-001	-9.37606E-004	9	..........a	0	-327.74
	10248	20.498	-7.25471E-001	-3.92208E-004	0.00000E+000	-7.24800E-001	-9.04272E-004	9	..........a	0	-327.74
	10276	20.554	-7.28033E-001	-3.92752E-004	0.00000E+000	-7.27600E-001	-9.12605E-004	9	..........a	0	-327.74
	10304	20.61	-7.31092E-001	-3.92990E-004	0.00000E+000	-7.30400E-001	-9.62605E-004	9	..........a	0	-327.74
	10332	20.666	-7.33817E-001	-3.92430E-004	0.00000E+000	-7.33200E-001	-9.20939E-004	9	..........a	0	-327.74
	10360	20.722	-7.36633E-001	-3.91974E-004	0.00000E+000	-7.36000E-001	-8.62605E-004	9	..........a	0	-327.74
	10388	20.778	-7.39333E-001	-3.91465E-004	0.00000E+000	-7.38800E-001	-9.04272E-004	9	..........a	0	-327.74
	10416	20.834	-7.42279E-001	-3.91064E-004	0.00000E+000	-7.41600E-001	-9.12605E-004	9	..........a	0	-327.74
	10444	20.89	-7.44883E-001	-3.91164E-004	0.00000E+000	-7.44400E-001	-8.62605E-004	9	..........a	0	-327.74
	10472	20.946	-7.47758E-001	-3.90888E-004	0.00000E+000	-7.47200E-001	-9.70939E-004	9	..........a	0	-327.74
	10500	21.002	-7.50533E-001	-3.91933E-004	0.00000E+000	-7.50000E-001	-8.95939E-004	9	..........a	0	-327.74
	10528	21.058	-7.53479E-001	-3.91486E-004	0.00000E+000	-7.52800E-001	-9.12605E-004	9	..........a	0	-327.74
	10556	21.114	-7.56217E-001	-3.92025E-004	0.00000E+000	-7.55600E-001	-8.37606E-004	9	..........a	0	-327.74
	10584	21.17	-7.59071E-001	-3.92605E-004	0.00000E+000	-7.58400E-001	-8.79272E-004	9	..........a	0	-327.74
	10612	21.226	-7.61783E-001	-3.93349E-004	0.00000E+000	-7.61200E-001	-8.79272E-004	9	..........a	0	-327.74
	10640	21.282	-7.64712E-001	-3.94482E-004	0.00000E+000	-7.64000E-001	-9.04272E-004	9	..........a	0	-327.74
	10668	21.338	-7.67367E-001	-3.94498E-004	0.00000E+000	-7.66800E-001	-8.95939E-004	9	..........a	0	-327.74
	10696	21.394	-7.70125E-001	-3.93253E-004	0.00000E+000	-7.69600E-001	-9.29272E-004	9	..........a	0	-327.74
	10724	21.45	-7.72833E-001	-3.91912E-004	0.00000E+000	-7.72400E-001	-8.95939E-004	9	..........a	0	-327.74
	10752	21.506	-7.75887E-001	-3.90892E-004	0.00000E+000	-7.75200E-001	-9.12605E-004	9	..........a	0	-327.74
	10780	21.562	-7.78417E-001	-3.90742E-004	0.00000E+000	-7.78000E-001	-9.12605E-004	9	..........a	0	-327.74
	10808	21.618	-7.81417E-001	-3.90123E-004	0.00000E+000	-7.80800E-001	-9.37606E-004	9	..........a	0	-327.74
	10836	21.674	-7.84250E-001	-3.90458E-004	0.00000E+000	-7.83600E-001	-8.20939E-004	9	..........a	0	-327.74
	10864	21.73	-7.87037E-001	-3.90525E-004	0.00000E+000	-7.86400E-001	-8.87605E-004	9	..........a	0	-327.74
	10892	21.786	-7.89733E-001	-3.90558E-004	0.00000E+000	-7.89200E-001	-9.12605E-004	9	..........a	0	-327.74
	10920	21.842	-7.92596E-001	-3.91022E-004	0.00000E+000	-7.92000E-001	-9.20939E-004	9	..........a	0	-327.74
	10948	21.898	-7.95312E-001	-3.91473E-004	0.00000E+000	-7.94800E-001	-8.62605E-004	9	..........a	0	-327.74
	10976	21.954	-7.98171E-001	-3.92204E-004	0.00000E+000	-7.97600E-001	-8.54272E-004	9	..........a	0	-327.74
	11004	22.01	-8.00883E-001	-3.93266E-004	0.00000E+000	-8.00400E-001	-9.12605E-004	9	..........a	0	-327.74
	11032	22.066	-8.03517E-001	-3.93450E-004	0.00000E+000	-8.03200E-001	-8.95939E-004	9	..........a	0	-327.74
	11060	22.122	-8.06642E-001	-3.92852E-004	0.00000E+000	-8.06000E-001	-9.45939E-004	9	..........a	0	-327.74
	11088	22.178	-8.09450E-001	-3.92108E-004	0.00000E+000	-8.08800E-001	-8.54272E-004	9	..........a	0	-327.74
	11116	22.234	-8.12171E-001	-3.92033E-004	0.00000E+000	-8.11600E-001	-9.29272E-004	9	..........a	0	-327.74
	11144	22.29	-8.14992E-001	-3.93107E-004	0.00000E+000	-8.14400E-001	-9.45939E-004	9	..........a	0	-327.74
	11172	22.346	-8.17729E-001	-3.93211E-004	0.00000E+000	-8.17200E-001	-8.70939E-004	9	..........a	0	-327.74
	11200	22.402	-8.20592E-001	-3.93441E-004	0.00000E+000	-8.20000E-001	-9.29272E-004	9	..........a	0	-327.74
	11228	22.458	-8.23221E-001	-3.93362E-004	0.00000E+000	-8.22800E-001	-8.95939E-004	9	..........a	0	-327.74
	11256	22.514	-8.26108E-001	-3.93884E-004	0.00000E+000	-8.25600E-001	-8.79272E-004	9	..........a	0	-327.74
	11284	22.57	-8.28800E-001	-3.93876E-004	0.00000E+000	-8.28400E-001	-9.04272E-004	9	..........a	0	-327.74
	11312	22.626	-8.31625E-001	-3.93345E-004	0.00000E+000	-8.31200E-001	-8.95939E-004	9	..........a	0	-327.74
	11340	22.682	-8.34562E-001	-3.93044E-004	0.00000E+000	-8.34000E-001	-8.70939E-004	9	..........a	0	-327.74
	11368	22.738	-8.37346E-001	-3.92158E-004	0.00000E+000	-8.36800E-001	-8.70939E-004	9	..........a	0	-327.74
	11396	22.794	-8.40125E-001	-3.92610E-004	0.00000E+000	-8.39600E-001	-9.20939E-004	9	..........a	0	-327.74
	11424	22.85	-8.42925E-001	-3.92798E-004	0.00000E+000	-8.42400E-001	-9.29272E-004	9	..........a	0	-327.74
	11452	22.906	-8.45629E-001	-3.92626E-004	0.00000E+000	-8.45200E-001	-9.37606E-004	9	..........a	0	-327.74
	11480	22.962	-8.48425E-001	-3.92919E-004	0.00000E+000	-8.48000E-001	-8.37606E-004	9	..........a	0	-327.74
	11508	23.018	-8.51221E-001	-3.93032E-004	0.00000E+000	-8.50800E-001	-9.37606E-004	9	..........a	0	-327.74
	11536	23.074	-8.54212E-001	-3.92242E-004	0.00000E+000	-8.53600E-001	-8.29272E-004	9	..........a	0	-327.74
	11564	23.13	-8.56775E-001	-3.92234E-004	0.00000E+000	-8.56400E-001	-8.87605E-004	9	..........a	0	-327.74
	11592	23.186	-8.59742E-001	-3.92468E-004	0.00000E+000	-8.59200E-001	-9.04272E-004	9	..........a	0	-327.74
	11620	23.242	-8.62508E-001	-3.92526E-004	0.00000E+000	-8.62000E-001	-9.29272E-004	9	..........a	0	-327.74
	11648	23.298	-8.65429E-001	-3.92735E-004	0.00000E+000	-8.64800E-001	-9.54272E-004	9	..........a	0	-327.74
	11676	23.354	-8.68075E-001	-3.92664E-004	0.00000E+000	-8.67600E-001	-9.54272E-004	9	..........a	0	-327.74
	11704	23.41	-8.70871E-001	-3.92777E-004	0.00000E+000	-8.70400E-001	-9.20939E-004	9	..........a	0	-327.74
	11732	23.466	-8.73608E-001	-3.92493E-004	0.00000E+000	-8.73200E-001	-9.29272E-004	9	..........a	0	-327.74
	11760	23.522	-8.76517E-001	-3.92242E-004	0.00000E+000	-8.76000E-001	-8.79272E-004	9	..........a	0	-327.74
	11788	23.578	-8.79229E-001	-3.92773E-004	0.00000E+000	-8.78800E-001	-8.95939E-004	9	..........a	0	-327.74
	11816	23.634	-8.82104E-001	-3.92898E-004	0.00000E+000	-8.81600E-001	-9.54272E-004	9	..........a	0	-327.74
	11844	23.69	-8.84933E-001	-3.92321E-004	0.00000E+000	-8.84400E-001	-9.04272E-004	9	..........a	0	-327.74
	11872	23.746	-8.87733E-001	-3.91883E-004	0.00000E+000	-8.87200E-001	-9.37606E-004	9	..........a	0	-327.74
	11900	23.802	-8.90517E-001	-3.91339E-004	0.00000E+000	-8.90000E-001	-9.37606E-004	9	..........a	0	-327.74
	11928	23.858	-8.93254E-001	-3.90855E-004	0.00000E+000	-8.92800E-001	-9.54272E-004	9	..........a	0	-327.74
	11956	23.914	-8.96008E-001	-3.91005E-004	0.00000E+000	-8.95600E-001	-9.20939E-004	9	..........a	0	-327.74
	11984	23.97	-8.98871E-001	-3.91586E-004	0.00000E+000	-8.98400E-001	-8.70939E-004	9	..........a	0	-327.74
	12012	24.026	-9.01612E-001	-3.91465E-004	0.00000E+000	-9.01200E-001	-9.45939E-004	9	..........a	0	-327.74
	12040	24.082	-9.04433E-001	-3.92263E-004	0.00000E+000	-9.04000E-001	-9.45939E-004	9	..........a	0	-327.74
	12068	24.138	-9.07187E-001	-3.92773E-004	0.00000E+000	-9.06800E-001	-9.04272E-004	9	..........a	0	-327.74
	12096	24.194	-9.10204E-001	-3.93374E-004	0.00000E+000	-9.09600E-001	-9.87605E-004	9	..........a	0	-327.74
	12124	24.25	-9.12933E-001	-3.93554E-004	0.00000E+000	-9.12400E-001	-8.95939E-004	9	..........a	0	-327.74
	12152	24.306	-9.15742E-001	-3.94168E-004	0.00000E+000	-9.15200E-001	-9.20939E-004	9	..........a	0	-327.74
	12180	24.362	-9.18487E-001	-3.94941E-004	0.00000E+000	-9.18000E-001	-9.29272E-004	9	..........a	0	-327.74
	12208	24.418	-9.21275E-001	-3.94732E-004	0.00000E+000	-9.20800E-001	-9.04272E-004	9	..........a	0	-327.74
	12236	24.474	-9.24008E-001	-3.93587E-004	0.00000E+000	-9.23600E-001	-9.29272E-004	9	..........a	0	-327.74
	12264	24.53	-9.26783E-001	-3.93374E-004	0.00000E+000	-9.26400E-001	-9.12605E-004	9	..........a	0	-327.74
	12292	24.586	-9.29708E-001	-3.93767E-004	0.00000E+000	-9.29200E-001	-8.70939E-004	9	..........a	0	-327.74
	12320	24.642	-9.32496E-001	-3.94649E-004	0.00000E+000	-9.32000E-001	-9.20939E-004	9	..........a	0	-327.74
	12348	24.698	-9.35337E-001	-3.94578E-004	0.00000E+000	-9.34800E-001	-9.45939E-004	9	..........a	0	-327.74
	12376	24.754	-9.38108E-001	-3.94210E-004	0.00000E+000	-9.37600E-001	-9.04272E-004	9	..........a	0	-327.74
	12404	24.81	-9.40950E-001	-3.93228E-004	0.00000E+000	-9.40400E-001	-9.62605E-004	9	..........a	0	-327.74
	12432	24.866	-9.43712E-001	-3.93136E-004	0.00000E+000	-9.43200E-001	-9.54272E-004	9	..........a	0	-327.74
	12460	24.922	-9.46425E-001	-3.92296E-004	0.00000E+000	-9.46000E-001	-9.04272E-004	9	..........a	0	-327.74
	12488	24.978	-9.49175E-001	-3.91552E-004	0.00000E+000	-9.48800E-001	-9.29272E-004	9	..........a	0	-327.74
	12516	25.034	-9.51979E-001	-3.90817E-004	0.00000E+000	-9.51600E-001	-9.12605E-004	9	..........a	0	-327.74
	12544	25.09	-9.54942E-001	-3.90880E-004	0.00000E+000	-9.54400E-001	-9.62605E-004	9	..........a	0	-327.74
	12572	25.146	-9.57571E-001	-3.91298E-004	0.00000E+000	-9.57200E-001	-9.37606E-004	9	..........a	0	-327.74
	12600	25.202	-9.60529E-001	-3.92075E-004	0.00000E+000	-9.60000E-001	-9.45939E-004	9	..........a	0	-327.74
	12628	25.258	-9.63287E-001	-3.91958E-004	0.00000E+000	-9.62800E-001	-8.45939E-004	9	..........a	0	-327.74
	12656	25.314	-9.66133E-001	-3.92430E-004	0.00000E+000	-9.65600E-001	-8.62605E-004	9	..........a	0	-327.74
	12684	25.37	-9.68854E-001	-3.92493E-004	0.00000E+000	-9.68400E-001	-9.20939E-004	9	..........a	0	-327.74
	12712	25.426	-9.71658E-001	-3.92413E-004	0.00000E+000	-9.71200E-001	-8.87605E-004	9	..........a	0	-327.74
	12740	25.482	-9.74392E-001	-3.92125E-004	0.00000E+000	-9.74000E-001	-9.20939E-004	9	..........a	0	-327.74
	12768	25.538	-9.77183E-001	-3.91669E-004	0.00000E+000	-9.76800E-001	-9.20939E-004	9	..........a	0	-327.74
	12796	25.594	-9.79975E-001	-3.91440E-004	0.00000E+000	-9.79600E-001	-9.04272E-004	9	..........a	0	-327.74
	12824	25.65	-9.82729E-001	-3.91640E-004	0.00000E+000	-9.82400E-001	-8.70939E-004	9	..........a	0	-327.74
	12852	25.706	-9.85750E-001	-3.91644E-004	0.00000E+000	-9.85200E-001	-9.37606E-004	9	..........a	0	-327.74
	12880	25.762	-9.88508E-001	-3.91473E-004	0.00000E+000	-9.88000E-001	-9.54272E-004	9	..........a	0	-327.74
	12908	25.818	-9.91271E-001	-3.92133E-004	0.00000E+000	-9.90800E-001	-8.87605E-004	9	..........a	0	-327.74
	12936	25.874	-9.94071E-001	-3.92271E-004	0.00000E+000	-9.93600E-001	-8.95939E-004	9	..........a	0	-327.74
	12964	25.93	-9.96817E-001	-3.92718E-004	0.00000E+000	-9.96400E-001	-8.54272E-004	9	..........a	0	-327.74
	12992	25.986	-9.99587E-001	-3.93613E-004	0.00000E+000	-9.99200E-001	-9.04272E-004	9	..........a	0	-327.74
	13000	26.002	-1.00033E+000	-3.93023E-004	0.00000E+000	-1.00000E+000	-8.37606E-004	9	..........a	0	-327.74