File: data/02-SI/Figures_S9_S11_RDE/14btmapaq-rde/1mkcl--5mmolar14btmapaq-nitrogen-rde-1200-50mvpers.DTA
EXPLAIN
TAG	LSV
TITLE	LABEL	Linear Sweep Voltammetry	Test &Identifier
DATE	LABEL	1/31/2023	Date
TIME	LABEL	13:11:54	Time
NOTES	NOTES	1	&Notes...

PSTAT	PSTAT	REF3000-21108	Potentiostat
VINIT	POTEN	3.00000E-001	F	&Initial E (V)
VFINAL	POTEN	-1.00000E+000	F	&Final E (V)
SCANRATE	QUANT	4.99999E+001	&Scan Rate (mV/s)
STEPSIZE	QUANT	1.00000E-001	St&ep Size (mV)
IMODE	SELECTOR	0	I/E Range &Mode
IRANGE	QUANT	1.00000E+002	&Max Current (mA)
AREA	QUANT	1.00000E+000	Electrode &Area (cm^2)
ELECTRODETYPE	SELECTOR	0	Electrode Type
STRIPPING	TOGGLE	F	Used for Stripping
POLARITY	TOGGLE	F	Signal Polarity
CONDIT	TWOPARAM	F	1.50000E+001	0.00000E+000	Conditionin&g	Time(s)	E(V)
DELAY	TWOPARAM	F	3.00000E+001	0.00000E+000	Init. De&lay	Time(s)	Stab.(mV/s)
EQDELAY	QUANT	0.00000E+000	Equil. &Time (s)
IRCOMP	SELECTOR	0	IRCom&p
PFCOR	QUANT	5.00000E+001	PF Corr. (ohm)
SAMPLINGMODE	SELECTOR	1	Sampling &Mode
EOC	QUANT	0	Open Circuit (V)
PSTATMODEL	IQUANT	5	Pstat Model
PSTATSECTION	LABEL	REF3000-21108	Pstat Section
PSTATSERIALNO	LABEL	21108	Pstat Serial Number
CTRLMODE	IQUANT	1	Control Mode
ELECTROMETER	IQUANT	0	RE=0 or CS=1
IESTAB	IQUANT	2	I/E Stability
CASPEED	IQUANT	4	Control Amp Speed
CONVENTION	IQUANT	1	Current Convention
ICHRANGE	IQUANT	2	Ich Range
ICHRANGEMODE	TOGGLE	F	Ich Auto Range
ICHOFFSETENABLE	TOGGLE	F	Ich Offset Enable
ICHOFFSET	QUANT	0	Ich Offset (V)
ICHFILTER	IQUANT	2	Ich Filter
VCHRANGE	IQUANT	2	Vch Range
VCHRANGEMODE	TOGGLE	T	Vch Auto Range
VCHOFFSETENABLE	TOGGLE	F	Vch Offset Enable
VCHOFFSET	QUANT	0	Vch Offset (V)
VCHFILTER	IQUANT	2	Vch Filter
ACHRANGE	IQUANT	2	Ach Range
ACHOFFSETENABLE	TOGGLE	F	Ach Offset Enable
ACHOFFSET	QUANT	0	Ach Offset (V)
ACHFILTER	IQUANT	0	Ach Filter
IERANGELOWERLIMIT	IQUANT	2	I/E Range Lower Limit
IERANGEMODE	TOGGLE	T	I/E AutoRange
IERANGE	IQUANT	11	I/E Range
POSFEEDENABLE	TOGGLE	F	Positive Feedback IR Comp
POSFEEDRESISTANCE	QUANT	0	Positive Feedback Resistance (ohm)
ACHSELECT	IQUANT	0	Ach Select
SENSECABLEID	IQUANT	14	Sense Cable ID
PWRCABLEID	IQUANT	7	Power Cable ID
DCCALDATE	LABEL	11/9/2022	DC Calibration Date
ACCALDATE	LABEL	11/9/2022	AC Calibration Date
THERMOSELECT	IQUANT	1	Thermo Select
FRAMEWORKVERSION	LABEL	7.8.2	Framework Version
INSTRUMENTVERSION	LABEL	4.40	Instrument Version
COMPLIANCEVOLTAGE	IQUANT	0	Compliance Voltage
CURVE	TABLE	13001
	Pt	T	Vf	Im	Vu	Sig	Ach	IERange	Over	Cycle	Temp
	#	s	V vs. Ref.	A	V	V	V	#	bits	#	deg C
	0	0.002	2.99763E-001	-4.04689E-005	0.00000E+000	3.00000E-001	-8.54272E-004	11	..........a	0	-327.74
	28	0.058	2.96006E-001	1.13448E-005	0.00000E+000	2.97200E-001	-8.70939E-004	8	..........a	0	-327.74
	56	0.114	2.93218E-001	8.40545E-006	0.00000E+000	2.94400E-001	-8.54272E-004	8	..........a	0	-327.74
	84	0.17	2.90443E-001	7.27971E-006	0.00000E+000	2.91600E-001	-7.95939E-004	8	..........a	0	-327.74
	112	0.226	2.87631E-001	5.75650E-006	0.00000E+000	2.88800E-001	-8.62605E-004	8	..........a	0	-327.74
	140	0.282	2.84856E-001	5.19529E-006	0.00000E+000	2.86000E-001	-8.29272E-004	8	..........a	0	-327.74
	168	0.338	2.82018E-001	5.01781E-006	0.00000E+000	2.83200E-001	-8.29272E-004	8	..........a	0	-327.74
	196	0.394	2.79277E-001	4.05122E-006	0.00000E+000	2.80400E-001	-8.45939E-004	8	..........a	0	-327.74
	224	0.45	2.76452E-001	3.93414E-006	0.00000E+000	2.77600E-001	-8.37606E-004	8	..........a	0	-327.74
	252	0.506	2.73593E-001	3.47585E-006	0.00000E+000	2.74800E-001	-8.20939E-004	8	..........a	0	-327.74
	280	0.562	2.70881E-001	3.59459E-006	0.00000E+000	2.72000E-001	-8.87605E-004	8	..........a	0	-327.74
	308	0.618	2.68052E-001	3.33003E-006	0.00000E+000	2.69200E-001	-8.45939E-004	8	..........a	0	-327.74
	336	0.674	2.65210E-001	3.24795E-006	0.00000E+000	2.66400E-001	-8.29272E-004	8	..........a	0	-327.74
	364	0.73	2.62431E-001	2.93839E-006	0.00000E+000	2.63600E-001	-8.45939E-004	8	..........a	0	-327.74
	392	0.786	2.59635E-001	3.23628E-006	0.00000E+000	2.60800E-001	-8.54272E-004	8	..........a	0	-327.74
	420	0.842	2.56839E-001	2.58342E-006	0.00000E+000	2.58000E-001	-8.95939E-004	8	..........a	0	-327.74
	448	0.898	2.54097E-001	3.31211E-006	0.00000E+000	2.55200E-001	-8.20939E-004	8	..........a	0	-327.74
	476	0.954	2.51239E-001	2.63841E-006	0.00000E+000	2.52400E-001	-7.87605E-004	8	..........a	0	-327.74
	504	1.01	2.48460E-001	2.63175E-006	0.00000E+000	2.49600E-001	-8.62605E-004	8	..........a	0	-327.74
	532	1.066	2.45706E-001	2.94589E-006	0.00000E+000	2.46800E-001	-8.54272E-004	8	..........a	0	-327.74
	560	1.122	2.42776E-001	2.71008E-006	0.00000E+000	2.44000E-001	-8.54272E-004	8	......s...a	0	-327.74
	588	1.178	2.39973E-001	2.42593E-006	0.00000E+000	2.41200E-001	-8.45939E-004	8	..........a	0	-327.74
	616	1.234	2.37178E-001	2.07179E-006	0.00000E+000	2.38400E-001	-8.04272E-004	8	..........a	0	-327.74
	644	1.29	2.34397E-001	2.49301E-006	0.00000E+000	2.35600E-001	-8.20939E-004	8	..........a	0	-327.74
	672	1.346	2.31591E-001	2.07971E-006	0.00000E+000	2.32800E-001	-8.04272E-004	8	..........a	0	-327.74
	700	1.402	2.28786E-001	2.08388E-006	0.00000E+000	2.30000E-001	-8.20939E-004	8	..........a	0	-327.74
	728	1.458	2.25991E-001	1.92264E-006	0.00000E+000	2.27200E-001	-8.45939E-004	8	..........a	0	-327.74
	756	1.514	2.23191E-001	1.86889E-006	0.00000E+000	2.24400E-001	-8.20939E-004	8	..........a	0	-327.74
	784	1.57	2.20393E-001	2.05596E-006	0.00000E+000	2.21600E-001	-8.29272E-004	8	..........a	0	-327.74
	812	1.626	2.17583E-001	1.53350E-006	0.00000E+000	2.18800E-001	-8.62605E-004	8	..........a	0	-327.74
	840	1.682	2.14801E-001	1.64641E-006	0.00000E+000	2.16000E-001	-8.20939E-004	8	..........a	0	-327.74
	868	1.738	2.11993E-001	1.05313E-006	0.00000E+000	2.13200E-001	-8.54272E-004	8	..........a	0	-327.74
	896	1.794	2.09193E-001	1.42768E-006	0.00000E+000	2.10400E-001	-8.29272E-004	8	..........a	0	-327.74
	924	1.85	2.06405E-001	1.17603E-006	0.00000E+000	2.07600E-001	-7.95939E-004	8	..........a	0	-327.74
	952	1.906	2.03592E-001	1.28977E-006	0.00000E+000	2.04800E-001	-8.54272E-004	8	..........a	0	-327.74
	980	1.962	2.00804E-001	1.10854E-006	0.00000E+000	2.02000E-001	-8.12605E-004	8	..........a	0	-327.74
	1008	2.018	1.98017E-001	1.20478E-006	0.00000E+000	1.99200E-001	-7.70939E-004	8	..........a	0	-327.74
	1036	2.074	1.95198E-001	1.13062E-006	0.00000E+000	1.96400E-001	-8.95939E-004	8	..........a	0	-327.74
	1064	2.13	1.92418E-001	1.06646E-006	0.00000E+000	1.93600E-001	-8.29272E-004	8	..........a	0	-327.74
	1092	2.186	1.89591E-001	5.16502E-007	0.00000E+000	1.90800E-001	-8.29272E-004	8	..........a	0	-327.74
	1120	2.242	1.86819E-001	8.64390E-007	0.00000E+000	1.88000E-001	-8.45939E-004	8	..........a	0	-327.74
	1148	2.298	1.84013E-001	5.32751E-007	0.00000E+000	1.85200E-001	-8.29272E-004	8	..........a	0	-327.74
	1176	2.354	1.81218E-001	5.41916E-007	0.00000E+000	1.82400E-001	-8.62605E-004	8	..........a	0	-327.74
	1204	2.41	1.78415E-001	5.31501E-007	0.00000E+000	1.79600E-001	-7.95939E-004	8	..........a	0	-327.74
	1232	2.466	1.75616E-001	7.53149E-007	0.00000E+000	1.76800E-001	-8.70939E-004	8	..........a	0	-327.74
	1260	2.522	1.72809E-001	6.35659E-007	0.00000E+000	1.74000E-001	-8.37606E-004	8	..........a	0	-327.74
	1288	2.578	1.70024E-001	6.47741E-007	0.00000E+000	1.71200E-001	-8.37606E-004	8	..........a	0	-327.74
	1316	2.634	1.67212E-001	2.16942E-007	0.00000E+000	1.68400E-001	-8.29272E-004	8	..........a	0	-327.74
	1344	2.69	1.64416E-001	6.16077E-007	0.00000E+000	1.65600E-001	-8.29272E-004	8	..........a	0	-327.74
	1372	2.746	1.61613E-001	3.79429E-007	0.00000E+000	1.62800E-001	-8.12605E-004	8	..........a	0	-327.74
	1400	2.802	1.58821E-001	5.65248E-007	0.00000E+000	1.60000E-001	-8.20939E-004	8	..........a	0	-327.74
	1428	2.858	1.56026E-001	3.96928E-007	0.00000E+000	1.57200E-001	-8.54272E-004	8	..........a	0	-327.74
	1456	2.914	1.53225E-001	7.37599E-009	0.00000E+000	1.54400E-001	-7.79272E-004	8	..........a	0	-327.74
	1484	2.97	1.50426E-001	3.65264E-007	0.00000E+000	1.51600E-001	-8.20939E-004	8	..........a	0	-327.74
	1512	3.026	1.47618E-001	4.20676E-007	0.00000E+000	1.48800E-001	-8.29272E-004	8	..........a	0	-327.74
	1540	3.082	1.44836E-001	-1.47056E-008	0.00000E+000	1.46000E-001	-8.45939E-004	8	..........a	0	-327.74
	1568	3.138	1.42027E-001	3.43182E-007	0.00000E+000	1.43200E-001	-8.45939E-004	8	..........a	0	-327.74
	1596	3.194	1.39228E-001	5.52332E-007	0.00000E+000	1.40400E-001	-7.87605E-004	8	..........a	0	-327.74
	1624	3.25	1.36418E-001	8.98694E-008	0.00000E+000	1.37600E-001	-8.37606E-004	8	..........a	0	-327.74
	1652	3.306	1.33628E-001	1.97777E-007	0.00000E+000	1.34800E-001	-8.29272E-004	8	..........a	0	-327.74
	1680	3.362	1.30831E-001	-1.83442E-007	0.00000E+000	1.32000E-001	-8.12605E-004	8	..........a	0	-327.74
	1708	3.418	1.28037E-001	-6.30350E-008	0.00000E+000	1.29200E-001	-8.54272E-004	8	..........a	0	-327.74
	1736	3.474	1.25240E-001	3.58181E-007	0.00000E+000	1.26400E-001	-8.12605E-004	8	..........a	0	-327.74
	1764	3.53	1.22431E-001	-1.16781E-007	0.00000E+000	1.23600E-001	-8.12605E-004	8	..........a	0	-327.74
	1792	3.586	1.19641E-001	1.98611E-007	0.00000E+000	1.20800E-001	-7.79272E-004	8	..........a	0	-327.74
	1820	3.642	1.16855E-001	-8.42833E-008	0.00000E+000	1.18000E-001	-8.20939E-004	8	..........a	0	-327.74
	1848	3.698	1.14044E-001	1.04035E-007	0.00000E+000	1.15200E-001	-7.70939E-004	8	..........a	0	-327.74
	1876	3.754	1.11246E-001	8.02868E-008	0.00000E+000	1.12400E-001	-7.95939E-004	8	..........a	0	-327.74
	1904	3.81	1.08446E-001	1.54313E-009	0.00000E+000	1.09600E-001	-8.12605E-004	8	..........a	0	-327.74
	1932	3.866	1.05645E-001	1.54313E-009	0.00000E+000	1.06800E-001	-8.20939E-004	8	..........a	0	-327.74
	1960	3.922	1.02852E-001	1.76112E-007	0.00000E+000	1.04000E-001	-8.12605E-004	8	..........a	0	-327.74
	1988	3.978	1.00058E-001	-5.42857E-008	0.00000E+000	1.01200E-001	-8.20939E-004	8	..........a	0	-327.74
	2016	4.034	9.72593E-002	-6.88679E-008	0.00000E+000	9.84000E-002	-8.04272E-004	8	..........a	0	-327.74
	2044	4.09	9.44468E-002	3.69569E-008	0.00000E+000	9.56000E-002	-8.37606E-004	8	..........a	0	-327.74
	2072	4.146	9.16668E-002	-3.19681E-007	0.00000E+000	9.28000E-002	-8.54272E-004	8	..........a	0	-327.74
	2100	4.202	8.88551E-002	3.61237E-008	0.00000E+000	9.00000E-002	-8.62605E-004	8	..........a	0	-327.74
	2128	4.258	8.60456E-002	-3.38846E-007	0.00000E+000	8.72000E-002	-8.29272E-004	8	..........a	0	-327.74
	2156	4.314	8.32526E-002	-2.84545E-008	0.00000E+000	8.44000E-002	-8.04272E-004	8	..........a	0	-327.74
	2184	4.37	8.04697E-002	-3.76204E-008	0.00000E+000	8.16000E-002	-8.54272E-004	8	..........a	0	-327.74
	2212	4.426	7.76551E-002	-1.66360E-007	0.00000E+000	7.88000E-002	-8.45939E-004	8	..........a	0	-327.74
	2240	4.482	7.48581E-002	-9.28934E-009	0.00000E+000	7.60000E-002	-8.20939E-004	8	..........a	0	-327.74
	2268	4.538	7.20606E-002	-1.71776E-007	0.00000E+000	7.32000E-002	-7.62605E-004	8	..........a	0	-327.74
	2296	4.594	6.92739E-002	-4.35089E-007	0.00000E+000	7.04000E-002	-8.37606E-004	8	..........a	0	-327.74
	2324	4.65	6.64735E-002	-2.29688E-007	0.00000E+000	6.76000E-002	-8.37606E-004	8	..........a	0	-327.74
	2352	4.706	6.36685E-002	-4.08841E-007	0.00000E+000	6.48000E-002	-8.37606E-004	8	..........a	0	-327.74
	2380	4.762	6.08764E-002	-3.42596E-007	0.00000E+000	6.20000E-002	-8.29272E-004	8	..........a	0	-327.74
	2408	4.818	5.80797E-002	1.15284E-007	0.00000E+000	5.92000E-002	-7.79272E-004	8	..........a	0	-327.74
	2436	4.874	5.52685E-002	-1.08448E-007	0.00000E+000	5.64000E-002	-7.87605E-004	8	..........a	0	-327.74
	2464	4.93	5.24868E-002	3.02908E-008	0.00000E+000	5.36000E-002	-8.37606E-004	8	..........a	0	-327.74
	2492	4.986	4.96931E-002	-4.41338E-007	0.00000E+000	5.08000E-002	-8.29272E-004	8	..........a	0	-327.74
	2520	5.042	4.68856E-002	-1.75526E-007	0.00000E+000	4.80000E-002	-8.62605E-004	8	..........a	0	-327.74
	2548	5.098	4.40668E-002	-5.31747E-007	0.00000E+000	4.52000E-002	-8.12605E-004	8	..........a	0	-327.74
	2576	5.154	4.12926E-002	-4.03008E-007	0.00000E+000	4.24000E-002	-8.04272E-004	8	..........a	0	-327.74
	2604	5.21	3.84868E-002	-6.34656E-007	0.00000E+000	3.96000E-002	-8.37606E-004	8	..........a	0	-327.74
	2632	5.266	3.56835E-002	-3.50929E-007	0.00000E+000	3.68000E-002	-8.54272E-004	8	..........a	0	-327.74
	2660	5.322	3.28793E-002	-5.80354E-008	0.00000E+000	3.40000E-002	-8.04272E-004	8	..........a	0	-327.74
	2688	5.378	3.00985E-002	-3.84537E-008	0.00000E+000	3.12000E-002	-8.37606E-004	8	..........a	0	-327.74
	2716	5.434	2.72989E-002	-3.50512E-007	0.00000E+000	2.84000E-002	-7.95939E-004	8	..........a	0	-327.74
	2744	5.49	2.44889E-002	-1.63027E-007	0.00000E+000	2.56000E-002	-8.37606E-004	8	..........a	0	-327.74
	2772	5.546	2.16928E-002	-2.76351E-007	0.00000E+000	2.28000E-002	-8.37606E-004	8	..........a	0	-327.74
	2800	5.602	1.88764E-002	-5.17998E-007	0.00000E+000	2.00000E-002	-8.45939E-004	8	..........a	0	-327.74
	2828	5.658	1.60778E-002	-3.13848E-007	0.00000E+000	1.72000E-002	-8.29272E-004	8	..........a	0	-327.74
	2856	5.714	1.32857E-002	-3.00933E-007	0.00000E+000	1.44000E-002	-8.45939E-004	8	..........a	0	-327.74
	2884	5.77	1.04774E-002	-2.67185E-007	0.00000E+000	1.16000E-002	-8.20939E-004	8	..........a	0	-327.74
	2912	5.826	7.69947E-003	-3.09682E-007	0.00000E+000	8.79997E-003	-8.37606E-004	8	..........a	0	-327.74
	2940	5.882	4.89331E-003	-5.40080E-007	0.00000E+000	5.99995E-003	-7.95939E-004	8	..........a	0	-327.74
	2968	5.938	2.10552E-003	-4.08007E-007	0.00000E+000	3.19996E-003	-8.29272E-004	8	..........a	0	-327.74
	2996	5.994	-6.98443E-004	-1.95108E-007	0.00000E+000	3.99977E-004	-8.45939E-004	8	..........a	0	-327.74
	3024	6.05	-3.50136E-003	-6.50488E-007	0.00000E+000	-2.40004E-003	-8.29272E-004	8	..........a	0	-327.74
	3052	6.106	-6.29528E-003	-3.88842E-007	0.00000E+000	-5.20003E-003	-8.29272E-004	8	..........a	0	-327.74
	3080	6.162	-9.09107E-003	-4.22173E-007	0.00000E+000	-8.00005E-003	-8.54272E-004	8	..........a	0	-327.74
	3108	6.218	-1.18894E-002	-2.03440E-007	0.00000E+000	-1.08000E-002	-8.12605E-004	8	..........a	0	-327.74
	3136	6.274	-1.46924E-002	-3.93842E-007	0.00000E+000	-1.36000E-002	-8.20939E-004	8	..........a	0	-327.74
	3164	6.33	-1.75103E-002	-4.58003E-007	0.00000E+000	-1.64000E-002	-8.20939E-004	8	..........a	0	-327.74
	3192	6.386	-2.02844E-002	-8.27974E-007	0.00000E+000	-1.92000E-002	-8.04272E-004	8	..........a	0	-327.74
	3220	6.442	-2.30863E-002	-5.05083E-007	0.00000E+000	-2.20000E-002	-8.45939E-004	8	..........a	0	-327.74
	3248	6.498	-2.58899E-002	-3.77593E-007	0.00000E+000	-2.48000E-002	-8.29272E-004	8	..........a	0	-327.74
	3276	6.554	-2.86819E-002	-4.94667E-007	0.00000E+000	-2.76000E-002	-8.45939E-004	8	..........a	0	-327.74
	3304	6.61	-3.15003E-002	-6.90901E-007	0.00000E+000	-3.04000E-002	-8.37606E-004	8	..........a	0	-327.74
	3332	6.666	-3.42794E-002	-6.03825E-007	0.00000E+000	-3.32000E-002	-7.87605E-004	8	..........a	0	-327.74
	3360	6.722	-3.70707E-002	-7.84504E-008	0.00000E+000	-3.60000E-002	-8.37606E-004	8	..........a	0	-327.74
	3388	6.778	-3.98640E-002	-2.90933E-007	0.00000E+000	-3.88000E-002	-7.87605E-004	8	..........a	0	-327.74
	3416	6.834	-4.26699E-002	-3.10098E-007	0.00000E+000	-4.16000E-002	-7.45939E-004	8	..........a	0	-327.74
	3444	6.89	-4.54582E-002	-7.92143E-007	0.00000E+000	-4.44000E-002	-8.29272E-004	8	..........a	0	-327.74
	3472	6.946	-4.82836E-002	-3.54262E-007	0.00000E+000	-4.72000E-002	-7.95939E-004	8	..........a	0	-327.74
	3500	7.002	-5.10711E-002	-5.07999E-007	0.00000E+000	-5.00000E-002	-8.20939E-004	8	..........a	0	-327.74
	3528	7.058	-5.38811E-002	-9.47547E-007	0.00000E+000	-5.28000E-002	-8.45939E-004	8	..........a	0	-327.74
	3556	7.114	-5.66765E-002	-4.63836E-007	0.00000E+000	-5.56000E-002	-8.29272E-004	8	..........a	0	-327.74
	3584	7.17	-5.94761E-002	-1.64277E-007	0.00000E+000	-5.84000E-002	-8.29272E-004	8	..........a	0	-327.74
	3612	7.226	-6.22690E-002	-4.36755E-007	0.00000E+000	-6.12000E-002	-8.54272E-004	8	..........a	0	-327.74
	3640	7.282	-6.50615E-002	-6.21740E-007	0.00000E+000	-6.40000E-002	-8.29272E-004	8	..........a	0	-327.74
	3668	7.338	-6.78757E-002	-8.86302E-007	0.00000E+000	-6.68000E-002	-8.04272E-004	8	..........a	0	-327.74
	3696	7.394	-7.06632E-002	-3.12598E-007	0.00000E+000	-6.96000E-002	-7.95939E-004	8	..........a	0	-327.74
	3724	7.45	-7.34594E-002	-7.52563E-007	0.00000E+000	-7.24000E-002	-8.04272E-004	8	..........a	0	-327.74
	3752	7.506	-7.62574E-002	-3.21764E-007	0.00000E+000	-7.52000E-002	-8.12605E-004	8	..........a	0	-327.74
	3780	7.562	-7.90594E-002	-7.29648E-007	0.00000E+000	-7.80000E-002	-8.45939E-004	8	..........a	0	-327.74
	3808	7.618	-8.18640E-002	-5.96326E-007	0.00000E+000	-8.08000E-002	-8.37606E-004	8	..........a	0	-327.74
	3836	7.674	-8.46674E-002	-7.75061E-007	0.00000E+000	-8.36000E-002	-8.12605E-004	8	..........a	0	-327.74
	3864	7.73	-8.74503E-002	-5.93409E-007	0.00000E+000	-8.64000E-002	-8.37606E-004	8	..........a	0	-327.74
	3892	7.786	-9.02553E-002	-6.80902E-007	0.00000E+000	-8.92000E-002	-8.45939E-004	8	..........a	0	-327.74
	3920	7.842	-9.30503E-002	-8.21724E-007	0.00000E+000	-9.20000E-002	-8.04272E-004	8	..........a	0	-327.74
	3948	7.898	-9.58586E-002	-9.16300E-007	0.00000E+000	-9.48000E-002	-7.95939E-004	8	..........a	0	-327.74
	3976	7.954	-9.86549E-002	-8.50055E-007	0.00000E+000	-9.76000E-002	-8.04272E-004	8	..........a	0	-327.74
	4004	8.01	-1.01445E-001	-5.17582E-007	0.00000E+000	-1.00400E-001	-8.04272E-004	8	..........a	0	-327.74
	4032	8.066	-1.04259E-001	-1.19628E-006	0.00000E+000	-1.03200E-001	-8.29272E-004	8	..........a	0	-327.74
	4060	8.122	-1.07045E-001	-9.79628E-007	0.00000E+000	-1.06000E-001	-8.12605E-004	8	..........a	0	-327.74
	4088	8.178	-1.09840E-001	-7.36314E-007	0.00000E+000	-1.08800E-001	-8.29272E-004	8	..........a	0	-327.74
	4116	8.234	-1.12652E-001	-4.70919E-007	0.00000E+000	-1.11600E-001	-8.12605E-004	8	..........a	0	-327.74
	4144	8.29	-1.15440E-001	-3.12182E-007	0.00000E+000	-1.14400E-001	-7.95939E-004	8	..........a	0	-327.74
	4172	8.346	-1.18230E-001	-6.90901E-007	0.00000E+000	-1.17200E-001	-8.54272E-004	8	..........a	0	-327.74
	4200	8.402	-1.21031E-001	-6.08825E-007	0.00000E+000	-1.20000E-001	-7.87605E-004	8	..........a	0	-327.74
	4228	8.458	-1.23839E-001	-8.69220E-007	0.00000E+000	-1.22800E-001	-7.87605E-004	8	..........a	0	-327.74
	4256	8.514	-1.26635E-001	-5.50079E-007	0.00000E+000	-1.25600E-001	-8.45939E-004	8	..........a	0	-327.74
	4284	8.57	-1.29446E-001	-8.81303E-007	0.00000E+000	-1.28400E-001	-7.79272E-004	8	..........a	0	-327.74
	4312	8.626	-1.32235E-001	-8.00476E-007	0.00000E+000	-1.31200E-001	-7.87605E-004	8	..........a	0	-327.74
	4340	8.682	-1.35026E-001	-1.01296E-006	0.00000E+000	-1.34000E-001	-8.04272E-004	8	..........a	0	-327.74
	4368	8.738	-1.37843E-001	-1.54042E-006	0.00000E+000	-1.36800E-001	-8.29272E-004	8	..........a	0	-327.74
	4396	8.794	-1.40639E-001	-1.01421E-006	0.00000E+000	-1.39600E-001	-7.87605E-004	8	..........a	0	-327.74
	4424	8.85	-1.43434E-001	-9.59213E-007	0.00000E+000	-1.42400E-001	-7.95939E-004	8	..........a	0	-327.74
	4452	8.906	-1.46236E-001	-1.02337E-006	0.00000E+000	-1.45200E-001	-8.12605E-004	8	..........a	0	-327.74
	4480	8.962	-1.49013E-001	-7.99643E-007	0.00000E+000	-1.48000E-001	-7.95939E-004	8	..........a	0	-327.74
	4508	9.018	-1.51817E-001	-9.44214E-007	0.00000E+000	-1.50800E-001	-8.12605E-004	8	..........a	0	-327.74
	4536	9.074	-1.54629E-001	-6.10491E-007	0.00000E+000	-1.53600E-001	-7.70939E-004	8	..........a	0	-327.74
	4564	9.13	-1.57425E-001	-1.15045E-006	0.00000E+000	-1.56400E-001	-8.04272E-004	8	..........a	0	-327.74
	4592	9.186	-1.60242E-001	-1.01837E-006	0.00000E+000	-1.59200E-001	-8.62605E-004	8	..........a	0	-327.74
	4620	9.242	-1.63025E-001	-1.10087E-006	0.00000E+000	-1.62000E-001	-7.95939E-004	8	..........a	0	-327.74
	4648	9.298	-1.65845E-001	-1.17878E-006	0.00000E+000	-1.64800E-001	-8.12605E-004	8	..........a	0	-327.74
	4676	9.354	-1.68622E-001	-9.77545E-007	0.00000E+000	-1.67600E-001	-8.54272E-004	8	..........a	0	-327.74
	4704	9.41	-1.71426E-001	-1.45042E-006	0.00000E+000	-1.70400E-001	-8.37606E-004	8	..........a	0	-327.74
	4732	9.466	-1.74244E-001	-1.47917E-006	0.00000E+000	-1.73200E-001	-8.12605E-004	8	..........a	0	-327.74
	4760	9.522	-1.77019E-001	-1.24877E-006	0.00000E+000	-1.76000E-001	-7.79272E-004	8	..........a	0	-327.74
	4788	9.578	-1.79834E-001	-1.20086E-006	0.00000E+000	-1.78800E-001	-8.04272E-004	8	..........a	0	-327.74
	4816	9.634	-1.82612E-001	-1.70249E-006	0.00000E+000	-1.81600E-001	-8.54272E-004	8	..........a	0	-327.74
	4844	9.69	-1.85416E-001	-1.26711E-006	0.00000E+000	-1.84400E-001	-8.45939E-004	8	..........a	0	-327.74
	4872	9.746	-1.88212E-001	-1.55583E-006	0.00000E+000	-1.87200E-001	-8.12605E-004	8	..........a	0	-327.74
	4900	9.802	-1.91023E-001	-1.28710E-006	0.00000E+000	-1.90000E-001	-8.20939E-004	8	..........a	0	-327.74
	4928	9.858	-1.93797E-001	-1.21169E-006	0.00000E+000	-1.92800E-001	-8.45939E-004	8	..........a	0	-327.74
	4956	9.914	-1.96616E-001	-1.45751E-006	0.00000E+000	-1.95600E-001	-8.37606E-004	8	..........a	0	-327.74
	4984	9.97	-1.99399E-001	-1.34335E-006	0.00000E+000	-1.98400E-001	-8.29272E-004	8	..........a	0	-327.74
	5012	10.026	-2.02214E-001	-1.58083E-006	0.00000E+000	-2.01200E-001	-7.79272E-004	8	..........a	0	-327.74
	5040	10.082	-2.05006E-001	-1.72790E-006	0.00000E+000	-2.04000E-001	-8.37606E-004	8	..........a	0	-327.74
	5068	10.138	-2.07800E-001	-1.61249E-006	0.00000E+000	-2.06800E-001	-7.87605E-004	8	..........a	0	-327.74
	5096	10.194	-2.10599E-001	-1.54208E-006	0.00000E+000	-2.09600E-001	-7.95939E-004	8	..........a	0	-327.74
	5124	10.25	-2.13396E-001	-1.38335E-006	0.00000E+000	-2.12400E-001	-8.04272E-004	8	..........a	0	-327.74
	5152	10.306	-2.16197E-001	-1.84248E-006	0.00000E+000	-2.15200E-001	-8.12605E-004	8	..........a	0	-327.74
	5180	10.362	-2.18991E-001	-1.67249E-006	0.00000E+000	-2.18000E-001	-7.54272E-004	8	..........a	0	-327.74
	5208	10.418	-2.21798E-001	-1.47792E-006	0.00000E+000	-2.20800E-001	-7.87605E-004	8	..........a	0	-327.74
	5236	10.474	-2.24596E-001	-1.63583E-006	0.00000E+000	-2.23600E-001	-8.20939E-004	8	..........a	0	-327.74
	5264	10.53	-2.27392E-001	-1.52083E-006	0.00000E+000	-2.26400E-001	-8.45939E-004	8	..........a	0	-327.74
	5292	10.586	-2.30206E-001	-2.02163E-006	0.00000E+000	-2.29200E-001	-8.04272E-004	8	..........a	0	-327.74
	5320	10.642	-2.32996E-001	-2.14578E-006	0.00000E+000	-2.32000E-001	-7.79272E-004	8	..........a	0	-327.74
	5348	10.698	-2.35804E-001	-1.69249E-006	0.00000E+000	-2.34800E-001	-8.62605E-004	8	..........a	0	-327.74
	5376	10.754	-2.38589E-001	-1.89539E-006	0.00000E+000	-2.37600E-001	-7.95939E-004	8	..........a	0	-327.74
	5404	10.81	-2.41378E-001	-2.05163E-006	0.00000E+000	-2.40400E-001	-8.70939E-004	8	..........a	0	-327.74
	5432	10.866	-2.44179E-001	-1.82998E-006	0.00000E+000	-2.43200E-001	-7.95939E-004	8	..........a	0	-327.74
	5460	10.922	-2.46978E-001	-1.83164E-006	0.00000E+000	-2.46000E-001	-8.54272E-004	8	..........a	0	-327.74
	5488	10.978	-2.49791E-001	-2.07787E-006	0.00000E+000	-2.48800E-001	-8.12605E-004	8	..........a	0	-327.74
	5516	11.034	-2.52582E-001	-1.71707E-006	0.00000E+000	-2.51600E-001	-8.29272E-004	8	..........a	0	-327.74
	5544	11.09	-2.55378E-001	-1.92289E-006	0.00000E+000	-2.54400E-001	-8.12605E-004	8	..........a	0	-327.74
	5572	11.146	-2.58164E-001	-1.88914E-006	0.00000E+000	-2.57200E-001	-8.04272E-004	8	..........a	0	-327.74
	5600	11.202	-2.60979E-001	-1.56875E-006	0.00000E+000	-2.60000E-001	-8.62605E-004	8	..........a	0	-327.74
	5628	11.258	-2.63782E-001	-2.08912E-006	0.00000E+000	-2.62800E-001	-8.04272E-004	8	..........a	0	-327.74
	5656	11.314	-2.66569E-001	-2.48409E-006	0.00000E+000	-2.65600E-001	-8.45939E-004	8	......s...a	0	-327.74
	5684	11.37	-2.69311E-001	-1.73373E-006	0.00000E+000	-2.68400E-001	-8.29272E-004	8	..........a	0	-327.74
	5712	11.426	-2.72132E-001	-2.06162E-006	0.00000E+000	-2.71200E-001	-8.62605E-004	8	..........a	0	-327.74
	5740	11.482	-2.74894E-001	-2.26619E-006	0.00000E+000	-2.74000E-001	-8.62605E-004	8	..........a	0	-327.74
	5768	11.538	-2.77703E-001	-2.34952E-006	0.00000E+000	-2.76800E-001	-8.79272E-004	8	..........a	0	-327.74
	5796	11.594	-2.80503E-001	-2.37827E-006	0.00000E+000	-2.79600E-001	-7.70939E-004	8	..........a	0	-327.74
	5824	11.65	-2.83278E-001	-1.90664E-006	0.00000E+000	-2.82400E-001	-8.04272E-004	8	..........a	0	-327.74
	5852	11.706	-2.86119E-001	-2.26078E-006	0.00000E+000	-2.85200E-001	-8.12605E-004	8	..........a	0	-327.74
	5880	11.762	-2.88907E-001	-2.23828E-006	0.00000E+000	-2.88000E-001	-8.54272E-004	8	..........a	0	-327.74
	5908	11.818	-2.91698E-001	-2.51825E-006	0.00000E+000	-2.90800E-001	-8.62605E-004	8	..........a	0	-327.74
	5936	11.874	-2.94540E-001	-2.62950E-006	0.00000E+000	-2.93600E-001	-8.62605E-004	8	..........a	0	-327.74
	5964	11.93	-2.97311E-001	-2.25328E-006	0.00000E+000	-2.96400E-001	-8.20939E-004	8	..........a	0	-327.74
	5992	11.986	-3.00082E-001	-2.73615E-006	0.00000E+000	-2.99200E-001	-8.62605E-004	8	..........a	0	-327.74
	6020	12.042	-3.02882E-001	-2.36118E-006	0.00000E+000	-3.02000E-001	-7.87605E-004	8	..........a	0	-327.74
	6048	12.098	-3.05719E-001	-2.78407E-006	0.00000E+000	-3.04800E-001	-8.29272E-004	8	..........a	0	-327.74
	6076	12.154	-3.08486E-001	-2.58450E-006	0.00000E+000	-3.07600E-001	-7.79272E-004	8	..........a	0	-327.74
	6104	12.21	-3.11290E-001	-2.92697E-006	0.00000E+000	-3.10400E-001	-8.29272E-004	8	..........a	0	-327.74
	6132	12.266	-3.14136E-001	-2.78407E-006	0.00000E+000	-3.13200E-001	-7.70939E-004	8	..........a	0	-327.74
	6160	12.322	-3.16944E-001	-2.69741E-006	0.00000E+000	-3.16000E-001	-7.95939E-004	8	..........a	0	-327.74
	6188	12.378	-3.19698E-001	-2.87448E-006	0.00000E+000	-3.18800E-001	-8.20939E-004	8	..........a	0	-327.74
	6216	12.434	-3.22532E-001	-3.52317E-006	0.00000E+000	-3.21600E-001	-8.29272E-004	8	..........a	0	-327.74
	6244	12.49	-3.25286E-001	-3.45693E-006	0.00000E+000	-3.24400E-001	-7.79272E-004	8	..........a	0	-327.74
	6272	12.546	-3.28094E-001	-3.08988E-006	0.00000E+000	-3.27200E-001	-8.12605E-004	8	..........a	0	-327.74
	6300	12.602	-3.30915E-001	-3.30527E-006	0.00000E+000	-3.30000E-001	-7.87605E-004	8	..........a	0	-327.74
	6328	12.658	-3.33686E-001	-3.85981E-006	0.00000E+000	-3.32800E-001	-8.45939E-004	8	..........a	0	-327.74
	6356	12.714	-3.36494E-001	-4.04563E-006	0.00000E+000	-3.35600E-001	-7.79272E-004	8	..........a	0	-327.74
	6384	12.77	-3.39294E-001	-3.37402E-006	0.00000E+000	-3.38400E-001	-8.37606E-004	8	..........a	0	-327.74
	6412	12.826	-3.42136E-001	-3.96356E-006	0.00000E+000	-3.41200E-001	-8.12605E-004	8	..........a	0	-327.74
	6440	12.882	-3.44982E-001	-4.14104E-006	0.00000E+000	-3.44000E-001	-8.04272E-004	8	..........a	0	-327.74
	6468	12.938	-3.47657E-001	-4.34727E-006	0.00000E+000	-3.46800E-001	-7.29272E-004	8	..........a	0	-327.74
	6496	12.994	-3.50465E-001	-5.06638E-006	0.00000E+000	-3.49600E-001	-8.29272E-004	8	..........a	0	-327.74
	6524	13.05	-3.53278E-001	-5.42010E-006	0.00000E+000	-3.52400E-001	-8.37606E-004	8	..........a	0	-327.74
	6552	13.106	-3.56115E-001	-5.60884E-006	0.00000E+000	-3.55200E-001	-8.20939E-004	8	..........a	0	-327.74
	6580	13.162	-3.58840E-001	-6.07880E-006	0.00000E+000	-3.58000E-001	-7.95939E-004	8	..........a	0	-327.74
	6608	13.218	-3.61711E-001	-6.20171E-006	0.00000E+000	-3.60800E-001	-8.37606E-004	8	..........a	0	-327.74
	6636	13.274	-3.64486E-001	-7.05872E-006	0.00000E+000	-3.63600E-001	-7.79272E-004	8	..........a	0	-327.74
	6664	13.33	-3.67273E-001	-7.50952E-006	0.00000E+000	-3.66400E-001	-7.79272E-004	8	..........a	0	-327.74
	6692	13.386	-3.70073E-001	-7.88157E-006	0.00000E+000	-3.69200E-001	-8.45939E-004	8	..........a	0	-327.74
	6720	13.442	-3.72882E-001	-9.04815E-006	0.00000E+000	-3.72000E-001	-8.45939E-004	8	..........a	0	-327.74
	6748	13.498	-3.75698E-001	-8.99523E-006	0.00000E+000	-3.74800E-001	-7.79272E-004	8	..........a	0	-327.74
	6776	13.554	-3.78536E-001	-9.81017E-006	0.00000E+000	-3.77600E-001	-7.95939E-004	8	..........a	0	-327.74
	6804	13.61	-3.81261E-001	-1.06226E-005	0.00000E+000	-3.80400E-001	-8.70939E-004	8	..........a	0	-327.74
	6832	13.666	-3.84032E-001	-1.17538E-005	0.00000E+000	-3.83200E-001	-7.79272E-004	8	..........a	0	-327.74
	6860	13.722	-3.86811E-001	-1.22858E-005	0.00000E+000	-3.86000E-001	-8.29272E-004	8	..........a	0	-327.74
	6888	13.778	-3.89669E-001	-1.33116E-005	0.00000E+000	-3.88800E-001	-8.70939E-004	8	..........a	0	-327.74
	6916	13.834	-3.92436E-001	-1.47794E-005	0.00000E+000	-3.91600E-001	-7.70939E-004	8	..........a	0	-327.74
	6944	13.89	-3.95307E-001	-1.56418E-005	0.00000E+000	-3.94400E-001	-8.04272E-004	8	..........a	0	-327.74
	6972	13.946	-3.98011E-001	-1.69354E-005	0.00000E+000	-3.97200E-001	-8.12605E-004	8	..........a	0	-327.74
	7000	14.002	-4.00848E-001	-1.85786E-005	0.00000E+000	-4.00000E-001	-8.12605E-004	8	..........a	0	-327.74
	7028	14.058	-4.03607E-001	-2.05014E-005	0.00000E+000	-4.02800E-001	-8.04272E-004	8	..........a	0	-327.74
	7056	14.114	-4.06490E-001	-2.17655E-005	0.00000E+000	-4.05600E-001	-7.95939E-004	8	..........a	0	-327.74
	7084	14.17	-4.09236E-001	-2.34637E-005	0.00000E+000	-4.08400E-001	-8.45939E-004	8	..........a	0	-327.74
	7112	14.226	-4.12019E-001	-2.54818E-005	0.00000E+000	-4.11200E-001	-8.20939E-004	8	..........a	0	-327.74
	7140	14.282	-4.14840E-001	-2.75929E-005	0.00000E+000	-4.14000E-001	-8.29272E-004	8	..........a	0	-327.74
	7168	14.338	-4.17657E-001	-3.04552E-005	0.00000E+000	-4.16800E-001	-8.45939E-004	8	..........a	0	-327.74
	7196	14.394	-4.20440E-001	-3.25817E-005	0.00000E+000	-4.19600E-001	-8.37606E-004	8	..........a	0	-327.74
	7224	14.45	-4.23248E-001	-3.51835E-005	0.00000E+000	-4.22400E-001	-8.04272E-004	8	..........a	0	-327.74
	7252	14.506	-4.25998E-001	-3.76975E-005	0.00000E+000	-4.25200E-001	-8.04272E-004	8	..........a	0	-327.74
	7280	14.562	-4.28798E-001	-4.05002E-005	0.00000E+000	-4.28000E-001	-8.70939E-004	8	..........a	0	-327.74
	7308	14.618	-4.31582E-001	-4.34483E-005	0.00000E+000	-4.30800E-001	-7.87605E-004	8	..........a	0	-327.74
	7336	14.674	-4.34398E-001	-4.64789E-005	0.00000E+000	-4.33600E-001	-8.04272E-004	8	..........a	0	-327.74
	7364	14.73	-4.37182E-001	-5.03248E-005	0.00000E+000	-4.36400E-001	-8.04272E-004	8	..........a	0	-327.74
	7392	14.786	-4.40003E-001	-5.42491E-005	0.00000E+000	-4.39200E-001	-8.04272E-004	8	..........a	0	-327.74
	7420	14.842	-4.42828E-001	-5.80946E-005	0.00000E+000	-4.42000E-001	-8.04272E-004	8	..........a	0	-327.74
	7448	14.898	-4.45565E-001	-6.18489E-005	0.00000E+000	-4.44800E-001	-7.37606E-004	8	..........a	0	-327.74
	7476	14.954	-4.48365E-001	-6.64023E-005	0.00000E+000	-4.47600E-001	-8.37606E-004	8	..........a	0	-327.74
	7504	15.01	-4.51182E-001	-7.09898E-005	0.00000E+000	-4.50400E-001	-8.20939E-004	8	..........a	0	-327.74
	7532	15.066	-4.53990E-001	-7.52082E-005	0.00000E+000	-4.53200E-001	-8.29272E-004	8	..........a	0	-327.74
	7560	15.122	-4.56765E-001	-7.95367E-005	0.00000E+000	-4.56000E-001	-7.95939E-004	8	..........a	0	-327.74
	7588	15.178	-4.59565E-001	-8.44400E-005	0.00000E+000	-4.58800E-001	-8.04272E-004	8	..........a	0	-327.74
	7616	15.234	-4.62353E-001	-9.00583E-005	0.00000E+000	-4.61600E-001	-8.20939E-004	8	..........a	0	-327.74
	7644	15.29	-4.65161E-001	-9.55229E-005	0.00000E+000	-4.64400E-001	-7.54272E-004	8	..........a	0	-327.74
	7672	15.346	-4.67907E-001	-1.01123E-004	0.00000E+000	-4.67200E-001	-8.29272E-004	8	..........a	0	-327.74
	7700	15.402	-4.70736E-001	-1.06427E-004	0.00000E+000	-4.70000E-001	-8.12605E-004	8	..........a	0	-327.74
	7728	15.458	-4.73511E-001	-1.12641E-004	0.00000E+000	-4.72800E-001	-8.04272E-004	8	..........a	0	-327.74
	7756	15.514	-4.76315E-001	-1.18881E-004	0.00000E+000	-4.75600E-001	-8.29272E-004	8	..........a	0	-327.74
	7784	15.57	-4.79103E-001	-1.25347E-004	0.00000E+000	-4.78400E-001	-8.04272E-004	8	..........a	0	-327.74
	7812	15.626	-4.81928E-001	-1.31740E-004	0.00000E+000	-4.81200E-001	-8.37606E-004	8	..........a	0	-327.74
	7840	15.682	-4.84678E-001	-1.38884E-004	0.00000E+000	-4.84000E-001	-7.79272E-004	8	..........a	0	-327.74
	7868	15.738	-4.87478E-001	-1.46743E-004	0.00000E+000	-4.86800E-001	-8.04272E-004	8	..........a	0	-327.74
	7896	15.794	-4.90236E-001	-1.53729E-004	0.00000E+000	-4.89600E-001	-8.45939E-004	8	..........a	0	-327.74
	7924	15.85	-4.93094E-001	-1.62390E-004	0.00000E+000	-4.92400E-001	-8.45939E-004	8	..........a	0	-327.74
	7952	15.906	-4.95911E-001	-1.69939E-004	0.00000E+000	-4.95200E-001	-8.70939E-004	8	..........a	0	-327.74
	7980	15.962	-4.98636E-001	-1.79069E-004	0.00000E+000	-4.98000E-001	-8.04272E-004	8	..........a	0	-327.74
	8008	16.018	-5.01419E-001	-1.88567E-004	0.00000E+000	-5.00800E-001	-8.45939E-004	8	..........a	0	-327.74
	8036	16.074	-5.04261E-001	-1.97142E-004	0.00000E+000	-5.03600E-001	-8.37606E-004	8	..........a	0	-327.74
	8064	16.13	-5.07023E-001	-2.06688E-004	0.00000E+000	-5.06400E-001	-7.87605E-004	8	..........a	0	-327.74
	8092	16.186	-5.09857E-001	-2.17185E-004	0.00000E+000	-5.09200E-001	-8.29272E-004	8	..........a	0	-327.74
	8120	16.242	-5.12540E-001	-2.28304E-004	0.00000E+000	-5.12000E-001	-8.54272E-004	8	..........a	0	-327.74
	8148	16.298	-5.15328E-001	-2.38995E-004	0.00000E+000	-5.14800E-001	-8.37606E-004	8	..........a	0	-327.74
	8176	16.354	-5.18157E-001	-2.49796E-004	0.00000E+000	-5.17600E-001	-8.29272E-004	8	..........a	0	-327.74
	8204	16.41	-5.20936E-001	-2.62722E-004	0.00000E+000	-5.20400E-001	-8.12605E-004	8	..........a	0	-327.74
	8232	16.466	-5.23992E-001	-2.76588E-004	0.00000E+000	-5.23200E-001	-8.29272E-004	9	..........a	0	-327.74
	8260	16.522	-5.26750E-001	-2.87315E-004	0.00000E+000	-5.26000E-001	-8.04272E-004	9	..........a	0	-327.74
	8288	16.578	-5.29587E-001	-3.00043E-004	0.00000E+000	-5.28800E-001	-8.20939E-004	9	..........a	0	-327.74
	8316	16.634	-5.32383E-001	-3.13783E-004	0.00000E+000	-5.31600E-001	-8.29272E-004	9	..........a	0	-327.74
	8344	16.69	-5.35204E-001	-3.27573E-004	0.00000E+000	-5.34400E-001	-7.87605E-004	9	..........a	0	-327.74
	8372	16.746	-5.37950E-001	-3.41483E-004	0.00000E+000	-5.37200E-001	-7.95939E-004	9	..........a	0	-327.74
	8400	16.802	-5.40762E-001	-3.54320E-004	0.00000E+000	-5.40000E-001	-8.20939E-004	9	..........a	0	-327.74
	8428	16.858	-5.43558E-001	-3.66739E-004	0.00000E+000	-5.42800E-001	-8.29272E-004	9	..........a	0	-327.74
	8456	16.914	-5.46321E-001	-3.80546E-004	0.00000E+000	-5.45600E-001	-8.12605E-004	9	..........a	0	-327.74
	8484	16.97	-5.49087E-001	-3.92104E-004	0.00000E+000	-5.48400E-001	-8.45939E-004	9	..........a	0	-327.74
	8512	17.026	-5.51962E-001	-4.03700E-004	0.00000E+000	-5.51200E-001	-8.12605E-004	9	..........a	0	-327.74
	8540	17.082	-5.54754E-001	-4.16725E-004	0.00000E+000	-5.54000E-001	-7.79272E-004	9	..........a	0	-327.74
	8568	17.138	-5.57504E-001	-4.27673E-004	0.00000E+000	-5.56800E-001	-8.29272E-004	9	..........a	0	-327.74
	8596	17.194	-5.60358E-001	-4.37823E-004	0.00000E+000	-5.59600E-001	-8.20939E-004	9	..........a	0	-327.74
	8624	17.25	-5.63146E-001	-4.48019E-004	0.00000E+000	-5.62400E-001	-7.87605E-004	9	..........a	0	-327.74
	8652	17.306	-5.65912E-001	-4.58169E-004	0.00000E+000	-5.65200E-001	-8.45939E-004	9	..........a	0	-327.74
	8680	17.362	-5.68704E-001	-4.67371E-004	0.00000E+000	-5.68000E-001	-8.12605E-004	9	..........a	0	-327.74
	8708	17.418	-5.71537E-001	-4.73438E-004	0.00000E+000	-5.70800E-001	-8.12605E-004	9	..........a	0	-327.74
	8736	17.474	-5.74371E-001	-4.79217E-004	0.00000E+000	-5.73600E-001	-8.12605E-004	9	..........a	0	-327.74
	8764	17.53	-5.77108E-001	-4.87499E-004	0.00000E+000	-5.76400E-001	-9.12605E-004	9	..........a	0	-327.74
	8792	17.586	-5.79887E-001	-4.95184E-004	0.00000E+000	-5.79200E-001	-8.37606E-004	9	..........a	0	-327.74
	8820	17.642	-5.82746E-001	-5.01047E-004	0.00000E+000	-5.82000E-001	-8.29272E-004	9	..........a	0	-327.74
	8848	17.698	-5.85546E-001	-5.06688E-004	0.00000E+000	-5.84800E-001	-8.95939E-004	9	..........a	0	-327.74
	8876	17.754	-5.88317E-001	-5.10081E-004	0.00000E+000	-5.87600E-001	-8.37606E-004	9	..........a	0	-327.74
	8904	17.81	-5.91092E-001	-5.11635E-004	0.00000E+000	-5.90400E-001	-8.04272E-004	9	..........a	0	-327.74
	8932	17.866	-5.93892E-001	-5.14924E-004	0.00000E+000	-5.93200E-001	-8.12605E-004	9	..........a	0	-327.74
	8960	17.922	-5.96737E-001	-5.19425E-004	0.00000E+000	-5.96000E-001	-8.20939E-004	9	..........a	0	-327.74
	8988	17.978	-5.99500E-001	-5.23173E-004	0.00000E+000	-5.98800E-001	-8.04272E-004	9	..........a	0	-327.74
	9016	18.034	-6.02312E-001	-5.24869E-004	0.00000E+000	-6.01600E-001	-7.95939E-004	9	..........a	0	-327.74
	9044	18.09	-6.05137E-001	-5.25530E-004	0.00000E+000	-6.04400E-001	-8.29272E-004	9	..........a	0	-327.74
	9072	18.146	-6.07937E-001	-5.27360E-004	0.00000E+000	-6.07200E-001	-8.20939E-004	9	..........a	0	-327.74
	9100	18.202	-6.10687E-001	-5.31158E-004	0.00000E+000	-6.10000E-001	-8.29272E-004	9	..........a	0	-327.74
	9128	18.258	-6.13542E-001	-5.34610E-004	0.00000E+000	-6.12800E-001	-8.04272E-004	9	..........a	0	-327.74
	9156	18.314	-6.16279E-001	-5.36774E-004	0.00000E+000	-6.15600E-001	-7.87605E-004	9	..........a	0	-327.74
	9184	18.37	-6.19142E-001	-5.37677E-004	0.00000E+000	-6.18400E-001	-8.20939E-004	9	..........a	0	-327.74
	9212	18.426	-6.21879E-001	-5.38851E-004	0.00000E+000	-6.21200E-001	-7.70939E-004	9	..........a	0	-327.74
	9240	18.482	-6.24662E-001	-5.39837E-004	0.00000E+000	-6.24000E-001	-7.95939E-004	9	..........a	0	-327.74
	9268	18.538	-6.27500E-001	-5.39541E-004	0.00000E+000	-6.26800E-001	-8.04272E-004	9	..........a	0	-327.74
	9296	18.594	-6.30304E-001	-5.39215E-004	0.00000E+000	-6.29600E-001	-8.54272E-004	9	..........a	0	-327.74
	9324	18.65	-6.33096E-001	-5.41220E-004	0.00000E+000	-6.32400E-001	-8.04272E-004	9	..........a	0	-327.74
	9352	18.706	-6.35858E-001	-5.43272E-004	0.00000E+000	-6.35200E-001	-8.20939E-004	9	..........a	0	-327.74
	9380	18.762	-6.38671E-001	-5.44660E-004	0.00000E+000	-6.38000E-001	-8.45939E-004	9	..........a	0	-327.74
	9408	18.818	-6.41521E-001	-5.46197E-004	0.00000E+000	-6.40800E-001	-8.04272E-004	9	..........a	0	-327.74
	9436	18.874	-6.44300E-001	-5.45474E-004	0.00000E+000	-6.43600E-001	-7.70939E-004	9	..........a	0	-327.74
	9464	18.93	-6.47079E-001	-5.45153E-004	0.00000E+000	-6.46400E-001	-8.12605E-004	9	..........a	0	-327.74
	9492	18.986	-6.49883E-001	-5.46473E-004	0.00000E+000	-6.49200E-001	-8.20939E-004	9	..........a	0	-327.74
	9520	19.042	-6.52692E-001	-5.47944E-004	0.00000E+000	-6.52000E-001	-8.12605E-004	9	..........a	0	-327.74
	9548	19.098	-6.55471E-001	-5.47263E-004	0.00000E+000	-6.54800E-001	-8.37606E-004	9	..........a	0	-327.74
	9576	19.154	-6.58242E-001	-5.47994E-004	0.00000E+000	-6.57600E-001	-8.54272E-004	9	..........a	0	-327.74
	9604	19.21	-6.61079E-001	-5.48650E-004	0.00000E+000	-6.60400E-001	-7.79272E-004	9	..........a	0	-327.74
	9632	19.266	-6.63912E-001	-5.49202E-004	0.00000E+000	-6.63200E-001	-8.62605E-004	9	..........a	0	-327.74
	9660	19.322	-6.66687E-001	-5.49628E-004	0.00000E+000	-6.66000E-001	-8.04272E-004	9	..........a	0	-327.74
	9688	19.378	-6.69404E-001	-5.48796E-004	0.00000E+000	-6.68800E-001	-8.12605E-004	9	..........a	0	-327.74
	9716	19.434	-6.72317E-001	-5.49026E-004	0.00000E+000	-6.71600E-001	-8.29272E-004	9	..........a	0	-327.74
	9744	19.49	-6.75137E-001	-5.48634E-004	0.00000E+000	-6.74400E-001	-8.04272E-004	9	..........a	0	-327.74
	9772	19.546	-6.77875E-001	-5.49160E-004	0.00000E+000	-6.77200E-001	-8.54272E-004	9	..........a	0	-327.74
	9800	19.602	-6.80633E-001	-5.50338E-004	0.00000E+000	-6.80000E-001	-7.79272E-004	9	..........a	0	-327.74
	9828	19.658	-6.83442E-001	-5.50564E-004	0.00000E+000	-6.82800E-001	-8.62605E-004	9	..........a	0	-327.74
	9856	19.714	-6.86292E-001	-5.48558E-004	0.00000E+000	-6.85600E-001	-8.29272E-004	9	..........a	0	-327.74
	9884	19.77	-6.89108E-001	-5.47497E-004	0.00000E+000	-6.88400E-001	-8.29272E-004	9	..........a	0	-327.74
	9912	19.826	-6.91821E-001	-5.48700E-004	0.00000E+000	-6.91200E-001	-7.95939E-004	9	..........a	0	-327.74
	9940	19.882	-6.94646E-001	-5.49603E-004	0.00000E+000	-6.94000E-001	-8.29272E-004	9	..........a	0	-327.74
	9968	19.938	-6.97508E-001	-5.49858E-004	0.00000E+000	-6.96800E-001	-7.79272E-004	9	..........a	0	-327.74
	9996	19.994	-7.00254E-001	-5.51187E-004	0.00000E+000	-6.99600E-001	-8.79272E-004	9	..........a	0	-327.74
	10024	20.05	-7.03012E-001	-5.51208E-004	0.00000E+000	-7.02400E-001	-8.04272E-004	9	..........a	0	-327.74
	10052	20.106	-7.05896E-001	-5.50418E-004	0.00000E+000	-7.05200E-001	-8.04272E-004	9	..........a	0	-327.74
	10080	20.162	-7.08687E-001	-5.46369E-004	0.00000E+000	-7.08000E-001	-8.20939E-004	9	..........a	0	-327.74
	10108	20.218	-7.11483E-001	-5.49732E-004	0.00000E+000	-7.10800E-001	-8.29272E-004	9	..........a	0	-327.74
	10136	20.274	-7.14233E-001	-5.52148E-004	0.00000E+000	-7.13600E-001	-8.12605E-004	9	..........a	0	-327.74
	10164	20.33	-7.17075E-001	-5.52490E-004	0.00000E+000	-7.16400E-001	-8.20939E-004	9	..........a	0	-327.74
	10192	20.386	-7.19896E-001	-5.52720E-004	0.00000E+000	-7.19200E-001	-7.95939E-004	9	..........a	0	-327.74
	10220	20.442	-7.22646E-001	-5.54784E-004	0.00000E+000	-7.22000E-001	-8.37606E-004	9	..........a	0	-327.74
	10248	20.498	-7.25346E-001	-5.55181E-004	0.00000E+000	-7.24800E-001	-8.29272E-004	9	..........a	0	-327.74
	10276	20.554	-7.28262E-001	-5.53702E-004	0.00000E+000	-7.27600E-001	-8.04272E-004	9	..........a	0	-327.74
	10304	20.61	-7.31067E-001	-5.52866E-004	0.00000E+000	-7.30400E-001	-7.62605E-004	9	..........a	0	-327.74
	10332	20.666	-7.33871E-001	-5.53201E-004	0.00000E+000	-7.33200E-001	-7.79272E-004	9	..........a	0	-327.74
	10360	20.722	-7.36642E-001	-5.53489E-004	0.00000E+000	-7.36000E-001	-8.12605E-004	9	..........a	0	-327.74
	10388	20.778	-7.39471E-001	-5.52052E-004	0.00000E+000	-7.38800E-001	-7.87605E-004	9	..........a	0	-327.74
	10416	20.834	-7.42300E-001	-5.50272E-004	0.00000E+000	-7.41600E-001	-8.54272E-004	9	..........a	0	-327.74
	10444	20.89	-7.45050E-001	-5.50710E-004	0.00000E+000	-7.44400E-001	-8.54272E-004	9	..........a	0	-327.74
	10472	20.946	-7.47754E-001	-5.52068E-004	0.00000E+000	-7.47200E-001	-7.70939E-004	9	..........a	0	-327.74
	10500	21.002	-7.50633E-001	-5.52708E-004	0.00000E+000	-7.50000E-001	-8.29272E-004	9	..........a	0	-327.74
	10528	21.058	-7.53492E-001	-5.52762E-004	0.00000E+000	-7.52800E-001	-8.29272E-004	9	..........a	0	-327.74
	10556	21.114	-7.56242E-001	-5.53021E-004	0.00000E+000	-7.55600E-001	-7.45939E-004	9	..........a	0	-327.74
	10584	21.17	-7.59042E-001	-5.54317E-004	0.00000E+000	-7.58400E-001	-7.62605E-004	9	..........a	0	-327.74
	10612	21.226	-7.61833E-001	-5.53184E-004	0.00000E+000	-7.61200E-001	-8.79272E-004	9	..........a	0	-327.74
	10640	21.282	-7.64679E-001	-5.52653E-004	0.00000E+000	-7.64000E-001	-8.20939E-004	9	..........a	0	-327.74
	10668	21.338	-7.67475E-001	-5.52490E-004	0.00000E+000	-7.66800E-001	-8.12605E-004	9	..........a	0	-327.74
	10696	21.394	-7.70217E-001	-5.53452E-004	0.00000E+000	-7.69600E-001	-7.95939E-004	9	..........a	0	-327.74
	10724	21.45	-7.73004E-001	-5.53385E-004	0.00000E+000	-7.72400E-001	-8.29272E-004	9	..........a	0	-327.74
	10752	21.506	-7.75904E-001	-5.53397E-004	0.00000E+000	-7.75200E-001	-7.62605E-004	9	..........a	0	-327.74
	10780	21.562	-7.78658E-001	-5.52816E-004	0.00000E+000	-7.78000E-001	-8.45939E-004	9	..........a	0	-327.74
	10808	21.618	-7.81437E-001	-5.52444E-004	0.00000E+000	-7.80800E-001	-8.54272E-004	9	..........a	0	-327.74
	10836	21.674	-7.84242E-001	-5.53059E-004	0.00000E+000	-7.83600E-001	-8.29272E-004	9	..........a	0	-327.74
	10864	21.73	-7.87067E-001	-5.52858E-004	0.00000E+000	-7.86400E-001	-7.95939E-004	9	..........a	0	-327.74
	10892	21.786	-7.89883E-001	-5.52419E-004	0.00000E+000	-7.89200E-001	-7.79272E-004	9	..........a	0	-327.74
	10920	21.842	-7.92604E-001	-5.52181E-004	0.00000E+000	-7.92000E-001	-8.37606E-004	9	..........a	0	-327.74
	10948	21.898	-7.95467E-001	-5.51249E-004	0.00000E+000	-7.94800E-001	-7.62605E-004	9	..........a	0	-327.74
	10976	21.954	-7.98254E-001	-5.51379E-004	0.00000E+000	-7.97600E-001	-8.37606E-004	9	..........a	0	-327.74
	11004	22.01	-8.01033E-001	-5.52482E-004	0.00000E+000	-8.00400E-001	-8.04272E-004	9	..........a	0	-327.74
	11032	22.066	-8.03750E-001	-5.52415E-004	0.00000E+000	-8.03200E-001	-8.04272E-004	9	..........a	0	-327.74
	11060	22.122	-8.06667E-001	-5.53088E-004	0.00000E+000	-8.06000E-001	-8.20939E-004	9	..........a	0	-327.74
	11088	22.178	-8.09408E-001	-5.53004E-004	0.00000E+000	-8.08800E-001	-8.04272E-004	9	..........a	0	-327.74
	11116	22.234	-8.12246E-001	-5.52779E-004	0.00000E+000	-8.11600E-001	-8.04272E-004	9	..........a	0	-327.74
	11144	22.29	-8.15021E-001	-5.53577E-004	0.00000E+000	-8.14400E-001	-8.04272E-004	9	..........a	0	-327.74
	11172	22.346	-8.17825E-001	-5.54471E-004	0.00000E+000	-8.17200E-001	-8.29272E-004	9	..........a	0	-327.74
	11200	22.402	-8.20554E-001	-5.53995E-004	0.00000E+000	-8.20000E-001	-8.29272E-004	9	..........a	0	-327.74
	11228	22.458	-8.23425E-001	-5.51295E-004	0.00000E+000	-8.22800E-001	-8.45939E-004	9	..........a	0	-327.74
	11256	22.514	-8.26158E-001	-5.50263E-004	0.00000E+000	-8.25600E-001	-8.37606E-004	9	..........a	0	-327.74
	11284	22.57	-8.29029E-001	-5.51943E-004	0.00000E+000	-8.28400E-001	-8.54272E-004	9	..........a	0	-327.74
	11312	22.626	-8.31717E-001	-5.52436E-004	0.00000E+000	-8.31200E-001	-8.37606E-004	9	..........a	0	-327.74
	11340	22.682	-8.34600E-001	-5.53238E-004	0.00000E+000	-8.34000E-001	-8.45939E-004	9	..........a	0	-327.74
	11368	22.738	-8.37333E-001	-5.55925E-004	0.00000E+000	-8.36800E-001	-8.20939E-004	9	..........a	0	-327.74
	11396	22.794	-8.40183E-001	-5.55641E-004	0.00000E+000	-8.39600E-001	-8.12605E-004	9	..........a	0	-327.74
	11424	22.85	-8.42996E-001	-5.54183E-004	0.00000E+000	-8.42400E-001	-8.45939E-004	9	..........a	0	-327.74
	11452	22.906	-8.45742E-001	-5.53552E-004	0.00000E+000	-8.45200E-001	-8.12605E-004	9	..........a	0	-327.74
	11480	22.962	-8.48500E-001	-5.54530E-004	0.00000E+000	-8.48000E-001	-7.87605E-004	9	..........a	0	-327.74
	11508	23.018	-8.51383E-001	-5.55048E-004	0.00000E+000	-8.50800E-001	-8.37606E-004	9	..........a	0	-327.74
	11536	23.074	-8.54162E-001	-5.54509E-004	0.00000E+000	-8.53600E-001	-8.29272E-004	9	..........a	0	-327.74
	11564	23.13	-8.56996E-001	-5.55106E-004	0.00000E+000	-8.56400E-001	-8.12605E-004	9	..........a	0	-327.74
	11592	23.186	-8.59750E-001	-5.54860E-004	0.00000E+000	-8.59200E-001	-7.79272E-004	9	..........a	0	-327.74
	11620	23.242	-8.62567E-001	-5.55708E-004	0.00000E+000	-8.62000E-001	-8.29272E-004	9	..........a	0	-327.74
	11648	23.298	-8.65350E-001	-5.57308E-004	0.00000E+000	-8.64800E-001	-8.45939E-004	9	..........a	0	-327.74
	11676	23.354	-8.68171E-001	-5.57342E-004	0.00000E+000	-8.67600E-001	-8.29272E-004	9	..........a	0	-327.74
	11704	23.41	-8.70933E-001	-5.58023E-004	0.00000E+000	-8.70400E-001	-7.70939E-004	9	..........a	0	-327.74
	11732	23.466	-8.73804E-001	-5.57367E-004	0.00000E+000	-8.73200E-001	-8.04272E-004	9	..........a	0	-327.74
	11760	23.522	-8.76550E-001	-5.55294E-004	0.00000E+000	-8.76000E-001	-8.45939E-004	9	..........a	0	-327.74
	11788	23.578	-8.79333E-001	-5.53209E-004	0.00000E+000	-8.78800E-001	-8.29272E-004	9	..........a	0	-327.74
	11816	23.634	-8.82079E-001	-5.53623E-004	0.00000E+000	-8.81600E-001	-7.87605E-004	9	..........a	0	-327.74
	11844	23.69	-8.84950E-001	-5.56205E-004	0.00000E+000	-8.84400E-001	-8.20939E-004	9	..........a	0	-327.74
	11872	23.746	-8.87754E-001	-5.55010E-004	0.00000E+000	-8.87200E-001	-8.20939E-004	9	..........a	0	-327.74
	11900	23.802	-8.90567E-001	-5.52904E-004	0.00000E+000	-8.90000E-001	-8.37606E-004	9	..........a	0	-327.74
	11928	23.858	-8.93283E-001	-5.51885E-004	0.00000E+000	-8.92800E-001	-7.95939E-004	9	..........a	0	-327.74
	11956	23.914	-8.96129E-001	-5.53439E-004	0.00000E+000	-8.95600E-001	-8.29272E-004	9	..........a	0	-327.74
	11984	23.97	-8.98975E-001	-5.54956E-004	0.00000E+000	-8.98400E-001	-7.70939E-004	9	..........a	0	-327.74
	12012	24.026	-9.01779E-001	-5.55591E-004	0.00000E+000	-9.01200E-001	-8.12605E-004	9	..........a	0	-327.74
	12040	24.082	-9.04475E-001	-5.55198E-004	0.00000E+000	-9.04000E-001	-8.20939E-004	9	..........a	0	-327.74
	12068	24.138	-9.07408E-001	-5.53489E-004	0.00000E+000	-9.06800E-001	-8.20939E-004	9	..........a	0	-327.74
	12096	24.194	-9.10142E-001	-5.52436E-004	0.00000E+000	-9.09600E-001	-8.54272E-004	9	..........a	0	-327.74
	12124	24.25	-9.12946E-001	-5.52628E-004	0.00000E+000	-9.12400E-001	-8.70939E-004	9	..........a	0	-327.74
	12152	24.306	-9.15692E-001	-5.54559E-004	0.00000E+000	-9.15200E-001	-8.37606E-004	9	..........a	0	-327.74
	12180	24.362	-9.18517E-001	-5.54271E-004	0.00000E+000	-9.18000E-001	-8.04272E-004	9	..........a	0	-327.74
	12208	24.418	-9.21350E-001	-5.54145E-004	0.00000E+000	-9.20800E-001	-8.12605E-004	9	..........a	0	-327.74
	12236	24.474	-9.24162E-001	-5.52632E-004	0.00000E+000	-9.23600E-001	-7.62605E-004	9	..........a	0	-327.74
	12264	24.53	-9.26904E-001	-5.56682E-004	0.00000E+000	-9.26400E-001	-8.37606E-004	9	..........a	0	-327.74
	12292	24.586	-9.29767E-001	-5.55253E-004	0.00000E+000	-9.29200E-001	-8.29272E-004	9	..........a	0	-327.74
	12320	24.642	-9.32600E-001	-5.53021E-004	0.00000E+000	-9.32000E-001	-8.29272E-004	9	..........a	0	-327.74
	12348	24.698	-9.35312E-001	-5.52653E-004	0.00000E+000	-9.34800E-001	-8.45939E-004	9	..........a	0	-327.74
	12376	24.754	-9.38092E-001	-5.53439E-004	0.00000E+000	-9.37600E-001	-7.70939E-004	9	..........a	0	-327.74
	12404	24.81	-9.40908E-001	-5.54074E-004	0.00000E+000	-9.40400E-001	-8.20939E-004	9	..........a	0	-327.74
	12432	24.866	-9.43746E-001	-5.54275E-004	0.00000E+000	-9.43200E-001	-7.95939E-004	9	..........a	0	-327.74
	12460	24.922	-9.46617E-001	-5.55992E-004	0.00000E+000	-9.46000E-001	-8.45939E-004	9	..........a	0	-327.74
	12488	24.978	-9.49300E-001	-5.56924E-004	0.00000E+000	-9.48800E-001	-8.29272E-004	9	..........a	0	-327.74
	12516	25.034	-9.52129E-001	-5.58775E-004	0.00000E+000	-9.51600E-001	-8.62605E-004	9	..........a	0	-327.74
	12544	25.09	-9.54925E-001	-5.56318E-004	0.00000E+000	-9.54400E-001	-8.04272E-004	9	..........a	0	-327.74
	12572	25.146	-9.57796E-001	-5.54308E-004	0.00000E+000	-9.57200E-001	-8.04272E-004	9	..........a	0	-327.74
	12600	25.202	-9.60517E-001	-5.54830E-004	0.00000E+000	-9.60000E-001	-8.54272E-004	9	..........a	0	-327.74
	12628	25.258	-9.63317E-001	-5.57856E-004	0.00000E+000	-9.62800E-001	-8.70939E-004	9	..........a	0	-327.74
	12656	25.314	-9.66108E-001	-5.57338E-004	0.00000E+000	-9.65600E-001	-8.54272E-004	9	..........a	0	-327.74
	12684	25.37	-9.68933E-001	-5.56581E-004	0.00000E+000	-9.68400E-001	-8.12605E-004	9	..........a	0	-327.74
	12712	25.426	-9.71725E-001	-5.56280E-004	0.00000E+000	-9.71200E-001	-8.12605E-004	9	..........a	0	-327.74
	12740	25.482	-9.74483E-001	-5.55340E-004	0.00000E+000	-9.74000E-001	-8.29272E-004	9	..........a	0	-327.74
	12768	25.538	-9.77342E-001	-5.55583E-004	0.00000E+000	-9.76800E-001	-8.04272E-004	9	..........a	0	-327.74
	12796	25.594	-9.80154E-001	-5.56168E-004	0.00000E+000	-9.79600E-001	-8.04272E-004	9	..........a	0	-327.74
	12824	25.65	-9.82879E-001	-5.56448E-004	0.00000E+000	-9.82400E-001	-7.87605E-004	9	..........a	0	-327.74
	12852	25.706	-9.85746E-001	-5.55152E-004	0.00000E+000	-9.85200E-001	-8.04272E-004	9	..........a	0	-327.74
	12880	25.762	-9.88525E-001	-5.54822E-004	0.00000E+000	-9.88000E-001	-8.45939E-004	9	..........a	0	-327.74
	12908	25.818	-9.91304E-001	-5.54764E-004	0.00000E+000	-9.90800E-001	-7.95939E-004	9	..........a	0	-327.74
	12936	25.874	-9.94112E-001	-5.54693E-004	0.00000E+000	-9.93600E-001	-8.20939E-004	9	..........a	0	-327.74
	12964	25.93	-9.96950E-001	-5.55833E-004	0.00000E+000	-9.96400E-001	-7.87605E-004	9	..........a	0	-327.74
	12992	25.986	-9.99717E-001	-5.57797E-004	0.00000E+000	-9.99200E-001	-8.29272E-004	9	..........a	0	-327.74
	13000	26.002	-1.00048E+000	-5.57977E-004	0.00000E+000	-1.00000E+000	-7.95939E-004	9	..........a	0	-327.74