File: data/02-SI/Figures_S9_S11_RDE/14btmapaq-rde/1mkcl-5mmolar14btmapaq-nitrogen-300mvpers.DTA
EXPLAIN
TAG	CV
TITLE	LABEL	Cyclic Voltammetry	Test &Identifier
DATE	LABEL	1/31/2023	Date
TIME	LABEL	14:02:24	Time
NOTES	NOTES	1	&Notes...

PSTAT	PSTAT	REF3000-21108	Potentiostat
VINIT	POTEN	5.00000E-001	F	Initial &E (V)
VLIMIT1	POTEN	-1.00000E+000	F	Scan Limit &1 (V)
VLIMIT2	POTEN	5.00000E-001	F	Scan Limit &2 (V)
VFINAL	POTEN	5.00000E-001	F	Final &E (V)
SCANRATE	QUANT	2.99999E+002	&Scan Rate (mV/s)
STEPSIZE	QUANT	1.00000E+000	St&ep Size (mV)
CYCLES	IQUANT	1	C&ycles (#)
IMODE	SELECTOR	1	I/E Range &Mode
IRANGE	QUANT	1.00000E+001	&Max Current (mA)
AREA	QUANT	1.00000E+000	Electrode &Area (cm^2)
ELECTRODETYPE	SELECTOR	0	Electrode Type
STRIPPING	TOGGLE	F	Used for Stripping
POLARITY	TOGGLE	F	Signal Polarity
CONDIT	TWOPARAM	F	1.50000E+001	0.00000E+000	Conditionin&g	Time(s)	E(V)
DELAY	TWOPARAM	F	5.00000E+000	0.00000E+000	Init. De&lay	Time(s)	Stab.(mV/s)
EQDELAY	QUANT	0.00000E+000	Equil. &Time (s)
IRCOMP	SELECTOR	0	IRCom&p
PFCOR	QUANT	5.00000E+001	PF Corr. (ohm)
SAMPLINGMODE	SELECTOR	1	Sampling &Mode
EOC	QUANT	0	Open Circuit (V)
PSTATMODEL	IQUANT	5	Pstat Model
PSTATSECTION	LABEL	REF3000-21108	Pstat Section
PSTATSERIALNO	LABEL	21108	Pstat Serial Number
CTRLMODE	IQUANT	1	Control Mode
ELECTROMETER	IQUANT	0	RE=0 or CS=1
IESTAB	IQUANT	2	I/E Stability
CASPEED	IQUANT	4	Control Amp Speed
CONVENTION	IQUANT	1	Current Convention
ICHRANGE	IQUANT	2	Ich Range
ICHRANGEMODE	TOGGLE	F	Ich Auto Range
ICHOFFSETENABLE	TOGGLE	F	Ich Offset Enable
ICHOFFSET	QUANT	0	Ich Offset (V)
ICHFILTER	IQUANT	2	Ich Filter
VCHRANGE	IQUANT	2	Vch Range
VCHRANGEMODE	TOGGLE	F	Vch Auto Range
VCHOFFSETENABLE	TOGGLE	F	Vch Offset Enable
VCHOFFSET	QUANT	0	Vch Offset (V)
VCHFILTER	IQUANT	2	Vch Filter
ACHRANGE	IQUANT	2	Ach Range
ACHOFFSETENABLE	TOGGLE	F	Ach Offset Enable
ACHOFFSET	QUANT	0	Ach Offset (V)
ACHFILTER	IQUANT	0	Ach Filter
IERANGELOWERLIMIT	IQUANT	2	I/E Range Lower Limit
IERANGEMODE	TOGGLE	F	I/E AutoRange
IERANGE	IQUANT	10	I/E Range
POSFEEDENABLE	TOGGLE	F	Positive Feedback IR Comp
POSFEEDRESISTANCE	QUANT	0	Positive Feedback Resistance (ohm)
ACHSELECT	IQUANT	0	Ach Select
SENSECABLEID	IQUANT	14	Sense Cable ID
PWRCABLEID	IQUANT	7	Power Cable ID
DCCALDATE	LABEL	11/9/2022	DC Calibration Date
ACCALDATE	LABEL	11/9/2022	AC Calibration Date
THERMOSELECT	IQUANT	1	Thermo Select
FRAMEWORKVERSION	LABEL	7.8.2	Framework Version
INSTRUMENTVERSION	LABEL	4.40	Instrument Version
COMPLIANCEVOLTAGE	IQUANT	0	Compliance Voltage
CURVE1	TABLE
	Pt	T	Vf	Im	Vu	Sig	Ach	IERange	Over	Temp
	#	s	V vs. Ref.	A	V	V	V	#	bits	deg C
	0	0.003333	4.98821E-001	7.85408E-005	0.00000E+000	5.00000E-001	-8.24272E-004	10	..........a	-327.74
	7	0.026667	4.91776E-001	6.28753E-005	0.00000E+000	4.93000E-001	-8.24272E-004	10	..........a	-327.74
	14	0.05	4.84786E-001	5.34509E-005	0.00000E+000	4.86000E-001	-8.39272E-004	10	..........a	-327.74
	21	0.073333	4.77846E-001	4.69842E-005	0.00000E+000	4.79000E-001	-8.34272E-004	10	..........a	-327.74
	28	0.096667	4.70826E-001	4.23973E-005	0.00000E+000	4.72000E-001	-8.14272E-004	10	..........a	-327.74
	35	0.12	4.63804E-001	3.90136E-005	0.00000E+000	4.65000E-001	-8.04272E-004	10	..........a	-327.74
	42	0.143333	4.56836E-001	3.60309E-005	0.00000E+000	4.58000E-001	-8.24272E-004	10	..........a	-327.74
	49	0.166667	4.49749E-001	3.35996E-005	0.00000E+000	4.51000E-001	-8.04272E-004	10	..........a	-327.74
	56	0.19	4.42826E-001	3.14691E-005	0.00000E+000	4.44000E-001	-8.29272E-004	10	..........a	-327.74
	63	0.213333	4.35754E-001	2.97897E-005	0.00000E+000	4.37000E-001	-8.39272E-004	10	..........a	-327.74
	70	0.236667	4.28836E-001	2.81104E-005	0.00000E+000	4.30000E-001	-8.39272E-004	10	..........a	-327.74
	77	0.26	4.21834E-001	2.63308E-005	0.00000E+000	4.23000E-001	-8.19272E-004	10	..........a	-327.74
	84	0.283333	4.14871E-001	2.55538E-005	0.00000E+000	4.16000E-001	-8.04272E-004	10	..........a	-327.74
	91	0.306667	4.07869E-001	2.42504E-005	0.00000E+000	4.09000E-001	-8.29272E-004	10	..........a	-327.74
	98	0.33	4.00881E-001	2.36739E-005	0.00000E+000	4.02000E-001	-8.34272E-004	10	..........a	-327.74
	105	0.353333	3.93826E-001	2.26462E-005	0.00000E+000	3.95000E-001	-8.34272E-004	10	..........a	-327.74
	112	0.376667	3.86841E-001	2.17439E-005	0.00000E+000	3.88000E-001	-7.74272E-004	10	..........a	-327.74
	119	0.4	3.79759E-001	2.10421E-005	0.00000E+000	3.81000E-001	-8.19272E-004	10	..........a	-327.74
	126	0.423333	3.72806E-001	2.03653E-005	0.00000E+000	3.74000E-001	-8.59272E-004	10	..........a	-327.74
	133	0.446667	3.65884E-001	1.93126E-005	0.00000E+000	3.67000E-001	-8.19272E-004	10	..........a	-327.74
	140	0.47	3.58854E-001	1.89366E-005	0.00000E+000	3.60000E-001	-8.29272E-004	10	..........a	-327.74
	147	0.493333	3.51884E-001	1.84103E-005	0.00000E+000	3.53000E-001	-8.29272E-004	10	..........a	-327.74
	154	0.516667	3.44869E-001	1.74578E-005	0.00000E+000	3.46000E-001	-8.04272E-004	10	..........a	-327.74
	161	0.54	3.37876E-001	1.73074E-005	0.00000E+000	3.39000E-001	-8.19272E-004	10	..........a	-327.74
	168	0.563333	3.30906E-001	1.65805E-005	0.00000E+000	3.32000E-001	-8.59272E-004	10	..........a	-327.74
	175	0.586667	3.23919E-001	1.64552E-005	0.00000E+000	3.25000E-001	-8.59272E-004	10	..........a	-327.74
	182	0.61	3.16886E-001	1.58537E-005	0.00000E+000	3.18000E-001	-8.59272E-004	10	..........a	-327.74
	189	0.633333	3.09921E-001	1.53273E-005	0.00000E+000	3.11000E-001	-8.34272E-004	10	..........a	-327.74
	196	0.656667	3.02914E-001	1.50265E-005	0.00000E+000	3.04000E-001	-7.94272E-004	10	..........a	-327.74
	203	0.68	2.95806E-001	1.41242E-005	0.00000E+000	2.97000E-001	-8.44272E-004	10	..........a	-327.74
	210	0.703333	2.88899E-001	1.37482E-005	0.00000E+000	2.90000E-001	-8.19272E-004	10	..........a	-327.74
	217	0.726667	2.81904E-001	1.35728E-005	0.00000E+000	2.83000E-001	-8.29272E-004	10	..........a	-327.74
	224	0.75	2.74871E-001	1.34224E-005	0.00000E+000	2.76000E-001	-8.64272E-004	10	..........a	-327.74
	231	0.773333	2.67876E-001	1.27707E-005	0.00000E+000	2.69000E-001	-8.54272E-004	10	..........a	-327.74
	238	0.796667	2.60881E-001	1.30213E-005	0.00000E+000	2.62000E-001	-8.19272E-004	10	..........a	-327.74
	245	0.82	2.53926E-001	1.24699E-005	0.00000E+000	2.55000E-001	-8.59272E-004	10	..........a	-327.74
	252	0.843333	2.46879E-001	1.22193E-005	0.00000E+000	2.48000E-001	-7.89272E-004	10	..........a	-327.74
	259	0.866667	2.39914E-001	1.22193E-005	0.00000E+000	2.41000E-001	-8.54272E-004	10	..........a	-327.74
	266	0.89	2.32939E-001	1.14924E-005	0.00000E+000	2.34000E-001	-7.79272E-004	10	..........a	-327.74
	273	0.913333	2.25946E-001	1.13921E-005	0.00000E+000	2.27000E-001	-8.59272E-004	10	..........a	-327.74
	280	0.936667	2.18894E-001	1.07906E-005	0.00000E+000	2.20000E-001	-8.19272E-004	10	..........a	-327.74
	287	0.96	2.11924E-001	1.10913E-005	0.00000E+000	2.13000E-001	-7.84272E-004	10	..........a	-327.74
	294	0.98333	2.04921E-001	1.09159E-005	0.00000E+000	2.06000E-001	-8.69272E-004	10	..........a	-327.74
	301	1.00667	1.97969E-001	1.06151E-005	0.00000E+000	1.99000E-001	-8.09272E-004	10	..........a	-327.74
	308	1.03	1.90906E-001	1.03895E-005	0.00000E+000	1.92000E-001	-8.29272E-004	10	..........a	-327.74
	315	1.05333	1.83954E-001	1.00135E-005	0.00000E+000	1.85000E-001	-7.94272E-004	10	..........a	-327.74
	322	1.07667	1.77014E-001	9.53732E-006	0.00000E+000	1.78000E-001	-8.14272E-004	10	..........a	-327.74
	329	1.1	1.69926E-001	9.61251E-006	0.00000E+000	1.71000E-001	-8.34272E-004	10	..........a	-327.74
	336	1.12333	1.62959E-001	9.36186E-006	0.00000E+000	1.64000E-001	-8.24272E-004	10	..........a	-327.74
	343	1.14667	1.55984E-001	8.91070E-006	0.00000E+000	1.57000E-001	-7.94272E-004	10	..........a	-327.74
	350	1.17	1.48926E-001	9.11122E-006	0.00000E+000	1.50000E-001	-8.29272E-004	10	..........a	-327.74
	357	1.19333	1.41999E-001	8.08356E-006	0.00000E+000	1.43000E-001	-8.24272E-004	10	..........a	-327.74
	364	1.21667	1.34964E-001	8.03343E-006	0.00000E+000	1.36000E-001	-8.69272E-004	10	..........a	-327.74
	371	1.24	1.27996E-001	8.00836E-006	0.00000E+000	1.29000E-001	-8.74272E-004	10	..........a	-327.74
	378	1.26333	1.20994E-001	8.08356E-006	0.00000E+000	1.22000E-001	-8.89272E-004	10	..........a	-327.74
	385	1.28667	1.13976E-001	7.35668E-006	0.00000E+000	1.15000E-001	-8.29272E-004	10	..........a	-327.74
	392	1.31	1.06976E-001	7.40681E-006	0.00000E+000	1.08000E-001	-8.39272E-004	10	..........a	-327.74
	399	1.33333	1.00031E-001	7.20629E-006	0.00000E+000	1.01000E-001	-8.49272E-004	10	..........a	-327.74
	406	1.35667	9.28761E-002	6.78018E-006	0.00000E+000	9.40000E-002	-8.49272E-004	10	..........a	-327.74
	413	1.38	8.59861E-002	6.70499E-006	0.00000E+000	8.70000E-002	-8.24272E-004	10	..........a	-327.74
	420	1.40333	7.89761E-002	6.62979E-006	0.00000E+000	8.00000E-002	-8.59272E-004	10	..........a	-327.74
	427	1.42667	7.19761E-002	6.40421E-006	0.00000E+000	7.30000E-002	-8.29272E-004	10	..........a	-327.74
	434	1.45	6.50336E-002	5.92798E-006	0.00000E+000	6.60000E-002	-8.04272E-004	10	..........a	-327.74
	441	1.47333	5.79886E-002	5.77759E-006	0.00000E+000	5.90000E-002	-8.29272E-004	10	..........a	-327.74
	448	1.49667	5.09336E-002	5.52694E-006	0.00000E+000	5.20000E-002	-8.34272E-004	10	..........a	-327.74
	455	1.52	4.39436E-002	5.25123E-006	0.00000E+000	4.50000E-002	-8.49272E-004	10	..........a	-327.74
	462	1.54333	3.69786E-002	5.50188E-006	0.00000E+000	3.80000E-002	-8.39272E-004	10	..........a	-327.74
	469	1.56667	2.99836E-002	5.00058E-006	0.00000E+000	3.10000E-002	-8.24272E-004	10	..........a	-327.74
	476	1.59	2.29711E-002	4.27370E-006	0.00000E+000	2.40000E-002	-8.24272E-004	10	..........a	-327.74
	483	1.61333	1.59236E-002	4.44915E-006	0.00000E+000	1.70000E-002	-8.39272E-004	10	..........a	-327.74
	490	1.63667	9.02606E-003	3.89773E-006	0.00000E+000	9.99999E-003	-8.29272E-004	10	..........a	-327.74
	497	1.66	2.04356E-003	3.74734E-006	0.00000E+000	2.99999E-003	-8.69272E-004	10	..........a	-327.74
	504	1.68333	-5.09394E-003	3.64708E-006	0.00000E+000	-4.00001E-003	-8.74272E-004	10	..........a	-327.74
	511	1.70667	-1.20739E-002	3.42149E-006	0.00000E+000	-1.10000E-002	-8.64272E-004	10	..........a	-327.74
	518	1.73	-1.89939E-002	3.17085E-006	0.00000E+000	-1.80000E-002	-8.49272E-004	10	..........a	-327.74
	525	1.75333	-2.59689E-002	3.17085E-006	0.00000E+000	-2.50000E-002	-8.54272E-004	10	..........a	-327.74
	532	1.77667	-3.30364E-002	2.99539E-006	0.00000E+000	-3.20000E-002	-8.24272E-004	10	..........a	-327.74
	539	1.8	-3.99564E-002	2.54422E-006	0.00000E+000	-3.90000E-002	-8.64272E-004	10	..........a	-327.74
	546	1.82333	-4.69314E-002	2.34371E-006	0.00000E+000	-4.60000E-002	-8.29272E-004	10	..........a	-327.74
	553	1.84667	-5.39464E-002	2.29358E-006	0.00000E+000	-5.30000E-002	-8.29272E-004	10	..........a	-327.74
	560	1.87	-6.09639E-002	1.96773E-006	0.00000E+000	-6.00000E-002	-8.14272E-004	10	..........a	-327.74
	567	1.89333	-6.79614E-002	1.89254E-006	0.00000E+000	-6.70000E-002	-8.39272E-004	10	..........a	-327.74
	574	1.91667	-7.49939E-002	1.74215E-006	0.00000E+000	-7.40000E-002	-8.29272E-004	10	..........a	-327.74
	581	1.94	-8.19339E-002	1.46644E-006	0.00000E+000	-8.10000E-002	-8.49272E-004	10	..........a	-327.74
	588	1.96333	-8.88789E-002	1.39124E-006	0.00000E+000	-8.80000E-002	-8.39272E-004	10	..........a	-327.74
	595	1.98667	-9.59614E-002	1.26592E-006	0.00000E+000	-9.50000E-002	-8.49272E-004	10	..........a	-327.74
	602	2.01	-1.02881E-001	1.26592E-006	0.00000E+000	-1.02000E-001	-7.94272E-004	10	..........a	-327.74
	609	2.03333	-1.09949E-001	1.19072E-006	0.00000E+000	-1.09000E-001	-8.29272E-004	10	..........a	-327.74
	616	2.05667	-1.16959E-001	1.29098E-006	0.00000E+000	-1.16000E-001	-8.39272E-004	10	..........a	-327.74
	623	2.08	-1.23919E-001	5.89166E-007	0.00000E+000	-1.23000E-001	-8.34272E-004	10	..........a	-327.74
	630	2.10333	-1.30901E-001	7.14490E-007	0.00000E+000	-1.30000E-001	-8.39272E-004	10	..........a	-327.74
	637	2.12667	-1.37939E-001	6.89425E-007	0.00000E+000	-1.37000E-001	-8.44272E-004	10	..........a	-327.74
	644	2.15	-1.44941E-001	2.38258E-007	0.00000E+000	-1.44000E-001	-8.64272E-004	10	..........a	-327.74
	651	2.17333	-1.51951E-001	3.88647E-007	0.00000E+000	-1.51000E-001	-8.34272E-004	10	..........a	-327.74
	658	2.19667	-1.58899E-001	-1.23905E-008	0.00000E+000	-1.58000E-001	-8.59272E-004	10	..........a	-327.74
	665	2.22	-1.65891E-001	2.63323E-007	0.00000E+000	-1.65000E-001	-8.49272E-004	10	..........a	-327.74
	672	2.24333	-1.72941E-001	-1.62780E-007	0.00000E+000	-1.72000E-001	-8.69272E-004	10	..........a	-327.74
	679	2.26667	-1.79894E-001	-2.63039E-007	0.00000E+000	-1.79000E-001	-8.69272E-004	10	..........a	-327.74
	686	2.29	-1.86951E-001	-7.14206E-007	0.00000E+000	-1.86000E-001	-8.29272E-004	10	..........a	-327.74
	693	2.31333	-1.93951E-001	-7.39271E-007	0.00000E+000	-1.93000E-001	-8.54272E-004	10	..........a	-327.74
	700	2.33667	-2.00939E-001	-1.36589E-006	0.00000E+000	-2.00000E-001	-8.39272E-004	10	..........a	-327.74
	707	2.36	-2.07914E-001	-1.34083E-006	0.00000E+000	-2.07000E-001	-7.99272E-004	10	..........a	-327.74
	714	2.38333	-2.14849E-001	-1.61654E-006	0.00000E+000	-2.14000E-001	-8.19272E-004	10	..........a	-327.74
	721	2.40667	-2.21914E-001	-1.79199E-006	0.00000E+000	-2.21000E-001	-7.79272E-004	10	..........a	-327.74
	728	2.43	-2.28966E-001	-1.94238E-006	0.00000E+000	-2.28000E-001	-8.54272E-004	10	..........a	-327.74
	735	2.45333	-2.35879E-001	-2.69433E-006	0.00000E+000	-2.35000E-001	-8.39272E-004	10	..........a	-327.74
	742	2.47667	-2.42906E-001	-3.42121E-006	0.00000E+000	-2.42000E-001	-7.89272E-004	10	..........a	-327.74
	749	2.5	-2.49914E-001	-3.29589E-006	0.00000E+000	-2.49000E-001	-7.84272E-004	10	..........a	-327.74
	756	2.52333	-2.56896E-001	-3.87238E-006	0.00000E+000	-2.56000E-001	-7.89272E-004	10	..........a	-327.74
	763	2.54667	-2.63941E-001	-4.09796E-006	0.00000E+000	-2.63000E-001	-7.79272E-004	10	..........a	-327.74
	770	2.57	-2.70861E-001	-4.79978E-006	0.00000E+000	-2.70000E-001	-7.69272E-004	10	..........a	-327.74
	777	2.59333	-2.77911E-001	-4.79978E-006	0.00000E+000	-2.77000E-001	-7.94272E-004	10	..........a	-327.74
	784	2.61667	-2.84911E-001	-5.37627E-006	0.00000E+000	-2.84000E-001	-8.14272E-004	10	..........a	-327.74
	791	2.64	-2.91844E-001	-5.70211E-006	0.00000E+000	-2.91000E-001	-7.74272E-004	10	..........a	-327.74
	798	2.66333	-2.98889E-001	-6.00289E-006	0.00000E+000	-2.98000E-001	-7.64272E-004	10	..........a	-327.74
	805	2.68667	-3.05856E-001	-6.05302E-006	0.00000E+000	-3.05000E-001	-8.09272E-004	10	..........a	-327.74
	812	2.71	-3.12799E-001	-6.98042E-006	0.00000E+000	-3.12000E-001	-7.64272E-004	10	..........a	-327.74
	819	2.73333	-3.19874E-001	-7.18094E-006	0.00000E+000	-3.19000E-001	-7.74272E-004	10	..........a	-327.74
	826	2.75667	-3.26834E-001	-7.63210E-006	0.00000E+000	-3.26000E-001	-7.89272E-004	10	..........a	-327.74
	833	2.78	-3.33821E-001	-8.20860E-006	0.00000E+000	-3.33000E-001	-7.69272E-004	10	..........a	-327.74
	840	2.80333	-3.40849E-001	-8.86028E-006	0.00000E+000	-3.40000E-001	-8.29272E-004	10	..........a	-327.74
	847	2.82667	-3.47854E-001	-9.23626E-006	0.00000E+000	-3.47000E-001	-7.54272E-004	10	..........a	-327.74
	854	2.85	-3.54906E-001	-9.76262E-006	0.00000E+000	-3.54000E-001	-7.99272E-004	10	..........a	-327.74
	861	2.87333	-3.61894E-001	-1.04644E-005	0.00000E+000	-3.61000E-001	-8.04272E-004	10	..........a	-327.74
	868	2.89667	-3.68956E-001	-1.16174E-005	0.00000E+000	-3.68000E-001	-8.04272E-004	10	..........a	-327.74
	875	2.92	-3.75874E-001	-1.27453E-005	0.00000E+000	-3.75000E-001	-8.34272E-004	10	..........a	-327.74
	882	2.94333	-3.82814E-001	-1.39234E-005	0.00000E+000	-3.82000E-001	-8.24272E-004	10	..........a	-327.74
	889	2.96667	-3.89831E-001	-1.58032E-005	0.00000E+000	-3.89000E-001	-7.94272E-004	10	..........a	-327.74
	896	2.99	-3.96834E-001	-1.89113E-005	0.00000E+000	-3.96000E-001	-8.34272E-004	10	..........a	-327.74
	903	3.01333	-4.03866E-001	-2.15180E-005	0.00000E+000	-4.03000E-001	-7.39272E-004	10	..........a	-327.74
	910	3.03667	-4.10841E-001	-2.59044E-005	0.00000E+000	-4.10000E-001	-7.74272E-004	10	..........a	-327.74
	917	3.06	-4.17836E-001	-3.11429E-005	0.00000E+000	-4.17000E-001	-7.59272E-004	10	..........a	-327.74
	924	3.08333	-4.24816E-001	-3.78102E-005	0.00000E+000	-4.24000E-001	-7.94272E-004	10	..........a	-327.74
	931	3.10667	-4.31826E-001	-4.57557E-005	0.00000E+000	-4.31000E-001	-8.04272E-004	10	..........a	-327.74
	938	3.13	-4.38791E-001	-5.49796E-005	0.00000E+000	-4.38000E-001	-7.79272E-004	10	..........a	-327.74
	945	3.15333	-4.45901E-001	-6.64593E-005	0.00000E+000	-4.45000E-001	-8.19272E-004	10	..........a	-327.74
	952	3.17667	-4.52844E-001	-7.94930E-005	0.00000E+000	-4.52000E-001	-7.99272E-004	10	..........a	-327.74
	959	3.2	-4.59756E-001	-9.44066E-005	0.00000E+000	-4.59000E-001	-8.59272E-004	10	..........a	-327.74
	966	3.22333	-4.66804E-001	-1.09771E-004	0.00000E+000	-4.66000E-001	-7.99272E-004	10	..........a	-327.74
	973	3.24667	-4.73831E-001	-1.27618E-004	0.00000E+000	-4.73000E-001	-7.84272E-004	10	..........a	-327.74
	980	3.27	-4.80801E-001	-1.46917E-004	0.00000E+000	-4.80000E-001	-8.14272E-004	10	..........a	-327.74
	987	3.29333	-4.87864E-001	-1.68172E-004	0.00000E+000	-4.87000E-001	-7.59272E-004	10	..........a	-327.74
	994	3.31667	-4.94781E-001	-1.91132E-004	0.00000E+000	-4.94000E-001	-8.04272E-004	10	..........a	-327.74
	1001	3.34	-5.01791E-001	-2.16122E-004	0.00000E+000	-5.01000E-001	-8.14272E-004	10	..........a	-327.74
	1008	3.36333	-5.08789E-001	-2.44019E-004	0.00000E+000	-5.08000E-001	-7.74272E-004	10	..........a	-327.74
	1015	3.38667	-5.15784E-001	-2.74773E-004	0.00000E+000	-5.15000E-001	-8.44272E-004	10	..........a	-327.74
	1022	3.41	-5.22786E-001	-3.08736E-004	0.00000E+000	-5.22000E-001	-7.99272E-004	10	..........a	-327.74
	1029	3.43333	-5.29791E-001	-3.44278E-004	0.00000E+000	-5.29000E-001	-7.79272E-004	10	..........a	-327.74
	1036	3.45667	-5.36796E-001	-3.81976E-004	0.00000E+000	-5.36000E-001	-7.89272E-004	10	..........a	-327.74
	1043	3.48	-5.43829E-001	-4.19423E-004	0.00000E+000	-5.43000E-001	-8.19272E-004	10	..........a	-327.74
	1050	3.50333	-5.50784E-001	-4.54714E-004	0.00000E+000	-5.50000E-001	-7.94272E-004	10	..........a	-327.74
	1057	3.52667	-5.57829E-001	-4.85519E-004	0.00000E+000	-5.57000E-001	-8.19272E-004	10	..........a	-327.74
	1064	3.55	-5.64764E-001	-5.08052E-004	0.00000E+000	-5.64000E-001	-7.94272E-004	10	..........a	-327.74
	1071	3.57333	-5.71776E-001	-5.21512E-004	0.00000E+000	-5.71000E-001	-8.04272E-004	10	..........a	-327.74
	1078	3.59667	-5.78774E-001	-5.23993E-004	0.00000E+000	-5.78000E-001	-7.64272E-004	10	..........a	-327.74
	1085	3.62	-5.85801E-001	-5.16223E-004	0.00000E+000	-5.85000E-001	-7.89272E-004	10	..........a	-327.74
	1092	3.64333	-5.92746E-001	-5.00031E-004	0.00000E+000	-5.92000E-001	-7.99272E-004	10	..........a	-327.74
	1099	3.66667	-5.99819E-001	-4.78400E-004	0.00000E+000	-5.99000E-001	-8.49272E-004	10	..........a	-327.74
	1106	3.69	-6.06779E-001	-4.55215E-004	0.00000E+000	-6.06000E-001	-7.94272E-004	10	..........a	-327.74
	1113	3.71333	-6.13789E-001	-4.31404E-004	0.00000E+000	-6.13000E-001	-8.19272E-004	10	..........a	-327.74
	1120	3.73667	-6.20746E-001	-4.10123E-004	0.00000E+000	-6.20000E-001	-7.79272E-004	10	..........a	-327.74
	1127	3.76	-6.27741E-001	-3.90748E-004	0.00000E+000	-6.27000E-001	-8.34272E-004	10	..........a	-327.74
	1134	3.78333	-6.34754E-001	-3.73704E-004	0.00000E+000	-6.34000E-001	-7.79272E-004	10	..........a	-327.74
	1141	3.80667	-6.41654E-001	-3.59066E-004	0.00000E+000	-6.41000E-001	-7.69272E-004	10	..........a	-327.74
	1148	3.83	-6.48754E-001	-3.46158E-004	0.00000E+000	-6.48000E-001	-7.94272E-004	10	..........a	-327.74
	1155	3.85333	-6.55709E-001	-3.34503E-004	0.00000E+000	-6.55000E-001	-7.94272E-004	10	..........a	-327.74
	1162	3.87667	-6.62739E-001	-3.24427E-004	0.00000E+000	-6.62000E-001	-8.24272E-004	10	..........a	-327.74
	1169	3.9	-6.69804E-001	-3.15027E-004	0.00000E+000	-6.69000E-001	-8.09272E-004	10	..........a	-327.74
	1176	3.92333	-6.76769E-001	-3.06180E-004	0.00000E+000	-6.76000E-001	-8.44272E-004	10	..........a	-327.74
	1183	3.94667	-6.83734E-001	-2.97933E-004	0.00000E+000	-6.83000E-001	-7.64272E-004	10	..........a	-327.74
	1190	3.97	-6.90749E-001	-2.89912E-004	0.00000E+000	-6.90000E-001	-8.19272E-004	10	..........a	-327.74
	1197	3.99333	-6.97786E-001	-2.82493E-004	0.00000E+000	-6.97000E-001	-8.09272E-004	10	..........a	-327.74
	1204	4.01667	-7.04726E-001	-2.75325E-004	0.00000E+000	-7.04000E-001	-8.44272E-004	10	..........a	-327.74
	1211	4.04	-7.11719E-001	-2.68657E-004	0.00000E+000	-7.11000E-001	-8.14272E-004	10	..........a	-327.74
	1218	4.06333	-7.18734E-001	-2.62241E-004	0.00000E+000	-7.18000E-001	-7.84272E-004	10	..........a	-327.74
	1225	4.08667	-7.25706E-001	-2.56752E-004	0.00000E+000	-7.25000E-001	-8.39272E-004	10	..........a	-327.74
	1232	4.11	-7.32734E-001	-2.51689E-004	0.00000E+000	-7.32000E-001	-7.84272E-004	10	..........a	-327.74
	1239	4.13333	-7.39676E-001	-2.46350E-004	0.00000E+000	-7.39000E-001	-8.14272E-004	10	..........a	-327.74
	1246	4.15667	-7.46686E-001	-2.41262E-004	0.00000E+000	-7.46000E-001	-8.29272E-004	10	..........a	-327.74
	1253	4.18	-7.53829E-001	-2.37377E-004	0.00000E+000	-7.53000E-001	-8.19272E-004	10	..........a	-327.74
	1260	4.20333	-7.60704E-001	-2.32489E-004	0.00000E+000	-7.60000E-001	-8.04272E-004	10	..........a	-327.74
	1267	4.22667	-7.67734E-001	-2.28629E-004	0.00000E+000	-7.67000E-001	-8.34272E-004	10	..........a	-327.74
	1274	4.25	-7.74724E-001	-2.24418E-004	0.00000E+000	-7.74000E-001	-8.34272E-004	10	..........a	-327.74
	1281	4.27333	-7.81684E-001	-2.21034E-004	0.00000E+000	-7.81000E-001	-8.19272E-004	10	..........a	-327.74
	1288	4.29667	-7.88684E-001	-2.17275E-004	0.00000E+000	-7.88000E-001	-8.34272E-004	10	..........a	-327.74
	1295	4.32	-7.95631E-001	-2.14467E-004	0.00000E+000	-7.95000E-001	-7.74272E-004	10	..........a	-327.74
	1302	4.34333	-8.02699E-001	-2.10532E-004	0.00000E+000	-8.02000E-001	-8.09272E-004	10	..........a	-327.74
	1309	4.36667	-8.09664E-001	-2.07625E-004	0.00000E+000	-8.09000E-001	-8.04272E-004	10	..........a	-327.74
	1316	4.39	-8.16674E-001	-2.04667E-004	0.00000E+000	-8.16000E-001	-8.14272E-004	10	..........a	-327.74
	1323	4.41333	-8.23631E-001	-2.01759E-004	0.00000E+000	-8.23000E-001	-8.09272E-004	10	..........a	-327.74
	1330	4.43667	-8.30584E-001	-1.99027E-004	0.00000E+000	-8.30000E-001	-7.69272E-004	10	..........a	-327.74
	1337	4.46	-8.37674E-001	-1.96421E-004	0.00000E+000	-8.37000E-001	-8.04272E-004	10	..........a	-327.74
	1344	4.48333	-8.44654E-001	-1.93939E-004	0.00000E+000	-8.44000E-001	-7.94272E-004	10	..........a	-327.74
	1351	4.50667	-8.51586E-001	-1.91733E-004	0.00000E+000	-8.51000E-001	-8.29272E-004	10	..........a	-327.74
	1358	4.53	-8.58644E-001	-1.88976E-004	0.00000E+000	-8.58000E-001	-7.84272E-004	10	..........a	-327.74
	1365	4.55333	-8.65641E-001	-1.86645E-004	0.00000E+000	-8.65000E-001	-7.74272E-004	10	..........a	-327.74
	1372	4.57667	-8.72596E-001	-1.84941E-004	0.00000E+000	-8.72000E-001	-7.74272E-004	10	..........a	-327.74
	1379	4.6	-8.79586E-001	-1.82685E-004	0.00000E+000	-8.79000E-001	-7.84272E-004	10	..........a	-327.74
	1386	4.62333	-8.86654E-001	-1.80830E-004	0.00000E+000	-8.86000E-001	-7.94272E-004	10	..........a	-327.74
	1393	4.64667	-8.93649E-001	-1.78925E-004	0.00000E+000	-8.93000E-001	-7.59272E-004	10	..........a	-327.74
	1400	4.67	-9.00641E-001	-1.77246E-004	0.00000E+000	-9.00000E-001	-7.99272E-004	10	..........a	-327.74
	1407	4.69333	-9.07561E-001	-1.75140E-004	0.00000E+000	-9.07000E-001	-7.99272E-004	10	..........a	-327.74
	1414	4.71667	-9.14606E-001	-1.73687E-004	0.00000E+000	-9.14000E-001	-7.94272E-004	10	..........a	-327.74
	1421	4.74	-9.21631E-001	-1.71857E-004	0.00000E+000	-9.21000E-001	-7.69272E-004	10	..........a	-327.74
	1428	4.76333	-9.28536E-001	-1.70378E-004	0.00000E+000	-9.28000E-001	-7.74272E-004	10	..........a	-327.74
	1435	4.78667	-9.35594E-001	-1.69376E-004	0.00000E+000	-9.35000E-001	-7.99272E-004	10	..........a	-327.74
	1442	4.81	-9.42564E-001	-1.67571E-004	0.00000E+000	-9.42000E-001	-7.14272E-004	10	..........a	-327.74
	1449	4.83333	-9.49566E-001	-1.66092E-004	0.00000E+000	-9.49000E-001	-8.14272E-004	10	..........a	-327.74
	1456	4.85667	-9.56649E-001	-1.65014E-004	0.00000E+000	-9.56000E-001	-8.09272E-004	10	..........a	-327.74
	1463	4.88	-9.63576E-001	-1.63134E-004	0.00000E+000	-9.63000E-001	-8.09272E-004	10	..........a	-327.74
	1470	4.90333	-9.70616E-001	-1.62107E-004	0.00000E+000	-9.70000E-001	-8.09272E-004	10	..........a	-327.74
	1477	4.92667	-9.77576E-001	-1.60678E-004	0.00000E+000	-9.77000E-001	-8.14272E-004	10	..........a	-327.74
	1484	4.95	-9.84519E-001	-1.59826E-004	0.00000E+000	-9.84000E-001	-7.84272E-004	10	..........a	-327.74
	1491	4.97333	-9.91581E-001	-1.59300E-004	0.00000E+000	-9.91000E-001	-7.79272E-004	10	..........a	-327.74
	1498	4.99667	-9.98601E-001	-1.58121E-004	0.00000E+000	-9.98000E-001	-8.04272E-004	10	..........a	-327.74
	1505	5.02	-9.95549E-001	-1.50953E-004	0.00000E+000	-9.95000E-001	-7.44272E-004	10	..........a	-327.74
	1512	5.04333	-9.88611E-001	-1.46943E-004	0.00000E+000	-9.88000E-001	-7.59272E-004	10	..........a	-327.74
	1519	5.06667	-9.81501E-001	-1.44210E-004	0.00000E+000	-9.81000E-001	-8.19272E-004	10	..........a	-327.74
	1526	5.09	-9.74596E-001	-1.41905E-004	0.00000E+000	-9.74000E-001	-7.94272E-004	10	..........a	-327.74
	1533	5.11333	-9.67601E-001	-1.39699E-004	0.00000E+000	-9.67000E-001	-7.99272E-004	10	..........a	-327.74
	1540	5.13667	-9.60556E-001	-1.37568E-004	0.00000E+000	-9.60000E-001	-7.99272E-004	10	..........a	-327.74
	1547	5.16	-9.53564E-001	-1.35964E-004	0.00000E+000	-9.53000E-001	-8.39272E-004	10	..........a	-327.74
	1554	5.18333	-9.46624E-001	-1.34335E-004	0.00000E+000	-9.46000E-001	-8.14272E-004	10	..........a	-327.74
	1561	5.20667	-9.39591E-001	-1.33232E-004	0.00000E+000	-9.39000E-001	-8.24272E-004	10	..........a	-327.74
	1568	5.23	-9.32656E-001	-1.31603E-004	0.00000E+000	-9.32000E-001	-8.29272E-004	10	..........a	-327.74
	1575	5.25333	-9.25566E-001	-1.30425E-004	0.00000E+000	-9.25000E-001	-7.99272E-004	10	..........a	-327.74
	1582	5.27667	-9.18611E-001	-1.29096E-004	0.00000E+000	-9.18000E-001	-8.24272E-004	10	..........a	-327.74
	1589	5.3	-9.11606E-001	-1.27943E-004	0.00000E+000	-9.11000E-001	-8.19272E-004	10	..........a	-327.74
	1596	5.32333	-9.04514E-001	-1.27016E-004	0.00000E+000	-9.04000E-001	-7.79272E-004	10	..........a	-327.74
	1603	5.34667	-8.97576E-001	-1.25963E-004	0.00000E+000	-8.97000E-001	-8.14272E-004	10	..........a	-327.74
	1610	5.37	-8.90651E-001	-1.24735E-004	0.00000E+000	-8.90000E-001	-8.19272E-004	10	..........a	-327.74
	1617	5.39333	-8.83586E-001	-1.23507E-004	0.00000E+000	-8.83000E-001	-8.04272E-004	10	..........a	-327.74
	1624	5.41667	-8.76671E-001	-1.23507E-004	0.00000E+000	-8.76000E-001	-7.69272E-004	10	..........a	-327.74
	1631	5.44	-8.69604E-001	-1.22078E-004	0.00000E+000	-8.69000E-001	-7.99272E-004	10	..........a	-327.74
	1638	5.46333	-8.62646E-001	-1.21251E-004	0.00000E+000	-8.62000E-001	-7.99272E-004	10	..........a	-327.74
	1645	5.48667	-8.55674E-001	-1.19948E-004	0.00000E+000	-8.55000E-001	-7.64272E-004	10	..........a	-327.74
	1652	5.51	-8.48584E-001	-1.18970E-004	0.00000E+000	-8.48000E-001	-7.64272E-004	10	..........a	-327.74
	1659	5.53333	-8.41629E-001	-1.18594E-004	0.00000E+000	-8.41000E-001	-7.59272E-004	10	..........a	-327.74
	1666	5.55667	-8.34624E-001	-1.17867E-004	0.00000E+000	-8.34000E-001	-7.84272E-004	10	..........a	-327.74
	1673	5.58	-8.27659E-001	-1.16840E-004	0.00000E+000	-8.27000E-001	-8.24272E-004	10	..........a	-327.74
	1680	5.60333	-8.20646E-001	-1.15662E-004	0.00000E+000	-8.20000E-001	-7.39272E-004	10	..........a	-327.74
	1687	5.62667	-8.13669E-001	-1.15185E-004	0.00000E+000	-8.13000E-001	-7.44272E-004	10	..........a	-327.74
	1694	5.65	-8.06684E-001	-1.14283E-004	0.00000E+000	-8.06000E-001	-7.79272E-004	10	..........a	-327.74
	1701	5.67333	-7.99661E-001	-1.13857E-004	0.00000E+000	-7.99000E-001	-7.59272E-004	10	..........a	-327.74
	1708	5.69667	-7.92649E-001	-1.13030E-004	0.00000E+000	-7.92000E-001	-8.09272E-004	10	..........a	-327.74
	1715	5.72	-7.85706E-001	-1.12102E-004	0.00000E+000	-7.85000E-001	-7.94272E-004	10	..........a	-327.74
	1722	5.74333	-7.78644E-001	-1.11225E-004	0.00000E+000	-7.78000E-001	-7.94272E-004	10	..........a	-327.74
	1729	5.76667	-7.71631E-001	-1.10448E-004	0.00000E+000	-7.71000E-001	-7.94272E-004	10	..........a	-327.74
	1736	5.79	-7.64736E-001	-1.09872E-004	0.00000E+000	-7.64000E-001	-7.79272E-004	10	..........a	-327.74
	1743	5.81333	-7.57726E-001	-1.09220E-004	0.00000E+000	-7.57000E-001	-7.94272E-004	10	..........a	-327.74
	1750	5.83667	-7.50731E-001	-1.08418E-004	0.00000E+000	-7.50000E-001	-8.04272E-004	10	..........a	-327.74
	1757	5.86	-7.43729E-001	-1.07516E-004	0.00000E+000	-7.43000E-001	-8.09272E-004	10	..........a	-327.74
	1764	5.88333	-7.36696E-001	-1.06739E-004	0.00000E+000	-7.36000E-001	-7.94272E-004	10	..........a	-327.74
	1771	5.90667	-7.29744E-001	-1.06237E-004	0.00000E+000	-7.29000E-001	-8.09272E-004	10	..........a	-327.74
	1778	5.93	-7.22711E-001	-1.05009E-004	0.00000E+000	-7.22000E-001	-8.19272E-004	10	..........a	-327.74
	1785	5.95333	-7.15686E-001	-1.04107E-004	0.00000E+000	-7.15000E-001	-8.04272E-004	10	..........a	-327.74
	1792	5.97667	-7.08744E-001	-1.03355E-004	0.00000E+000	-7.08000E-001	-7.64272E-004	10	..........a	-327.74
	1799	6	-7.01729E-001	-1.02127E-004	0.00000E+000	-7.01000E-001	-8.09272E-004	10	..........a	-327.74
	1806	6.02333	-6.94736E-001	-1.01249E-004	0.00000E+000	-6.94000E-001	-8.24272E-004	10	..........a	-327.74
	1813	6.04667	-6.87776E-001	-1.00447E-004	0.00000E+000	-6.87000E-001	-7.74272E-004	10	..........a	-327.74
	1820	6.07	-6.80719E-001	-9.88932E-005	0.00000E+000	-6.80000E-001	-7.49272E-004	10	..........a	-327.74
	1827	6.09333	-6.73731E-001	-9.71637E-005	0.00000E+000	-6.73000E-001	-7.94272E-004	10	..........a	-327.74
	1834	6.11667	-6.66741E-001	-9.62614E-005	0.00000E+000	-6.66000E-001	-7.99272E-004	10	..........a	-327.74
	1841	6.14	-6.59701E-001	-9.48828E-005	0.00000E+000	-6.59000E-001	-7.99272E-004	10	..........a	-327.74
	1848	6.16333	-6.52759E-001	-9.30030E-005	0.00000E+000	-6.52000E-001	-8.14272E-004	10	..........a	-327.74
	1855	6.18667	-6.45839E-001	-9.15242E-005	0.00000E+000	-6.45000E-001	-8.09272E-004	10	..........a	-327.74
	1862	6.21	-6.38756E-001	-8.91430E-005	0.00000E+000	-6.38000E-001	-7.99272E-004	10	..........a	-327.74
	1869	6.23333	-6.31774E-001	-8.65363E-005	0.00000E+000	-6.31000E-001	-7.59272E-004	10	..........a	-327.74
	1876	6.25667	-6.24761E-001	-8.33029E-005	0.00000E+000	-6.24000E-001	-8.19272E-004	10	..........a	-327.74
	1883	6.28	-6.17681E-001	-7.93677E-005	0.00000E+000	-6.17000E-001	-7.84272E-004	10	..........a	-327.74
	1890	6.30333	-6.10779E-001	-7.40289E-005	0.00000E+000	-6.10000E-001	-7.94272E-004	10	..........a	-327.74
	1897	6.32667	-6.03776E-001	-6.66348E-005	0.00000E+000	-6.03000E-001	-7.94272E-004	10	..........a	-327.74
	1904	6.35	-5.96791E-001	-5.64334E-005	0.00000E+000	-5.96000E-001	-7.54272E-004	10	..........a	-327.74
	1911	6.37333	-5.89806E-001	-4.34999E-005	0.00000E+000	-5.89000E-001	-8.04272E-004	10	..........a	-327.74
	1918	6.39667	-5.82766E-001	-2.60798E-005	0.00000E+000	-5.82000E-001	-8.14272E-004	10	..........a	-327.74
	1925	6.42	-5.75764E-001	-2.81965E-006	0.00000E+000	-5.75000E-001	-7.89272E-004	10	..........a	-327.74
	1932	6.44333	-5.68744E-001	2.52028E-005	0.00000E+000	-5.68000E-001	-8.19272E-004	10	..........a	-327.74
	1939	6.46667	-5.61764E-001	5.74112E-005	0.00000E+000	-5.61000E-001	-8.44272E-004	10	..........a	-327.74
	1946	6.49	-5.54809E-001	9.31035E-005	0.00000E+000	-5.54000E-001	-8.14272E-004	10	..........a	-327.74
	1953	6.51333	-5.47701E-001	1.30450E-004	0.00000E+000	-5.47000E-001	-7.89272E-004	10	..........a	-327.74
	1960	6.53667	-5.40791E-001	1.66418E-004	0.00000E+000	-5.40000E-001	-8.24272E-004	10	..........a	-327.74
	1967	6.56	-5.33764E-001	2.01133E-004	0.00000E+000	-5.33000E-001	-8.49272E-004	10	..........a	-327.74
	1974	6.58333	-5.26806E-001	2.30810E-004	0.00000E+000	-5.26000E-001	-8.39272E-004	10	..........a	-327.74
	1981	6.60667	-5.19771E-001	2.57028E-004	0.00000E+000	-5.19000E-001	-8.29272E-004	10	..........a	-327.74
	1988	6.63	-5.12816E-001	2.77506E-004	0.00000E+000	-5.12000E-001	-8.34272E-004	10	..........a	-327.74
	1995	6.65333	-5.05899E-001	2.93497E-004	0.00000E+000	-5.05000E-001	-8.29272E-004	10	..........a	-327.74
	2002	6.67667	-4.98761E-001	3.05303E-004	0.00000E+000	-4.98000E-001	-8.24272E-004	10	..........a	-327.74
	2009	6.7	-4.91771E-001	3.12922E-004	0.00000E+000	-4.91000E-001	-8.19272E-004	10	..........a	-327.74
	2016	6.72333	-4.84824E-001	3.17033E-004	0.00000E+000	-4.84000E-001	-8.44272E-004	10	..........a	-327.74
	2023	6.74667	-4.77866E-001	3.17258E-004	0.00000E+000	-4.77000E-001	-7.89272E-004	10	..........a	-327.74
	2030	6.77	-4.70806E-001	3.15003E-004	0.00000E+000	-4.70000E-001	-8.24272E-004	10	..........a	-327.74
	2037	6.79333	-4.63871E-001	3.10065E-004	0.00000E+000	-4.63000E-001	-8.29272E-004	10	..........a	-327.74
	2044	6.81667	-4.56801E-001	3.02220E-004	0.00000E+000	-4.56000E-001	-8.64272E-004	10	..........a	-327.74
	2051	6.84	-4.49864E-001	2.93547E-004	0.00000E+000	-4.49000E-001	-8.19272E-004	10	..........a	-327.74
	2058	6.86333	-4.42841E-001	2.84323E-004	0.00000E+000	-4.42000E-001	-8.14272E-004	10	..........a	-327.74
	2065	6.88667	-4.35796E-001	2.73871E-004	0.00000E+000	-4.35000E-001	-8.24272E-004	10	..........a	-327.74
	2072	6.91	-4.28839E-001	2.64246E-004	0.00000E+000	-4.28000E-001	-8.19272E-004	10	..........a	-327.74
	2079	6.93333	-4.21909E-001	2.54145E-004	0.00000E+000	-4.21000E-001	-8.34272E-004	10	..........a	-327.74
	2086	6.95667	-4.14804E-001	2.44345E-004	0.00000E+000	-4.14000E-001	-8.24272E-004	10	..........a	-327.74
	2093	6.98	-4.07874E-001	2.34971E-004	0.00000E+000	-4.07000E-001	-8.14272E-004	10	..........a	-327.74
	2100	7.00333	-4.00829E-001	2.27100E-004	0.00000E+000	-4.00000E-001	-8.14272E-004	10	..........a	-327.74
	2107	7.02667	-3.93891E-001	2.19130E-004	0.00000E+000	-3.93000E-001	-8.04272E-004	10	..........a	-327.74
	2114	7.05	-3.86841E-001	2.11560E-004	0.00000E+000	-3.86000E-001	-8.19272E-004	10	..........a	-327.74
	2121	7.07333	-3.79816E-001	2.05068E-004	0.00000E+000	-3.79000E-001	-8.14272E-004	10	..........a	-327.74
	2128	7.09667	-3.72849E-001	1.98351E-004	0.00000E+000	-3.72000E-001	-8.29272E-004	10	..........a	-327.74
	2135	7.12	-3.65864E-001	1.92661E-004	0.00000E+000	-3.65000E-001	-8.54272E-004	10	..........a	-327.74
	2142	7.14333	-3.58834E-001	1.87172E-004	0.00000E+000	-3.58000E-001	-8.29272E-004	10	..........a	-327.74
	2149	7.16667	-3.51901E-001	1.82184E-004	0.00000E+000	-3.51000E-001	-8.49272E-004	10	..........a	-327.74
	2156	7.19	-3.44809E-001	1.77748E-004	0.00000E+000	-3.44000E-001	-8.39272E-004	10	..........a	-327.74
	2163	7.21333	-3.37931E-001	1.73311E-004	0.00000E+000	-3.37000E-001	-7.99272E-004	10	..........a	-327.74
	2170	7.23667	-3.30871E-001	1.69276E-004	0.00000E+000	-3.30000E-001	-7.94272E-004	10	..........a	-327.74
	2177	7.26	-3.23849E-001	1.65215E-004	0.00000E+000	-3.23000E-001	-8.49272E-004	10	..........a	-327.74
	2184	7.28333	-3.16809E-001	1.61806E-004	0.00000E+000	-3.16000E-001	-8.29272E-004	10	..........a	-327.74
	2191	7.30667	-3.09909E-001	1.58247E-004	0.00000E+000	-3.09000E-001	-8.09272E-004	10	..........a	-327.74
	2198	7.33	-3.02826E-001	1.54337E-004	0.00000E+000	-3.02000E-001	-8.14272E-004	10	..........a	-327.74
	2205	7.35333	-2.95911E-001	1.51730E-004	0.00000E+000	-2.95000E-001	-8.44272E-004	10	..........a	-327.74
	2212	7.37667	-2.88949E-001	1.48221E-004	0.00000E+000	-2.88000E-001	-8.04272E-004	10	..........a	-327.74
	2219	7.4	-2.81859E-001	1.45289E-004	0.00000E+000	-2.81000E-001	-8.34272E-004	10	..........a	-327.74
	2226	7.42333	-2.74891E-001	1.42657E-004	0.00000E+000	-2.74000E-001	-8.54272E-004	10	..........a	-327.74
	2233	7.44667	-2.67839E-001	1.39774E-004	0.00000E+000	-2.67000E-001	-8.24272E-004	10	..........a	-327.74
	2240	7.47	-2.60899E-001	1.36666E-004	0.00000E+000	-2.60000E-001	-8.19272E-004	10	..........a	-327.74
	2247	7.49333	-2.53936E-001	1.34235E-004	0.00000E+000	-2.53000E-001	-8.59272E-004	10	..........a	-327.74
	2254	7.51667	-2.46879E-001	1.31703E-004	0.00000E+000	-2.46000E-001	-8.39272E-004	10	..........a	-327.74
	2261	7.54	-2.39931E-001	1.29197E-004	0.00000E+000	-2.39000E-001	-8.19272E-004	10	..........a	-327.74
	2268	7.56333	-2.32931E-001	1.26039E-004	0.00000E+000	-2.32000E-001	-8.19272E-004	10	..........a	-327.74
	2275	7.58667	-2.25916E-001	1.23357E-004	0.00000E+000	-2.25000E-001	-8.34272E-004	10	..........a	-327.74
	2282	7.61	-2.18894E-001	1.20926E-004	0.00000E+000	-2.18000E-001	-8.34272E-004	10	..........a	-327.74
	2289	7.63333	-2.11879E-001	1.19146E-004	0.00000E+000	-2.11000E-001	-8.34272E-004	10	..........a	-327.74
	2296	7.65667	-2.04974E-001	1.16464E-004	0.00000E+000	-2.04000E-001	-8.39272E-004	10	..........a	-327.74
	2303	7.68	-1.97914E-001	1.14484E-004	0.00000E+000	-1.97000E-001	-8.14272E-004	10	..........a	-327.74
	2310	7.70333	-1.90934E-001	1.12053E-004	0.00000E+000	-1.90000E-001	-8.34272E-004	10	..........a	-327.74
	2317	7.72667	-1.83964E-001	1.10123E-004	0.00000E+000	-1.83000E-001	-7.99272E-004	10	..........a	-327.74
	2324	7.75	-1.77009E-001	1.08468E-004	0.00000E+000	-1.76000E-001	-8.49272E-004	10	..........a	-327.74
	2331	7.77333	-1.69921E-001	1.06162E-004	0.00000E+000	-1.69000E-001	-7.89272E-004	10	..........a	-327.74
	2338	7.79667	-1.63024E-001	1.04508E-004	0.00000E+000	-1.62000E-001	-8.44272E-004	10	..........a	-327.74
	2345	7.82	-1.55909E-001	1.02954E-004	0.00000E+000	-1.55000E-001	-8.09272E-004	10	..........a	-327.74
	2352	7.84333	-1.49014E-001	1.01024E-004	0.00000E+000	-1.48000E-001	-8.19272E-004	10	..........a	-327.74
	2359	7.86667	-1.41964E-001	9.91442E-005	0.00000E+000	-1.41000E-001	-8.34272E-004	10	..........a	-327.74
	2366	7.89	-1.34841E-001	9.76904E-005	0.00000E+000	-1.34000E-001	-8.14272E-004	10	..........a	-327.74
	2373	7.91333	-1.27926E-001	9.62617E-005	0.00000E+000	-1.27000E-001	-8.14272E-004	10	..........a	-327.74
	2380	7.93667	-1.20969E-001	9.48079E-005	0.00000E+000	-1.20000E-001	-7.74272E-004	10	..........a	-327.74
	2387	7.96	-1.13966E-001	9.38053E-005	0.00000E+000	-1.13000E-001	-8.09272E-004	10	..........a	-327.74
	2394	7.98333	-1.07021E-001	9.19756E-005	0.00000E+000	-1.06000E-001	-8.09272E-004	10	..........a	-327.74
	2401	8.00667	-9.99764E-002	9.10983E-005	0.00000E+000	-9.90000E-002	-8.34272E-004	10	..........a	-327.74
	2408	8.03	-9.29739E-002	9.00456E-005	0.00000E+000	-9.20000E-002	-7.99272E-004	10	..........a	-327.74
	2415	8.05333	-8.59464E-002	8.90180E-005	0.00000E+000	-8.50000E-002	-8.19272E-004	10	..........a	-327.74
	2422	8.07667	-7.89214E-002	8.83663E-005	0.00000E+000	-7.80000E-002	-8.04272E-004	10	..........a	-327.74
	2429	8.1	-7.19789E-002	8.75141E-005	0.00000E+000	-7.10000E-002	-8.34272E-004	10	..........a	-327.74
	2436	8.12333	-6.49839E-002	8.66869E-005	0.00000E+000	-6.40000E-002	-8.19272E-004	10	..........a	-327.74
	2443	8.14667	-5.79814E-002	8.56843E-005	0.00000E+000	-5.70000E-002	-7.79272E-004	10	..........a	-327.74
	2450	8.17	-5.10339E-002	8.50828E-005	0.00000E+000	-5.00000E-002	-8.14272E-004	10	..........a	-327.74
	2457	8.19333	-4.39664E-002	8.45564E-005	0.00000E+000	-4.30000E-002	-8.29272E-004	10	..........a	-327.74
	2464	8.21667	-3.69839E-002	8.37293E-005	0.00000E+000	-3.60000E-002	-8.14272E-004	10	..........a	-327.74
	2471	8.24	-2.99814E-002	8.32280E-005	0.00000E+000	-2.90000E-002	-8.24272E-004	10	..........a	-327.74
	2478	8.26333	-2.29689E-002	8.29523E-005	0.00000E+000	-2.20000E-002	-8.24272E-004	10	..........a	-327.74
	2485	8.28667	-1.59989E-002	8.24259E-005	0.00000E+000	-1.50000E-002	-8.09272E-004	10	..........a	-327.74
	2492	8.31	-8.99144E-003	8.21251E-005	0.00000E+000	-8.00000E-003	-8.24272E-004	10	..........a	-327.74
	2499	8.33333	-1.96394E-003	8.18745E-005	0.00000E+000	-1.00000E-003	-8.19272E-004	10	..........a	-327.74
	2506	8.35667	4.99606E-003	8.12479E-005	0.00000E+000	5.99998E-003	-8.09272E-004	10	..........a	-327.74
	2513	8.38	1.20136E-002	8.09972E-005	0.00000E+000	1.30000E-002	-8.39272E-004	10	..........a	-327.74
	2520	8.40333	1.90186E-002	8.05711E-005	0.00000E+000	2.00000E-002	-8.44272E-004	10	..........a	-327.74
	2527	8.42667	2.59686E-002	8.03205E-005	0.00000E+000	2.70000E-002	-8.24272E-004	10	..........a	-327.74
	2534	8.45	3.30286E-002	7.96186E-005	0.00000E+000	3.40000E-002	-8.49272E-004	10	..........a	-327.74
	2541	8.47333	3.99511E-002	7.92677E-005	0.00000E+000	4.10000E-002	-8.24272E-004	10	..........a	-327.74
	2548	8.49667	4.69911E-002	7.85910E-005	0.00000E+000	4.80000E-002	-8.59272E-004	10	..........a	-327.74
	2555	8.52	5.39761E-002	7.75633E-005	0.00000E+000	5.50000E-002	-8.19272E-004	10	..........a	-327.74
	2562	8.54333	6.09361E-002	7.76636E-005	0.00000E+000	6.20000E-002	-8.39272E-004	10	..........a	-327.74
	2569	8.56667	6.79511E-002	7.66610E-005	0.00000E+000	6.90000E-002	-8.34272E-004	10	..........a	-327.74
	2576	8.59	7.49186E-002	7.55331E-005	0.00000E+000	7.60000E-002	-7.89272E-004	10	..........a	-327.74
	2583	8.61333	8.19586E-002	7.47811E-005	0.00000E+000	8.30000E-002	-8.04272E-004	10	..........a	-327.74
	2590	8.63667	8.89786E-002	7.38537E-005	0.00000E+000	9.00000E-002	-8.14272E-004	10	..........a	-327.74
	2597	8.66	9.59686E-002	7.34276E-005	0.00000E+000	9.70000E-002	-8.04272E-004	10	..........a	-327.74
	2604	8.68333	1.03004E-001	7.26255E-005	0.00000E+000	1.04000E-001	-8.29272E-004	10	..........a	-327.74
	2611	8.70667	1.09951E-001	7.17483E-005	0.00000E+000	1.11000E-001	-8.09272E-004	10	..........a	-327.74
	2618	8.73	1.16879E-001	7.07457E-005	0.00000E+000	1.18000E-001	-8.19272E-004	10	..........a	-327.74
	2625	8.75333	1.23946E-001	6.96428E-005	0.00000E+000	1.25000E-001	-8.24272E-004	10	..........a	-327.74
	2632	8.77667	1.30936E-001	6.89911E-005	0.00000E+000	1.32000E-001	-8.19272E-004	10	..........a	-327.74
	2639	8.8	1.37944E-001	6.79384E-005	0.00000E+000	1.39000E-001	-7.89272E-004	10	..........a	-327.74
	2646	8.82333	1.45056E-001	6.72617E-005	0.00000E+000	1.46000E-001	-8.34272E-004	10	..........a	-327.74
	2653	8.84667	1.51961E-001	6.59332E-005	0.00000E+000	1.53000E-001	-8.19272E-004	10	..........a	-327.74
	2660	8.87	1.58981E-001	6.51311E-005	0.00000E+000	1.60000E-001	-8.04272E-004	10	..........a	-327.74
	2667	8.89333	1.65964E-001	6.45547E-005	0.00000E+000	1.67000E-001	-8.34272E-004	10	..........a	-327.74
	2674	8.91667	1.72936E-001	6.38779E-005	0.00000E+000	1.74000E-001	-8.74272E-004	10	..........a	-327.74
	2681	8.94	1.79891E-001	6.31510E-005	0.00000E+000	1.81000E-001	-8.24272E-004	10	..........a	-327.74
	2688	8.96333	1.86904E-001	6.16973E-005	0.00000E+000	1.88000E-001	-8.34272E-004	10	..........a	-327.74
	2695	8.98667	1.93881E-001	6.06947E-005	0.00000E+000	1.95000E-001	-8.49272E-004	10	..........a	-327.74
	2702	9.01	2.00991E-001	6.01934E-005	0.00000E+000	2.02000E-001	-8.19272E-004	10	..........a	-327.74
	2709	9.03333	2.07846E-001	5.95918E-005	0.00000E+000	2.09000E-001	-8.34272E-004	10	..........a	-327.74
	2716	9.05667	2.14911E-001	5.88649E-005	0.00000E+000	2.16000E-001	-8.14272E-004	10	..........a	-327.74
	2723	9.08	2.21926E-001	5.79877E-005	0.00000E+000	2.23000E-001	-7.94272E-004	10	..........a	-327.74
	2730	9.10333	2.28874E-001	5.76618E-005	0.00000E+000	2.30000E-001	-8.29272E-004	10	..........a	-327.74
	2737	9.12667	2.35896E-001	5.73109E-005	0.00000E+000	2.37000E-001	-8.24272E-004	10	..........a	-327.74
	2744	9.15	2.42906E-001	5.66592E-005	0.00000E+000	2.44000E-001	-8.14272E-004	10	..........a	-327.74
	2751	9.17333	2.49876E-001	5.59073E-005	0.00000E+000	2.51000E-001	-8.39272E-004	10	..........a	-327.74
	2758	9.19667	2.56909E-001	5.52807E-005	0.00000E+000	2.58000E-001	-8.14272E-004	10	..........a	-327.74
	2765	9.22	2.63854E-001	5.48796E-005	0.00000E+000	2.65000E-001	-8.19272E-004	10	..........a	-327.74
	2772	9.24333	2.70889E-001	5.45538E-005	0.00000E+000	2.72000E-001	-8.59272E-004	10	..........a	-327.74
	2779	9.26667	2.77931E-001	5.43031E-005	0.00000E+000	2.79000E-001	-8.39272E-004	10	..........a	-327.74
	2786	9.29	2.84839E-001	5.40274E-005	0.00000E+000	2.86000E-001	-7.99272E-004	10	..........a	-327.74
	2793	9.31333	2.91879E-001	5.34509E-005	0.00000E+000	2.93000E-001	-8.14272E-004	10	..........a	-327.74
	2800	9.33667	2.98889E-001	5.37768E-005	0.00000E+000	3.00000E-001	-8.64272E-004	10	..........a	-327.74
	2807	9.36	3.05846E-001	5.29747E-005	0.00000E+000	3.07000E-001	-8.24272E-004	10	..........a	-327.74
	2814	9.38333	3.12874E-001	5.28494E-005	0.00000E+000	3.14000E-001	-8.24272E-004	10	..........a	-327.74
	2821	9.40667	3.19844E-001	5.23481E-005	0.00000E+000	3.21000E-001	-8.39272E-004	10	..........a	-327.74
	2828	9.43	3.26839E-001	5.21476E-005	0.00000E+000	3.28000E-001	-8.29272E-004	10	..........a	-327.74
	2835	9.45333	3.33879E-001	5.18969E-005	0.00000E+000	3.35000E-001	-8.24272E-004	10	..........a	-327.74
	2842	9.47667	3.40844E-001	5.13956E-005	0.00000E+000	3.42000E-001	-8.09272E-004	10	..........a	-327.74
	2849	9.5	3.47814E-001	5.12954E-005	0.00000E+000	3.49000E-001	-8.34272E-004	10	..........a	-327.74
	2856	9.5233	3.54876E-001	5.13705E-005	0.00000E+000	3.56000E-001	-8.49272E-004	10	..........a	-327.74
	2863	9.5467	3.61821E-001	5.11951E-005	0.00000E+000	3.63000E-001	-8.49272E-004	10	..........a	-327.74
	2870	9.57	3.68904E-001	5.11700E-005	0.00000E+000	3.70000E-001	-8.44272E-004	10	..........a	-327.74
	2877	9.5933	3.75884E-001	5.04682E-005	0.00000E+000	3.77000E-001	-7.94272E-004	10	..........a	-327.74
	2884	9.6167	3.82874E-001	5.04682E-005	0.00000E+000	3.84000E-001	-8.39272E-004	10	..........a	-327.74
	2891	9.64	3.89861E-001	4.99419E-005	0.00000E+000	3.91000E-001	-7.99272E-004	10	..........a	-327.74
	2898	9.6633	3.96846E-001	5.01173E-005	0.00000E+000	3.98000E-001	-8.24272E-004	10	..........a	-327.74
	2905	9.6867	4.03929E-001	4.97163E-005	0.00000E+000	4.05000E-001	-8.24272E-004	10	..........a	-327.74
	2912	9.71	4.10856E-001	4.93403E-005	0.00000E+000	4.12000E-001	-8.39272E-004	10	..........a	-327.74
	2919	9.7333	4.17831E-001	4.93403E-005	0.00000E+000	4.19000E-001	-8.09272E-004	10	..........a	-327.74
	2926	9.7567	4.24916E-001	4.89142E-005	0.00000E+000	4.26000E-001	-8.64272E-004	10	..........a	-327.74
	2933	9.78	4.31851E-001	4.82374E-005	0.00000E+000	4.33000E-001	-8.64272E-004	10	..........a	-327.74
	2940	9.8033	4.38834E-001	4.81873E-005	0.00000E+000	4.40000E-001	-8.29272E-004	10	..........a	-327.74
	2947	9.8267	4.45864E-001	4.76359E-005	0.00000E+000	4.47000E-001	-8.24272E-004	10	..........a	-327.74
	2954	9.85	4.52856E-001	4.73100E-005	0.00000E+000	4.54000E-001	-8.54272E-004	10	..........a	-327.74
	2961	9.8733	4.59851E-001	4.76108E-005	0.00000E+000	4.61000E-001	-8.54272E-004	10	..........a	-327.74
	2968	9.8967	4.66816E-001	4.69341E-005	0.00000E+000	4.68000E-001	-8.59272E-004	10	..........a	-327.74
	2975	9.92	4.73846E-001	4.70343E-005	0.00000E+000	4.75000E-001	-8.24272E-004	10	..........a	-327.74
	2982	9.9433	4.80814E-001	4.61320E-005	0.00000E+000	4.82000E-001	-8.24272E-004	10	..........a	-327.74
	2989	9.9667	4.87711E-001	4.56558E-005	0.00000E+000	4.89000E-001	-8.24272E-004	10	..........a	-327.74
	2996	9.99	4.94799E-001	4.51043E-005	0.00000E+000	4.96000E-001	-8.29272E-004	10	..........a	-327.74
	3000	10.0033	4.98824E-001	4.52046E-005	0.00000E+000	5.00000E-001	-8.09272E-004	10	..........a	-327.74
CURVE2	TABLE
	Pt	T	Vf	Im	Vu	Sig	Ach	IERange	Over	Temp
	#	s	V vs. Ref.	A	V	V	V	#	bits	deg C
	3001	10.0067	4.98821E-001	4.41519E-005	0.00000E+000	5.00000E-001	-8.24272E-004	10	..........a	-327.74