File: data/02-SI/Figures_S9_S11_RDE/18btmapaq-rde/1mkcl-18btmapaq-nitrogen-300mvpers.DTA
EXPLAIN
TAG	CV
TITLE	LABEL	Cyclic Voltammetry	Test &Identifier
DATE	LABEL	1/31/2023	Date
TIME	LABEL	15:20:50	Time
NOTES	NOTES	1	&Notes...

PSTAT	PSTAT	REF3000-21108	Potentiostat
VINIT	POTEN	5.00000E-001	F	Initial &E (V)
VLIMIT1	POTEN	-1.00000E+000	F	Scan Limit &1 (V)
VLIMIT2	POTEN	5.00000E-001	F	Scan Limit &2 (V)
VFINAL	POTEN	5.00000E-001	F	Final &E (V)
SCANRATE	QUANT	2.99999E+002	&Scan Rate (mV/s)
STEPSIZE	QUANT	1.00000E+000	St&ep Size (mV)
CYCLES	IQUANT	1	C&ycles (#)
IMODE	SELECTOR	1	I/E Range &Mode
IRANGE	QUANT	1.00000E+001	&Max Current (mA)
AREA	QUANT	1.00000E+000	Electrode &Area (cm^2)
ELECTRODETYPE	SELECTOR	0	Electrode Type
STRIPPING	TOGGLE	F	Used for Stripping
POLARITY	TOGGLE	F	Signal Polarity
CONDIT	TWOPARAM	F	1.50000E+001	0.00000E+000	Conditionin&g	Time(s)	E(V)
DELAY	TWOPARAM	F	5.00000E+000	0.00000E+000	Init. De&lay	Time(s)	Stab.(mV/s)
EQDELAY	QUANT	0.00000E+000	Equil. &Time (s)
IRCOMP	SELECTOR	0	IRCom&p
PFCOR	QUANT	5.00000E+001	PF Corr. (ohm)
SAMPLINGMODE	SELECTOR	1	Sampling &Mode
EOC	QUANT	0	Open Circuit (V)
PSTATMODEL	IQUANT	5	Pstat Model
PSTATSECTION	LABEL	REF3000-21108	Pstat Section
PSTATSERIALNO	LABEL	21108	Pstat Serial Number
CTRLMODE	IQUANT	1	Control Mode
ELECTROMETER	IQUANT	0	RE=0 or CS=1
IESTAB	IQUANT	2	I/E Stability
CASPEED	IQUANT	4	Control Amp Speed
CONVENTION	IQUANT	1	Current Convention
ICHRANGE	IQUANT	2	Ich Range
ICHRANGEMODE	TOGGLE	F	Ich Auto Range
ICHOFFSETENABLE	TOGGLE	F	Ich Offset Enable
ICHOFFSET	QUANT	0	Ich Offset (V)
ICHFILTER	IQUANT	2	Ich Filter
VCHRANGE	IQUANT	2	Vch Range
VCHRANGEMODE	TOGGLE	F	Vch Auto Range
VCHOFFSETENABLE	TOGGLE	F	Vch Offset Enable
VCHOFFSET	QUANT	0	Vch Offset (V)
VCHFILTER	IQUANT	2	Vch Filter
ACHRANGE	IQUANT	2	Ach Range
ACHOFFSETENABLE	TOGGLE	F	Ach Offset Enable
ACHOFFSET	QUANT	0	Ach Offset (V)
ACHFILTER	IQUANT	0	Ach Filter
IERANGELOWERLIMIT	IQUANT	2	I/E Range Lower Limit
IERANGEMODE	TOGGLE	F	I/E AutoRange
IERANGE	IQUANT	10	I/E Range
POSFEEDENABLE	TOGGLE	F	Positive Feedback IR Comp
POSFEEDRESISTANCE	QUANT	0	Positive Feedback Resistance (ohm)
ACHSELECT	IQUANT	0	Ach Select
SENSECABLEID	IQUANT	14	Sense Cable ID
PWRCABLEID	IQUANT	7	Power Cable ID
DCCALDATE	LABEL	11/9/2022	DC Calibration Date
ACCALDATE	LABEL	11/9/2022	AC Calibration Date
THERMOSELECT	IQUANT	1	Thermo Select
FRAMEWORKVERSION	LABEL	7.8.2	Framework Version
INSTRUMENTVERSION	LABEL	4.40	Instrument Version
COMPLIANCEVOLTAGE	IQUANT	0	Compliance Voltage
CURVE1	TABLE
	Pt	T	Vf	Im	Vu	Sig	Ach	IERange	Over	Temp
	#	s	V vs. Ref.	A	V	V	V	#	bits	deg C
	0	0.003333	4.98791E-001	9.93836E-006	0.00000E+000	5.00000E-001	-7.29272E-004	10	..........a	-327.74
	7	0.026667	4.91759E-001	5.27629E-006	0.00000E+000	4.93000E-001	-7.79272E-004	10	..........a	-327.74
	14	0.05	4.84794E-001	3.74734E-006	0.00000E+000	4.86000E-001	-7.74272E-004	10	..........a	-327.74
	21	0.073333	4.77849E-001	2.44396E-006	0.00000E+000	4.79000E-001	-7.29272E-004	10	..........a	-327.74
	28	0.096667	4.70811E-001	1.84241E-006	0.00000E+000	4.72000E-001	-7.54272E-004	10	..........a	-327.74
	35	0.12	4.63824E-001	9.65139E-007	0.00000E+000	4.65000E-001	-7.99272E-004	10	..........a	-327.74
	42	0.143333	4.56851E-001	5.64101E-007	0.00000E+000	4.58000E-001	-7.54272E-004	10	..........a	-327.74
	49	0.166667	4.49794E-001	1.88128E-007	0.00000E+000	4.51000E-001	-7.24272E-004	10	..........a	-327.74
	56	0.19	4.42814E-001	1.12934E-007	0.00000E+000	4.44000E-001	-7.79272E-004	10	..........a	-327.74
	63	0.213333	4.35819E-001	-4.63558E-007	0.00000E+000	4.37000E-001	-7.49272E-004	10	..........a	-327.74
	70	0.236667	4.28816E-001	-3.63298E-007	0.00000E+000	4.30000E-001	-7.79272E-004	10	..........a	-327.74
	77	0.26	4.21819E-001	-4.88623E-007	0.00000E+000	4.23000E-001	-7.54272E-004	10	..........a	-327.74
	84	0.283333	4.14816E-001	-7.64336E-007	0.00000E+000	4.16000E-001	-7.89272E-004	10	..........a	-327.74
	91	0.306667	4.07811E-001	-9.64855E-007	0.00000E+000	4.09000E-001	-8.19272E-004	10	..........a	-327.74
	98	0.33	4.00819E-001	-1.44109E-006	0.00000E+000	4.02000E-001	-8.09272E-004	10	..........a	-327.74
	105	0.353333	3.93829E-001	-1.44109E-006	0.00000E+000	3.95000E-001	-7.49272E-004	10	..........a	-327.74
	112	0.376667	3.86821E-001	-1.46615E-006	0.00000E+000	3.88000E-001	-7.24272E-004	10	..........a	-327.74
	119	0.4	3.79814E-001	-1.79199E-006	0.00000E+000	3.81000E-001	-7.29272E-004	10	..........a	-327.74
	126	0.423333	3.72789E-001	-2.11784E-006	0.00000E+000	3.74000E-001	-7.94272E-004	10	..........a	-327.74
	133	0.446667	3.65869E-001	-2.49381E-006	0.00000E+000	3.67000E-001	-6.84272E-004	10	..........a	-327.74
	140	0.47	3.58796E-001	-2.79459E-006	0.00000E+000	3.60000E-001	-6.89272E-004	10	..........a	-327.74
	147	0.493333	3.51739E-001	-2.94498E-006	0.00000E+000	3.53000E-001	-7.14272E-004	10	..........a	-327.74
	154	0.516667	3.44866E-001	-3.09537E-006	0.00000E+000	3.46000E-001	-6.94272E-004	10	..........a	-327.74
	161	0.54	3.37876E-001	-3.34602E-006	0.00000E+000	3.39000E-001	-7.69272E-004	10	..........a	-327.74
	168	0.563333	3.30864E-001	-3.07030E-006	0.00000E+000	3.32000E-001	-7.14272E-004	10	..........a	-327.74
	175	0.586667	3.23834E-001	-2.99511E-006	0.00000E+000	3.25000E-001	-6.74272E-004	10	..........a	-327.74
	182	0.61	3.16864E-001	-2.89485E-006	0.00000E+000	3.18000E-001	-7.24272E-004	10	..........a	-327.74
	189	0.633333	3.09896E-001	-3.09537E-006	0.00000E+000	3.11000E-001	-6.89272E-004	10	..........a	-327.74
	196	0.656667	3.02846E-001	-2.86978E-006	0.00000E+000	3.04000E-001	-7.49272E-004	10	..........a	-327.74
	203	0.68	2.95736E-001	-3.27082E-006	0.00000E+000	2.97000E-001	-7.69272E-004	10	..........a	-327.74
	210	0.703333	2.88926E-001	-3.34602E-006	0.00000E+000	2.90000E-001	-7.14272E-004	10	..........a	-327.74
	217	0.726667	2.81856E-001	-3.19563E-006	0.00000E+000	2.83000E-001	-7.54272E-004	10	..........a	-327.74
	224	0.75	2.74856E-001	-3.29589E-006	0.00000E+000	2.76000E-001	-7.39272E-004	10	..........a	-327.74
	231	0.773333	2.67901E-001	-2.76952E-006	0.00000E+000	2.69000E-001	-7.29272E-004	10	..........a	-327.74
	238	0.796667	2.60914E-001	-3.12043E-006	0.00000E+000	2.62000E-001	-7.39272E-004	10	..........a	-327.74
	245	0.82	2.53876E-001	-3.04524E-006	0.00000E+000	2.55000E-001	-7.34272E-004	10	..........a	-327.74
	252	0.843333	2.46881E-001	-3.24576E-006	0.00000E+000	2.48000E-001	-7.69272E-004	10	..........a	-327.74
	259	0.866667	2.39856E-001	-3.12043E-006	0.00000E+000	2.41000E-001	-7.14272E-004	10	..........a	-327.74
	266	0.89	2.32944E-001	-3.24576E-006	0.00000E+000	2.34000E-001	-7.24272E-004	10	..........a	-327.74
	273	0.913333	2.25856E-001	-3.24576E-006	0.00000E+000	2.27000E-001	-7.84272E-004	10	..........a	-327.74
	280	0.936667	2.18849E-001	-3.12043E-006	0.00000E+000	2.20000E-001	-7.19272E-004	10	..........a	-327.74
	287	0.96	2.11866E-001	-2.97004E-006	0.00000E+000	2.13000E-001	-6.84272E-004	10	..........a	-327.74
	294	0.98333	2.04901E-001	-3.09537E-006	0.00000E+000	2.06000E-001	-7.54272E-004	10	..........a	-327.74
	301	1.00667	1.97886E-001	-2.91991E-006	0.00000E+000	1.99000E-001	-7.19272E-004	10	..........a	-327.74
	308	1.03	1.90911E-001	-3.12043E-006	0.00000E+000	1.92000E-001	-8.29272E-004	10	..........a	-327.74
	315	1.05333	1.83944E-001	-3.29589E-006	0.00000E+000	1.85000E-001	-6.99272E-004	10	..........a	-327.74
	322	1.07667	1.76979E-001	-3.09537E-006	0.00000E+000	1.78000E-001	-7.34272E-004	10	..........a	-327.74
	329	1.1	1.69916E-001	-2.91991E-006	0.00000E+000	1.71000E-001	-7.29272E-004	10	..........a	-327.74
	336	1.12333	1.62909E-001	-3.02017E-006	0.00000E+000	1.64000E-001	-6.99272E-004	10	..........a	-327.74
	343	1.14667	1.55951E-001	-3.39615E-006	0.00000E+000	1.57000E-001	-7.34272E-004	10	..........a	-327.74
	350	1.17	1.48924E-001	-3.67186E-006	0.00000E+000	1.50000E-001	-7.44272E-004	10	..........a	-327.74
	357	1.19333	1.41881E-001	-3.64679E-006	0.00000E+000	1.43000E-001	-7.74272E-004	10	..........a	-327.74
	364	1.21667	1.34916E-001	-3.44628E-006	0.00000E+000	1.36000E-001	-7.19272E-004	10	..........a	-327.74
	371	1.24	1.27916E-001	-3.47134E-006	0.00000E+000	1.29000E-001	-7.59272E-004	10	..........a	-327.74
	378	1.26333	1.20961E-001	-3.37108E-006	0.00000E+000	1.22000E-001	-7.64272E-004	10	..........a	-327.74
	385	1.28667	1.13966E-001	-3.64679E-006	0.00000E+000	1.15000E-001	-7.49272E-004	10	..........a	-327.74
	392	1.31	1.06931E-001	-3.67186E-006	0.00000E+000	1.08000E-001	-7.34272E-004	10	..........a	-327.74
	399	1.33333	1.00046E-001	-3.39615E-006	0.00000E+000	1.01000E-001	-7.24272E-004	10	..........a	-327.74
	406	1.35667	9.29361E-002	-3.59666E-006	0.00000E+000	9.40000E-002	-7.64272E-004	10	..........a	-327.74
	413	1.38	8.59336E-002	-3.37108E-006	0.00000E+000	8.70000E-002	-7.79272E-004	10	..........a	-327.74
	420	1.40333	7.89361E-002	-3.09537E-006	0.00000E+000	8.00000E-002	-7.34272E-004	10	..........a	-327.74
	427	1.42667	7.19186E-002	-3.54653E-006	0.00000E+000	7.30000E-002	-7.74272E-004	10	..........a	-327.74
	434	1.45	6.49686E-002	-3.67186E-006	0.00000E+000	6.60000E-002	-7.39272E-004	10	..........a	-327.74
	441	1.47333	5.79761E-002	-3.57160E-006	0.00000E+000	5.90000E-002	-6.89272E-004	10	..........a	-327.74
	448	1.49667	5.09486E-002	-3.62173E-006	0.00000E+000	5.20000E-002	-7.29272E-004	10	..........a	-327.74
	455	1.52	4.39886E-002	-3.44628E-006	0.00000E+000	4.50000E-002	-6.99272E-004	10	..........a	-327.74
	462	1.54333	3.70211E-002	-3.77212E-006	0.00000E+000	3.80000E-002	-6.89272E-004	10	..........a	-327.74
	469	1.56667	2.99761E-002	-3.47134E-006	0.00000E+000	3.10000E-002	-7.09272E-004	10	..........a	-327.74
	476	1.59	2.29611E-002	-3.69692E-006	0.00000E+000	2.40000E-002	-7.69272E-004	10	..........a	-327.74
	483	1.61333	1.58861E-002	-3.82225E-006	0.00000E+000	1.70000E-002	-7.09272E-004	10	..........a	-327.74
	490	1.63667	8.99106E-003	-3.89744E-006	0.00000E+000	9.99999E-003	-7.14272E-004	10	..........a	-327.74
	497	1.66	1.98606E-003	-3.67186E-006	0.00000E+000	2.99999E-003	-7.09272E-004	10	..........a	-327.74
	504	1.68333	-5.07144E-003	-3.92251E-006	0.00000E+000	-4.00001E-003	-7.29272E-004	10	..........a	-327.74
	511	1.70667	-1.20364E-002	-3.64679E-006	0.00000E+000	-1.10000E-002	-7.09272E-004	10	..........a	-327.74
	518	1.73	-1.90314E-002	-3.47134E-006	0.00000E+000	-1.80000E-002	-7.39272E-004	10	..........a	-327.74
	525	1.75333	-2.60364E-002	-3.74705E-006	0.00000E+000	-2.50000E-002	-7.19272E-004	10	..........a	-327.74
	532	1.77667	-3.30614E-002	-3.62173E-006	0.00000E+000	-3.20000E-002	-6.84272E-004	10	..........a	-327.74
	539	1.8	-4.00464E-002	-3.74705E-006	0.00000E+000	-3.90000E-002	-7.29272E-004	10	..........a	-327.74
	546	1.82333	-4.70139E-002	-3.89744E-006	0.00000E+000	-4.60000E-002	-6.84272E-004	10	..........a	-327.74
	553	1.84667	-5.39864E-002	-3.79718E-006	0.00000E+000	-5.30000E-002	-7.29272E-004	10	..........a	-327.74
	560	1.87	-6.10914E-002	-3.94757E-006	0.00000E+000	-6.00000E-002	-7.29272E-004	10	..........a	-327.74
	567	1.89333	-6.79939E-002	-3.84731E-006	0.00000E+000	-6.70000E-002	-7.19272E-004	10	..........a	-327.74
	574	1.91667	-7.50189E-002	-4.04783E-006	0.00000E+000	-7.40000E-002	-7.19272E-004	10	..........a	-327.74
	581	1.94	-8.20314E-002	-3.89744E-006	0.00000E+000	-8.10000E-002	-7.24272E-004	10	..........a	-327.74
	588	1.96333	-8.89589E-002	-3.89744E-006	0.00000E+000	-8.80000E-002	-7.19272E-004	10	..........a	-327.74
	595	1.98667	-9.60089E-002	-3.99770E-006	0.00000E+000	-9.50000E-002	-7.84272E-004	10	..........a	-327.74
	602	2.01	-1.03009E-001	-4.07290E-006	0.00000E+000	-1.02000E-001	-7.14272E-004	10	..........a	-327.74
	609	2.03333	-1.10024E-001	-4.14809E-006	0.00000E+000	-1.09000E-001	-7.49272E-004	10	..........a	-327.74
	616	2.05667	-1.17014E-001	-3.97264E-006	0.00000E+000	-1.16000E-001	-7.74272E-004	10	..........a	-327.74
	623	2.08	-1.23961E-001	-4.02277E-006	0.00000E+000	-1.23000E-001	-7.69272E-004	10	..........a	-327.74
	630	2.10333	-1.30996E-001	-4.19822E-006	0.00000E+000	-1.30000E-001	-7.04272E-004	10	..........a	-327.74
	637	2.12667	-1.38036E-001	-4.09796E-006	0.00000E+000	-1.37000E-001	-7.04272E-004	10	..........a	-327.74
	644	2.15	-1.44999E-001	-4.07290E-006	0.00000E+000	-1.44000E-001	-6.74272E-004	10	..........a	-327.74
	651	2.17333	-1.52014E-001	-4.12303E-006	0.00000E+000	-1.51000E-001	-7.24272E-004	10	..........a	-327.74
	658	2.19667	-1.58984E-001	-4.09796E-006	0.00000E+000	-1.58000E-001	-6.99272E-004	10	..........a	-327.74
	665	2.22	-1.65989E-001	-4.24835E-006	0.00000E+000	-1.65000E-001	-7.09272E-004	10	..........a	-327.74
	672	2.24333	-1.72986E-001	-4.27342E-006	0.00000E+000	-1.72000E-001	-7.14272E-004	10	..........a	-327.74
	679	2.26667	-1.79864E-001	-4.49900E-006	0.00000E+000	-1.79000E-001	-6.94272E-004	10	..........a	-327.74
	686	2.29	-1.87009E-001	-4.59926E-006	0.00000E+000	-1.86000E-001	-7.09272E-004	10	..........a	-327.74
	693	2.31333	-1.93949E-001	-4.54913E-006	0.00000E+000	-1.93000E-001	-7.09272E-004	10	..........a	-327.74
	700	2.33667	-2.00981E-001	-5.10055E-006	0.00000E+000	-2.00000E-001	-7.14272E-004	10	..........a	-327.74
	707	2.36	-2.07964E-001	-4.90004E-006	0.00000E+000	-2.07000E-001	-7.49272E-004	10	..........a	-327.74
	714	2.38333	-2.14996E-001	-5.25094E-006	0.00000E+000	-2.14000E-001	-7.24272E-004	10	..........a	-327.74
	721	2.40667	-2.21904E-001	-5.95276E-006	0.00000E+000	-2.21000E-001	-7.29272E-004	10	..........a	-327.74
	728	2.43	-2.28921E-001	-6.32873E-006	0.00000E+000	-2.28000E-001	-7.19272E-004	10	..........a	-327.74
	735	2.45333	-2.35861E-001	-6.55432E-006	0.00000E+000	-2.35000E-001	-7.74272E-004	10	..........a	-327.74
	742	2.47667	-2.42896E-001	-6.95535E-006	0.00000E+000	-2.42000E-001	-7.24272E-004	10	..........a	-327.74
	749	2.5	-2.49906E-001	-7.78249E-006	0.00000E+000	-2.49000E-001	-7.49272E-004	10	..........a	-327.74
	756	2.52333	-2.56871E-001	-7.85769E-006	0.00000E+000	-2.56000E-001	-7.24272E-004	10	..........a	-327.74
	763	2.54667	-2.63934E-001	-8.65976E-006	0.00000E+000	-2.63000E-001	-7.34272E-004	10	..........a	-327.74
	770	2.57	-2.70864E-001	-9.36158E-006	0.00000E+000	-2.70000E-001	-6.99272E-004	10	..........a	-327.74
	777	2.59333	-2.77906E-001	-9.81275E-006	0.00000E+000	-2.77000E-001	-7.29272E-004	10	..........a	-327.74
	784	2.61667	-2.84936E-001	-1.05146E-005	0.00000E+000	-2.84000E-001	-7.54272E-004	10	..........a	-327.74
	791	2.64	-2.91906E-001	-1.10159E-005	0.00000E+000	-2.91000E-001	-7.24272E-004	10	..........a	-327.74
	798	2.66333	-2.98904E-001	-1.20435E-005	0.00000E+000	-2.98000E-001	-7.04272E-004	10	..........a	-327.74
	805	2.68667	-3.05924E-001	-1.26701E-005	0.00000E+000	-3.05000E-001	-7.79272E-004	10	..........a	-327.74
	812	2.71	-3.12796E-001	-1.36727E-005	0.00000E+000	-3.12000E-001	-6.89272E-004	10	..........a	-327.74
	819	2.73333	-3.19851E-001	-1.43495E-005	0.00000E+000	-3.19000E-001	-7.14272E-004	10	..........a	-327.74
	826	2.75667	-3.26864E-001	-1.54774E-005	0.00000E+000	-3.26000E-001	-7.34272E-004	10	..........a	-327.74
	833	2.78	-3.33831E-001	-1.62293E-005	0.00000E+000	-3.33000E-001	-7.49272E-004	10	..........a	-327.74
	840	2.80333	-3.40951E-001	-1.69562E-005	0.00000E+000	-3.40000E-001	-7.09272E-004	10	..........a	-327.74
	847	2.82667	-3.47874E-001	-1.76831E-005	0.00000E+000	-3.47000E-001	-7.29272E-004	10	..........a	-327.74
	854	2.85	-3.54881E-001	-1.85102E-005	0.00000E+000	-3.54000E-001	-6.99272E-004	10	..........a	-327.74
	861	2.87333	-3.61904E-001	-1.91870E-005	0.00000E+000	-3.61000E-001	-7.04272E-004	10	..........a	-327.74
	868	2.89667	-3.68889E-001	-2.00141E-005	0.00000E+000	-3.68000E-001	-7.39272E-004	10	..........a	-327.74
	875	2.92	-3.75884E-001	-2.05405E-005	0.00000E+000	-3.75000E-001	-6.99272E-004	10	..........a	-327.74
	882	2.94333	-3.82901E-001	-2.07160E-005	0.00000E+000	-3.82000E-001	-6.99272E-004	10	..........a	-327.74
	889	2.96667	-3.89884E-001	-2.14930E-005	0.00000E+000	-3.89000E-001	-7.54272E-004	10	..........a	-327.74
	896	2.99	-3.96831E-001	-2.20193E-005	0.00000E+000	-3.96000E-001	-7.49272E-004	10	..........a	-327.74
	903	3.01333	-4.03854E-001	-2.24956E-005	0.00000E+000	-4.03000E-001	-6.89272E-004	10	..........a	-327.74
	910	3.03667	-4.10851E-001	-2.33979E-005	0.00000E+000	-4.10000E-001	-7.19272E-004	10	..........a	-327.74
	917	3.06	-4.17861E-001	-2.39995E-005	0.00000E+000	-4.17000E-001	-6.84272E-004	10	..........a	-327.74
	924	3.08333	-4.24839E-001	-2.54281E-005	0.00000E+000	-4.24000E-001	-7.19272E-004	10	..........a	-327.74
	931	3.10667	-4.31889E-001	-2.75837E-005	0.00000E+000	-4.31000E-001	-7.89272E-004	10	..........a	-327.74
	938	3.13	-4.38826E-001	-3.12933E-005	0.00000E+000	-4.38000E-001	-7.74272E-004	10	..........a	-327.74
	945	3.15333	-4.45889E-001	-3.59554E-005	0.00000E+000	-4.45000E-001	-7.59272E-004	10	..........a	-327.74
	952	3.17667	-4.52836E-001	-4.26477E-005	0.00000E+000	-4.52000E-001	-7.39272E-004	10	..........a	-327.74
	959	3.2	-4.59861E-001	-5.18716E-005	0.00000E+000	-4.59000E-001	-7.09272E-004	10	..........a	-327.74
	966	3.22333	-4.66814E-001	-6.36019E-005	0.00000E+000	-4.66000E-001	-7.74272E-004	10	..........a	-327.74
	973	3.24667	-4.73839E-001	-7.86910E-005	0.00000E+000	-4.73000E-001	-7.54272E-004	10	..........a	-327.74
	980	3.27	-4.80866E-001	-9.71888E-005	0.00000E+000	-4.80000E-001	-7.24272E-004	10	..........a	-327.74
	987	3.29333	-4.87881E-001	-1.21201E-004	0.00000E+000	-4.87000E-001	-7.24272E-004	10	..........a	-327.74
	994	3.31667	-4.94919E-001	-1.50953E-004	0.00000E+000	-4.94000E-001	-7.44272E-004	10	..........a	-327.74
	1001	3.34	-5.01831E-001	-1.86319E-004	0.00000E+000	-5.01000E-001	-7.04272E-004	10	..........a	-327.74
	1008	3.36333	-5.08844E-001	-2.27326E-004	0.00000E+000	-5.08000E-001	-7.54272E-004	10	..........a	-327.74
	1015	3.38667	-5.15796E-001	-2.73470E-004	0.00000E+000	-5.15000E-001	-6.99272E-004	10	..........a	-327.74
	1022	3.41	-5.22854E-001	-3.21870E-004	0.00000E+000	-5.22000E-001	-7.14272E-004	10	..........a	-327.74
	1029	3.43333	-5.29824E-001	-3.70045E-004	0.00000E+000	-5.29000E-001	-7.49272E-004	10	..........a	-327.74
	1036	3.45667	-5.36784E-001	-4.15412E-004	0.00000E+000	-5.36000E-001	-7.69272E-004	10	..........a	-327.74
	1043	3.48	-5.43816E-001	-4.52182E-004	0.00000E+000	-5.43000E-001	-7.29272E-004	10	..........a	-327.74
	1050	3.50333	-5.50784E-001	-4.77773E-004	0.00000E+000	-5.50000E-001	-7.79272E-004	10	..........a	-327.74
	1057	3.52667	-5.57836E-001	-4.88451E-004	0.00000E+000	-5.57000E-001	-7.24272E-004	10	..........a	-327.74
	1064	3.55	-5.64781E-001	-4.84090E-004	0.00000E+000	-5.64000E-001	-7.29272E-004	10	..........a	-327.74
	1071	3.57333	-5.71804E-001	-4.66920E-004	0.00000E+000	-5.71000E-001	-7.54272E-004	10	..........a	-327.74
	1078	3.59667	-5.78789E-001	-4.42307E-004	0.00000E+000	-5.78000E-001	-7.29272E-004	10	..........a	-327.74
	1085	3.62	-5.85809E-001	-4.15738E-004	0.00000E+000	-5.85000E-001	-7.44272E-004	10	..........a	-327.74
	1092	3.64333	-5.92721E-001	-3.90122E-004	0.00000E+000	-5.92000E-001	-6.89272E-004	10	..........a	-327.74
	1099	3.66667	-5.99826E-001	-3.67062E-004	0.00000E+000	-5.99000E-001	-7.04272E-004	10	..........a	-327.74
	1106	3.69	-6.06769E-001	-3.47136E-004	0.00000E+000	-6.06000E-001	-7.34272E-004	10	..........a	-327.74
	1113	3.71333	-6.13859E-001	-3.30442E-004	0.00000E+000	-6.13000E-001	-7.64272E-004	10	..........a	-327.74
	1120	3.73667	-6.20786E-001	-3.15629E-004	0.00000E+000	-6.20000E-001	-7.29272E-004	10	..........a	-327.74
	1127	3.76	-6.27741E-001	-3.03172E-004	0.00000E+000	-6.27000E-001	-6.79272E-004	10	..........a	-327.74
	1134	3.78333	-6.34751E-001	-2.91717E-004	0.00000E+000	-6.34000E-001	-6.79272E-004	10	..........a	-327.74
	1141	3.80667	-6.41761E-001	-2.81591E-004	0.00000E+000	-6.41000E-001	-7.84272E-004	10	..........a	-327.74
	1148	3.83	-6.48714E-001	-2.72492E-004	0.00000E+000	-6.48000E-001	-7.09272E-004	10	..........a	-327.74
	1155	3.85333	-6.55741E-001	-2.64246E-004	0.00000E+000	-6.55000E-001	-6.94272E-004	10	..........a	-327.74
	1162	3.87667	-6.62769E-001	-2.56626E-004	0.00000E+000	-6.62000E-001	-7.34272E-004	10	..........a	-327.74
	1169	3.9	-6.69751E-001	-2.50185E-004	0.00000E+000	-6.69000E-001	-6.74272E-004	10	..........a	-327.74
	1176	3.92333	-6.76826E-001	-2.44445E-004	0.00000E+000	-6.76000E-001	-7.09272E-004	10	..........a	-327.74
	1183	3.94667	-6.83721E-001	-2.38204E-004	0.00000E+000	-6.83000E-001	-7.39272E-004	10	..........a	-327.74
	1190	3.97	-6.90764E-001	-2.33266E-004	0.00000E+000	-6.90000E-001	-7.29272E-004	10	..........a	-327.74
	1197	3.99333	-6.97804E-001	-2.28453E-004	0.00000E+000	-6.97000E-001	-7.29272E-004	10	..........a	-327.74
	1204	4.01667	-7.04696E-001	-2.23841E-004	0.00000E+000	-7.04000E-001	-7.39272E-004	10	..........a	-327.74
	1211	4.04	-7.11764E-001	-2.19455E-004	0.00000E+000	-7.11000E-001	-7.64272E-004	10	..........a	-327.74
	1218	4.06333	-7.18774E-001	-2.15395E-004	0.00000E+000	-7.18000E-001	-7.29272E-004	10	..........a	-327.74
	1225	4.08667	-7.25759E-001	-2.11535E-004	0.00000E+000	-7.25000E-001	-7.59272E-004	10	..........a	-327.74
	1232	4.11	-7.32714E-001	-2.07750E-004	0.00000E+000	-7.32000E-001	-7.19272E-004	10	..........a	-327.74
	1239	4.13333	-7.39704E-001	-2.03765E-004	0.00000E+000	-7.39000E-001	-6.94272E-004	10	..........a	-327.74
	1246	4.15667	-7.46691E-001	-2.00531E-004	0.00000E+000	-7.46000E-001	-7.04272E-004	10	..........a	-327.74
	1253	4.18	-7.53821E-001	-1.97373E-004	0.00000E+000	-7.53000E-001	-6.99272E-004	10	..........a	-327.74
	1260	4.20333	-7.60666E-001	-1.94566E-004	0.00000E+000	-7.60000E-001	-7.24272E-004	10	..........a	-327.74
	1267	4.22667	-7.67711E-001	-1.92210E-004	0.00000E+000	-7.67000E-001	-7.34272E-004	10	..........a	-327.74
	1274	4.25	-7.74751E-001	-1.89277E-004	0.00000E+000	-7.74000E-001	-6.84272E-004	10	..........a	-327.74
	1281	4.27333	-7.81701E-001	-1.86470E-004	0.00000E+000	-7.81000E-001	-7.29272E-004	10	..........a	-327.74
	1288	4.29667	-7.88736E-001	-1.84790E-004	0.00000E+000	-7.88000E-001	-6.99272E-004	10	..........a	-327.74
	1295	4.32	-7.95714E-001	-1.81808E-004	0.00000E+000	-7.95000E-001	-7.44272E-004	10	..........a	-327.74
	1302	4.34333	-8.02701E-001	-1.79652E-004	0.00000E+000	-8.02000E-001	-7.34272E-004	10	..........a	-327.74
	1309	4.36667	-8.09699E-001	-1.77421E-004	0.00000E+000	-8.09000E-001	-7.19272E-004	10	..........a	-327.74
	1316	4.39	-8.16666E-001	-1.75792E-004	0.00000E+000	-8.16000E-001	-7.29272E-004	10	..........a	-327.74
	1323	4.41333	-8.23676E-001	-1.73662E-004	0.00000E+000	-8.23000E-001	-7.14272E-004	10	..........a	-327.74
	1330	4.43667	-8.30686E-001	-1.71932E-004	0.00000E+000	-8.30000E-001	-7.39272E-004	10	..........a	-327.74
	1337	4.46	-8.37631E-001	-1.70378E-004	0.00000E+000	-8.37000E-001	-7.19272E-004	10	..........a	-327.74
	1344	4.48333	-8.44656E-001	-1.68874E-004	0.00000E+000	-8.44000E-001	-7.34272E-004	10	..........a	-327.74
	1351	4.50667	-8.51659E-001	-1.67571E-004	0.00000E+000	-8.51000E-001	-7.54272E-004	10	..........a	-327.74
	1358	4.53	-8.58636E-001	-1.65315E-004	0.00000E+000	-8.58000E-001	-7.14272E-004	10	..........a	-327.74
	1365	4.55333	-8.65641E-001	-1.64187E-004	0.00000E+000	-8.65000E-001	-6.89272E-004	10	..........a	-327.74
	1372	4.57667	-8.72576E-001	-1.62758E-004	0.00000E+000	-8.72000E-001	-6.84272E-004	10	..........a	-327.74
	1379	4.6	-8.79651E-001	-1.60929E-004	0.00000E+000	-8.79000E-001	-7.64272E-004	10	..........a	-327.74
	1386	4.62333	-8.86609E-001	-1.60427E-004	0.00000E+000	-8.86000E-001	-7.69272E-004	10	..........a	-327.74
	1393	4.64667	-8.93549E-001	-1.58598E-004	0.00000E+000	-8.93000E-001	-7.44272E-004	10	..........a	-327.74
	1400	4.67	-9.00656E-001	-1.57595E-004	0.00000E+000	-9.00000E-001	-7.14272E-004	10	..........a	-327.74
	1407	4.69333	-9.07631E-001	-1.56668E-004	0.00000E+000	-9.07000E-001	-7.34272E-004	10	..........a	-327.74
	1414	4.71667	-9.14641E-001	-1.55239E-004	0.00000E+000	-9.14000E-001	-7.44272E-004	10	..........a	-327.74
	1421	4.74	-9.21636E-001	-1.54487E-004	0.00000E+000	-9.21000E-001	-6.99272E-004	10	..........a	-327.74
	1428	4.76333	-9.28591E-001	-1.53760E-004	0.00000E+000	-9.28000E-001	-7.29272E-004	10	..........a	-327.74
	1435	4.78667	-9.35594E-001	-1.53134E-004	0.00000E+000	-9.35000E-001	-7.34272E-004	10	..........a	-327.74
	1442	4.81	-9.42584E-001	-1.52056E-004	0.00000E+000	-9.42000E-001	-7.24272E-004	10	..........a	-327.74
	1449	4.83333	-9.49544E-001	-1.50326E-004	0.00000E+000	-9.49000E-001	-7.04272E-004	10	..........a	-327.74
	1456	4.85667	-9.56646E-001	-1.49374E-004	0.00000E+000	-9.56000E-001	-7.34272E-004	10	..........a	-327.74
	1463	4.88	-9.63621E-001	-1.48597E-004	0.00000E+000	-9.63000E-001	-7.29272E-004	10	..........a	-327.74
	1470	4.90333	-9.70626E-001	-1.47720E-004	0.00000E+000	-9.70000E-001	-7.24272E-004	10	..........a	-327.74
	1477	4.92667	-9.77581E-001	-1.46767E-004	0.00000E+000	-9.77000E-001	-7.34272E-004	10	..........a	-327.74
	1484	4.95	-9.84586E-001	-1.46040E-004	0.00000E+000	-9.84000E-001	-7.39272E-004	10	..........a	-327.74
	1491	4.97333	-9.91579E-001	-1.45138E-004	0.00000E+000	-9.91000E-001	-7.59272E-004	10	..........a	-327.74
	1498	4.99667	-9.98546E-001	-1.44486E-004	0.00000E+000	-9.98000E-001	-7.64272E-004	10	..........a	-327.74
	1505	5.02	-9.95594E-001	-1.40175E-004	0.00000E+000	-9.95000E-001	-7.54272E-004	10	..........a	-327.74
	1512	5.04333	-9.88584E-001	-1.37242E-004	0.00000E+000	-9.88000E-001	-7.39272E-004	10	..........a	-327.74
	1519	5.06667	-9.81591E-001	-1.34936E-004	0.00000E+000	-9.81000E-001	-7.14272E-004	10	..........a	-327.74
	1526	5.09	-9.74646E-001	-1.32956E-004	0.00000E+000	-9.74000E-001	-7.44272E-004	10	..........a	-327.74
	1533	5.11333	-9.67624E-001	-1.31803E-004	0.00000E+000	-9.67000E-001	-7.49272E-004	10	..........a	-327.74
	1540	5.13667	-9.60599E-001	-1.29598E-004	0.00000E+000	-9.60000E-001	-7.34272E-004	10	..........a	-327.74
	1547	5.16	-9.53586E-001	-1.27943E-004	0.00000E+000	-9.53000E-001	-7.49272E-004	10	..........a	-327.74
	1554	5.18333	-9.46579E-001	-1.26715E-004	0.00000E+000	-9.46000E-001	-7.09272E-004	10	..........a	-327.74
	1561	5.20667	-9.39601E-001	-1.25587E-004	0.00000E+000	-9.39000E-001	-7.39272E-004	10	..........a	-327.74
	1568	5.23	-9.32599E-001	-1.24835E-004	0.00000E+000	-9.32000E-001	-7.54272E-004	10	..........a	-327.74
	1575	5.25333	-9.25594E-001	-1.23958E-004	0.00000E+000	-9.25000E-001	-7.44272E-004	10	..........a	-327.74
	1582	5.27667	-9.18676E-001	-1.22805E-004	0.00000E+000	-9.18000E-001	-7.19272E-004	10	..........a	-327.74
	1589	5.3	-9.11604E-001	-1.21928E-004	0.00000E+000	-9.11000E-001	-7.19272E-004	10	..........a	-327.74
	1596	5.32333	-9.04611E-001	-1.21151E-004	0.00000E+000	-9.04000E-001	-6.94272E-004	10	..........a	-327.74
	1603	5.34667	-8.97589E-001	-1.19772E-004	0.00000E+000	-8.97000E-001	-7.04272E-004	10	..........a	-327.74
	1610	5.37	-8.90584E-001	-1.18945E-004	0.00000E+000	-8.90000E-001	-7.34272E-004	10	..........a	-327.74
	1617	5.39333	-8.83624E-001	-1.18344E-004	0.00000E+000	-8.83000E-001	-7.14272E-004	10	..........a	-327.74
	1624	5.41667	-8.76709E-001	-1.17541E-004	0.00000E+000	-8.76000E-001	-7.24272E-004	10	..........a	-327.74
	1631	5.44	-8.69654E-001	-1.16865E-004	0.00000E+000	-8.69000E-001	-7.44272E-004	10	..........a	-327.74
	1638	5.46333	-8.62654E-001	-1.16188E-004	0.00000E+000	-8.62000E-001	-7.14272E-004	10	..........a	-327.74
	1645	5.48667	-8.55656E-001	-1.15461E-004	0.00000E+000	-8.55000E-001	-7.39272E-004	10	..........a	-327.74
	1652	5.51	-8.48599E-001	-1.14684E-004	0.00000E+000	-8.48000E-001	-7.14272E-004	10	..........a	-327.74
	1659	5.53333	-8.41649E-001	-1.13732E-004	0.00000E+000	-8.41000E-001	-7.14272E-004	10	..........a	-327.74
	1666	5.55667	-8.34644E-001	-1.13155E-004	0.00000E+000	-8.34000E-001	-7.29272E-004	10	..........a	-327.74
	1673	5.58	-8.27664E-001	-1.12253E-004	0.00000E+000	-8.27000E-001	-7.14272E-004	10	..........a	-327.74
	1680	5.60333	-8.20666E-001	-1.11726E-004	0.00000E+000	-8.20000E-001	-7.09272E-004	10	..........a	-327.74
	1687	5.62667	-8.13679E-001	-1.11100E-004	0.00000E+000	-8.13000E-001	-7.04272E-004	10	..........a	-327.74
	1694	5.65	-8.06699E-001	-1.10423E-004	0.00000E+000	-8.06000E-001	-7.14272E-004	10	..........a	-327.74
	1701	5.67333	-7.99694E-001	-1.09847E-004	0.00000E+000	-7.99000E-001	-7.29272E-004	10	..........a	-327.74
	1708	5.69667	-7.92671E-001	-1.09621E-004	0.00000E+000	-7.92000E-001	-7.09272E-004	10	..........a	-327.74
	1715	5.72	-7.85759E-001	-1.09245E-004	0.00000E+000	-7.85000E-001	-7.44272E-004	10	..........a	-327.74
	1722	5.74333	-7.78786E-001	-1.08368E-004	0.00000E+000	-7.78000E-001	-7.74272E-004	10	..........a	-327.74
	1729	5.76667	-7.71696E-001	-1.07691E-004	0.00000E+000	-7.71000E-001	-7.14272E-004	10	..........a	-327.74
	1736	5.79	-7.64741E-001	-1.06989E-004	0.00000E+000	-7.64000E-001	-7.84272E-004	10	..........a	-327.74
	1743	5.81333	-7.57704E-001	-1.06388E-004	0.00000E+000	-7.57000E-001	-7.34272E-004	10	..........a	-327.74
	1750	5.83667	-7.50741E-001	-1.05811E-004	0.00000E+000	-7.50000E-001	-6.79272E-004	10	..........a	-327.74
	1757	5.86	-7.43746E-001	-1.05134E-004	0.00000E+000	-7.43000E-001	-7.89272E-004	10	..........a	-327.74
	1764	5.88333	-7.36704E-001	-1.04733E-004	0.00000E+000	-7.36000E-001	-7.24272E-004	10	..........a	-327.74
	1771	5.90667	-7.29736E-001	-1.04533E-004	0.00000E+000	-7.29000E-001	-7.64272E-004	10	..........a	-327.74
	1778	5.93	-7.22701E-001	-1.03931E-004	0.00000E+000	-7.22000E-001	-7.19272E-004	10	..........a	-327.74
	1785	5.95333	-7.15744E-001	-1.03255E-004	0.00000E+000	-7.15000E-001	-6.84272E-004	10	..........a	-327.74
	1792	5.97667	-7.08741E-001	-1.02427E-004	0.00000E+000	-7.08000E-001	-7.14272E-004	10	..........a	-327.74
	1799	6	-7.01704E-001	-1.01926E-004	0.00000E+000	-7.01000E-001	-6.99272E-004	10	..........a	-327.74
	1806	6.02333	-6.94761E-001	-1.00949E-004	0.00000E+000	-6.94000E-001	-7.39272E-004	10	..........a	-327.74
	1813	6.04667	-6.87784E-001	-1.00372E-004	0.00000E+000	-6.87000E-001	-6.79272E-004	10	..........a	-327.74
	1820	6.07	-6.80729E-001	-9.95950E-005	0.00000E+000	-6.80000E-001	-7.04272E-004	10	..........a	-327.74
	1827	6.09333	-6.73746E-001	-9.89183E-005	0.00000E+000	-6.73000E-001	-6.99272E-004	10	..........a	-327.74
	1834	6.11667	-6.66714E-001	-9.82415E-005	0.00000E+000	-6.66000E-001	-7.04272E-004	10	..........a	-327.74
	1841	6.14	-6.59741E-001	-9.75397E-005	0.00000E+000	-6.59000E-001	-6.84272E-004	10	..........a	-327.74
	1848	6.16333	-6.52756E-001	-9.69632E-005	0.00000E+000	-6.52000E-001	-7.09272E-004	10	..........a	-327.74
	1855	6.18667	-6.45684E-001	-9.58102E-005	0.00000E+000	-6.45000E-001	-7.34272E-004	10	..........a	-327.74
	1862	6.21	-6.38736E-001	-9.46573E-005	0.00000E+000	-6.38000E-001	-7.29272E-004	10	..........a	-327.74
	1869	6.23333	-6.31729E-001	-9.27774E-005	0.00000E+000	-6.31000E-001	-7.39272E-004	10	..........a	-327.74
	1876	6.25667	-6.24739E-001	-9.15994E-005	0.00000E+000	-6.24000E-001	-7.19272E-004	10	..........a	-327.74
	1883	6.28	-6.17764E-001	-8.90177E-005	0.00000E+000	-6.17000E-001	-7.74272E-004	10	..........a	-327.74
	1890	6.30333	-6.10796E-001	-8.62355E-005	0.00000E+000	-6.10000E-001	-6.89272E-004	10	..........a	-327.74
	1897	6.32667	-6.03774E-001	-8.36538E-005	0.00000E+000	-6.03000E-001	-6.99272E-004	10	..........a	-327.74
	1904	6.35	-5.96761E-001	-7.93176E-005	0.00000E+000	-5.96000E-001	-7.54272E-004	10	..........a	-327.74
	1911	6.37333	-5.89806E-001	-7.40289E-005	0.00000E+000	-5.89000E-001	-7.09272E-004	10	..........a	-327.74
	1918	6.39667	-5.82781E-001	-6.69606E-005	0.00000E+000	-5.82000E-001	-6.94272E-004	10	..........a	-327.74
	1925	6.42	-5.75816E-001	-5.70349E-005	0.00000E+000	-5.75000E-001	-6.74272E-004	10	..........a	-327.74
	1932	6.44333	-5.68754E-001	-4.42268E-005	0.00000E+000	-5.68000E-001	-7.24272E-004	10	..........a	-327.74
	1939	6.46667	-5.61841E-001	-2.61550E-005	0.00000E+000	-5.61000E-001	-7.44272E-004	10	..........a	-327.74
	1946	6.49	-5.54821E-001	-1.89225E-006	0.00000E+000	-5.54000E-001	-7.59272E-004	10	..........a	-327.74
	1953	6.51333	-5.47766E-001	3.05166E-005	0.00000E+000	-5.47000E-001	-7.09272E-004	10	..........a	-327.74
	1960	6.53667	-5.40819E-001	7.16229E-005	0.00000E+000	-5.40000E-001	-7.34272E-004	10	..........a	-327.74
	1967	6.56	-5.33779E-001	1.20850E-004	0.00000E+000	-5.33000E-001	-7.79272E-004	10	..........a	-327.74
	1974	6.58333	-5.26816E-001	1.73637E-004	0.00000E+000	-5.26000E-001	-7.49272E-004	10	..........a	-327.74
	1981	6.60667	-5.19831E-001	2.23566E-004	0.00000E+000	-5.19000E-001	-7.44272E-004	10	..........a	-327.74
	1988	6.63	-5.12721E-001	2.64347E-004	0.00000E+000	-5.12000E-001	-7.09272E-004	10	..........a	-327.74
	1995	6.65333	-5.05861E-001	2.91567E-004	0.00000E+000	-5.05000E-001	-7.34272E-004	10	..........a	-327.74
	2002	6.67667	-4.98816E-001	3.05252E-004	0.00000E+000	-4.98000E-001	-7.34272E-004	10	..........a	-327.74
	2009	6.7	-4.91786E-001	3.07258E-004	0.00000E+000	-4.91000E-001	-7.19272E-004	10	..........a	-327.74
	2016	6.72333	-4.84866E-001	3.01292E-004	0.00000E+000	-4.84000E-001	-7.44272E-004	10	..........a	-327.74
	2023	6.74667	-4.77824E-001	2.89963E-004	0.00000E+000	-4.77000E-001	-7.24272E-004	10	..........a	-327.74
	2030	6.77	-4.70841E-001	2.75851E-004	0.00000E+000	-4.70000E-001	-7.34272E-004	10	..........a	-327.74
	2037	6.79333	-4.63854E-001	2.60010E-004	0.00000E+000	-4.63000E-001	-7.39272E-004	10	..........a	-327.74
	2044	6.81667	-4.56869E-001	2.44270E-004	0.00000E+000	-4.56000E-001	-7.89272E-004	10	..........a	-327.74
	2051	6.84	-4.49866E-001	2.29156E-004	0.00000E+000	-4.49000E-001	-7.59272E-004	10	..........a	-327.74
	2058	6.86333	-4.42876E-001	2.14693E-004	0.00000E+000	-4.42000E-001	-7.54272E-004	10	..........a	-327.74
	2065	6.88667	-4.35816E-001	2.01033E-004	0.00000E+000	-4.35000E-001	-7.19272E-004	10	..........a	-327.74
	2072	6.91	-4.28889E-001	1.88400E-004	0.00000E+000	-4.28000E-001	-7.29272E-004	10	..........a	-327.74
	2079	6.93333	-4.21726E-001	1.77121E-004	0.00000E+000	-4.21000E-001	-7.04272E-004	10	..........a	-327.74
	2086	6.95667	-4.14879E-001	1.66744E-004	0.00000E+000	-4.14000E-001	-7.19272E-004	10	..........a	-327.74
	2093	6.98	-4.07856E-001	1.57495E-004	0.00000E+000	-4.07000E-001	-7.99272E-004	10	..........a	-327.74
	2100	7.00333	-4.00874E-001	1.49048E-004	0.00000E+000	-4.00000E-001	-7.49272E-004	10	..........a	-327.74
	2107	7.02667	-3.93901E-001	1.41328E-004	0.00000E+000	-3.93000E-001	-7.39272E-004	10	..........a	-327.74
	2114	7.05	-3.86901E-001	1.34636E-004	0.00000E+000	-3.86000E-001	-7.79272E-004	10	..........a	-327.74
	2121	7.07333	-3.79834E-001	1.28570E-004	0.00000E+000	-3.79000E-001	-7.04272E-004	10	..........a	-327.74
	2128	7.09667	-3.72869E-001	1.23106E-004	0.00000E+000	-3.72000E-001	-7.19272E-004	10	..........a	-327.74
	2135	7.12	-3.65914E-001	1.17717E-004	0.00000E+000	-3.65000E-001	-7.34272E-004	10	..........a	-327.74
	2142	7.14333	-3.58859E-001	1.12328E-004	0.00000E+000	-3.58000E-001	-7.24272E-004	10	..........a	-327.74
	2149	7.16667	-3.51901E-001	1.08218E-004	0.00000E+000	-3.51000E-001	-7.74272E-004	10	..........a	-327.74
	2156	7.19	-3.44816E-001	1.03706E-004	0.00000E+000	-3.44000E-001	-7.59272E-004	10	..........a	-327.74
	2163	7.21333	-3.37899E-001	1.00147E-004	0.00000E+000	-3.37000E-001	-7.64272E-004	10	..........a	-327.74
	2170	7.23667	-3.30899E-001	9.65374E-005	0.00000E+000	-3.30000E-001	-7.19272E-004	10	..........a	-327.74
	2177	7.26	-3.23851E-001	9.29281E-005	0.00000E+000	-3.23000E-001	-7.54272E-004	10	..........a	-327.74
	2184	7.28333	-3.16946E-001	9.06722E-005	0.00000E+000	-3.16000E-001	-7.54272E-004	10	..........a	-327.74
	2191	7.30667	-3.09876E-001	8.71882E-005	0.00000E+000	-3.09000E-001	-7.14272E-004	10	..........a	-327.74
	2198	7.33	-3.02924E-001	8.52332E-005	0.00000E+000	-3.02000E-001	-7.39272E-004	10	..........a	-327.74
	2205	7.35333	-2.95929E-001	8.20750E-005	0.00000E+000	-2.95000E-001	-7.29272E-004	10	..........a	-327.74
	2212	7.37667	-2.88834E-001	7.98192E-005	0.00000E+000	-2.88000E-001	-7.79272E-004	10	..........a	-327.74
	2219	7.4	-2.81911E-001	7.69618E-005	0.00000E+000	-2.81000E-001	-7.79272E-004	10	..........a	-327.74
	2226	7.42333	-2.74901E-001	7.49816E-005	0.00000E+000	-2.74000E-001	-7.69272E-004	10	..........a	-327.74
	2233	7.44667	-2.67831E-001	7.25754E-005	0.00000E+000	-2.67000E-001	-7.44272E-004	10	..........a	-327.74
	2240	7.47	-2.60939E-001	7.07707E-005	0.00000E+000	-2.60000E-001	-7.44272E-004	10	..........a	-327.74
	2247	7.49333	-2.53939E-001	6.93671E-005	0.00000E+000	-2.53000E-001	-7.34272E-004	10	..........a	-327.74
	2254	7.51667	-2.46909E-001	6.75624E-005	0.00000E+000	-2.46000E-001	-7.74272E-004	10	..........a	-327.74
	2261	7.54	-2.39946E-001	6.61087E-005	0.00000E+000	-2.39000E-001	-7.34272E-004	10	..........a	-327.74
	2268	7.56333	-2.32859E-001	6.41035E-005	0.00000E+000	-2.32000E-001	-6.94272E-004	10	..........a	-327.74
	2275	7.58667	-2.25934E-001	6.28001E-005	0.00000E+000	-2.25000E-001	-7.59272E-004	10	..........a	-327.74
	2282	7.61	-2.18926E-001	6.08200E-005	0.00000E+000	-2.18000E-001	-7.64272E-004	10	..........a	-327.74
	2289	7.63333	-2.11899E-001	5.96420E-005	0.00000E+000	-2.11000E-001	-7.24272E-004	10	..........a	-327.74
	2296	7.65667	-2.04959E-001	5.90153E-005	0.00000E+000	-2.04000E-001	-7.24272E-004	10	..........a	-327.74
	2303	7.68	-1.97934E-001	5.78122E-005	0.00000E+000	-1.97000E-001	-7.54272E-004	10	..........a	-327.74
	2310	7.70333	-1.90939E-001	5.62081E-005	0.00000E+000	-1.90000E-001	-7.14272E-004	10	..........a	-327.74
	2317	7.72667	-1.83981E-001	5.54812E-005	0.00000E+000	-1.83000E-001	-7.94272E-004	10	..........a	-327.74
	2324	7.75	-1.76966E-001	5.45538E-005	0.00000E+000	-1.76000E-001	-7.29272E-004	10	..........a	-327.74
	2331	7.77333	-1.69961E-001	5.35261E-005	0.00000E+000	-1.69000E-001	-7.24272E-004	10	..........a	-327.74
	2338	7.79667	-1.62989E-001	5.24483E-005	0.00000E+000	-1.62000E-001	-7.94272E-004	10	..........a	-327.74
	2345	7.82	-1.55886E-001	5.14959E-005	0.00000E+000	-1.55000E-001	-7.29272E-004	10	..........a	-327.74
	2352	7.84333	-1.48996E-001	5.05434E-005	0.00000E+000	-1.48000E-001	-7.19272E-004	10	..........a	-327.74
	2359	7.86667	-1.41961E-001	4.98667E-005	0.00000E+000	-1.41000E-001	-7.24272E-004	10	..........a	-327.74
	2366	7.89	-1.34936E-001	4.91398E-005	0.00000E+000	-1.34000E-001	-7.44272E-004	10	..........a	-327.74
	2373	7.91333	-1.27966E-001	4.83126E-005	0.00000E+000	-1.27000E-001	-7.54272E-004	10	..........a	-327.74
	2380	7.93667	-1.20951E-001	4.78865E-005	0.00000E+000	-1.20000E-001	-7.54272E-004	10	..........a	-327.74
	2387	7.96	-1.13984E-001	4.71597E-005	0.00000E+000	-1.13000E-001	-7.34272E-004	10	..........a	-327.74
	2394	7.98333	-1.06991E-001	4.67085E-005	0.00000E+000	-1.06000E-001	-7.29272E-004	10	..........a	-327.74
	2401	8.00667	-9.99289E-002	4.62072E-005	0.00000E+000	-9.90000E-002	-7.54272E-004	10	..........a	-327.74
	2408	8.03	-9.30264E-002	4.55555E-005	0.00000E+000	-9.20000E-002	-7.84272E-004	10	..........a	-327.74
	2415	8.05333	-8.59689E-002	4.55304E-005	0.00000E+000	-8.50000E-002	-7.14272E-004	10	..........a	-327.74
	2422	8.07667	-7.89414E-002	4.48537E-005	0.00000E+000	-7.80000E-002	-7.49272E-004	10	..........a	-327.74
	2429	8.1	-7.19814E-002	4.43524E-005	0.00000E+000	-7.10000E-002	-6.74272E-004	10	..........a	-327.74
	2436	8.12333	-6.50039E-002	4.43524E-005	0.00000E+000	-6.40000E-002	-7.94272E-004	10	..........a	-327.74
	2443	8.14667	-5.80889E-002	4.42020E-005	0.00000E+000	-5.70000E-002	-8.09272E-004	10	..........a	-327.74
	2450	8.17	-5.10239E-002	4.40015E-005	0.00000E+000	-5.00000E-002	-7.54272E-004	10	..........a	-327.74
	2457	8.19333	-4.40039E-002	4.40767E-005	0.00000E+000	-4.30000E-002	-7.19272E-004	10	..........a	-327.74
	2464	8.21667	-3.71014E-002	4.38260E-005	0.00000E+000	-3.60000E-002	-7.24272E-004	10	..........a	-327.74
	2471	8.24	-3.00439E-002	4.40516E-005	0.00000E+000	-2.90000E-002	-7.94272E-004	10	..........a	-327.74
	2478	8.26333	-2.30014E-002	4.40266E-005	0.00000E+000	-2.20000E-002	-7.59272E-004	10	..........a	-327.74
	2485	8.28667	-1.60164E-002	4.40767E-005	0.00000E+000	-1.50000E-002	-7.94272E-004	10	..........a	-327.74
	2492	8.31	-9.05394E-003	4.40516E-005	0.00000E+000	-8.00000E-003	-7.54272E-004	10	..........a	-327.74
	2499	8.33333	-2.04644E-003	4.43775E-005	0.00000E+000	-1.00000E-003	-6.94272E-004	10	..........a	-327.74
	2506	8.35667	4.99356E-003	4.44527E-005	0.00000E+000	5.99998E-003	-7.64272E-004	10	..........a	-327.74
	2513	8.38	1.19786E-002	4.46030E-005	0.00000E+000	1.30000E-002	-7.29272E-004	10	..........a	-327.74
	2520	8.40333	1.89161E-002	4.45278E-005	0.00000E+000	2.00000E-002	-7.44272E-004	10	..........a	-327.74
	2527	8.42667	2.59461E-002	4.47534E-005	0.00000E+000	2.70000E-002	-6.89272E-004	10	..........a	-327.74
	2534	8.45	3.30061E-002	4.45780E-005	0.00000E+000	3.40000E-002	-7.89272E-004	10	..........a	-327.74
	2541	8.47333	3.98311E-002	4.43775E-005	0.00000E+000	4.10000E-002	-6.99272E-004	10	..........a	-327.74
	2548	8.49667	4.69136E-002	4.37759E-005	0.00000E+000	4.80000E-002	-7.24272E-004	10	..........a	-327.74
	2555	8.52	5.39336E-002	4.37007E-005	0.00000E+000	5.50000E-002	-7.34272E-004	10	..........a	-327.74
	2562	8.54333	6.09636E-002	4.33999E-005	0.00000E+000	6.20000E-002	-7.29272E-004	10	..........a	-327.74
	2569	8.56667	6.80561E-002	4.24224E-005	0.00000E+000	6.90000E-002	-7.29272E-004	10	..........a	-327.74
	2576	8.59	7.49811E-002	4.19712E-005	0.00000E+000	7.60000E-002	-7.54272E-004	10	..........a	-327.74
	2583	8.61333	8.19686E-002	4.07431E-005	0.00000E+000	8.30000E-002	-7.24272E-004	10	..........a	-327.74
	2590	8.63667	8.89911E-002	4.00914E-005	0.00000E+000	9.00000E-002	-7.64272E-004	10	..........a	-327.74
	2597	8.66	9.59186E-002	3.93896E-005	0.00000E+000	9.70000E-002	-7.64272E-004	10	..........a	-327.74
	2604	8.68333	1.02951E-001	3.87128E-005	0.00000E+000	1.04000E-001	-7.64272E-004	10	..........a	-327.74
	2611	8.70667	1.09956E-001	3.83870E-005	0.00000E+000	1.11000E-001	-7.64272E-004	10	..........a	-327.74
	2618	8.73	1.16856E-001	3.74345E-005	0.00000E+000	1.18000E-001	-7.39272E-004	10	..........a	-327.74
	2625	8.75333	1.23979E-001	3.64068E-005	0.00000E+000	1.25000E-001	-7.69272E-004	10	..........a	-327.74
	2632	8.77667	1.30894E-001	3.55797E-005	0.00000E+000	1.32000E-001	-7.64272E-004	10	..........a	-327.74
	2639	8.8	1.37911E-001	3.49531E-005	0.00000E+000	1.39000E-001	-7.39272E-004	10	..........a	-327.74
	2646	8.82333	1.45004E-001	3.45771E-005	0.00000E+000	1.46000E-001	-6.89272E-004	10	..........a	-327.74
	2653	8.84667	1.51944E-001	3.36497E-005	0.00000E+000	1.53000E-001	-7.44272E-004	10	..........a	-327.74
	2660	8.87	1.58961E-001	3.28226E-005	0.00000E+000	1.60000E-001	-7.04272E-004	10	..........a	-327.74
	2667	8.89333	1.65964E-001	3.22962E-005	0.00000E+000	1.67000E-001	-7.49272E-004	10	..........a	-327.74
	2674	8.91667	1.72934E-001	3.17448E-005	0.00000E+000	1.74000E-001	-7.49272E-004	10	..........a	-327.74
	2681	8.94	1.79976E-001	3.10931E-005	0.00000E+000	1.81000E-001	-6.99272E-004	10	..........a	-327.74
	2688	8.96333	1.86926E-001	3.07672E-005	0.00000E+000	1.88000E-001	-7.19272E-004	10	..........a	-327.74
	2695	8.98667	1.93899E-001	3.01908E-005	0.00000E+000	1.95000E-001	-7.19272E-004	10	..........a	-327.74
	2702	9.01	2.00961E-001	2.92383E-005	0.00000E+000	2.02000E-001	-7.29272E-004	10	..........a	-327.74
	2709	9.03333	2.07804E-001	2.87370E-005	0.00000E+000	2.09000E-001	-7.89272E-004	10	..........a	-327.74
	2716	9.05667	2.14884E-001	2.83360E-005	0.00000E+000	2.16000E-001	-7.44272E-004	10	..........a	-327.74
	2723	9.08	2.21851E-001	2.78597E-005	0.00000E+000	2.23000E-001	-7.84272E-004	10	..........a	-327.74
	2730	9.10333	2.28894E-001	2.78096E-005	0.00000E+000	2.30000E-001	-7.24272E-004	10	..........a	-327.74
	2737	9.12667	2.35864E-001	2.71328E-005	0.00000E+000	2.37000E-001	-7.99272E-004	10	..........a	-327.74
	2744	9.15	2.42899E-001	2.69574E-005	0.00000E+000	2.44000E-001	-7.24272E-004	10	..........a	-327.74
	2751	9.17333	2.49869E-001	2.67318E-005	0.00000E+000	2.51000E-001	-7.59272E-004	10	..........a	-327.74
	2758	9.19667	2.56939E-001	2.60801E-005	0.00000E+000	2.58000E-001	-7.39272E-004	10	..........a	-327.74
	2765	9.22	2.63874E-001	2.57292E-005	0.00000E+000	2.65000E-001	-7.59272E-004	10	..........a	-327.74
	2772	9.24333	2.70936E-001	2.57041E-005	0.00000E+000	2.72000E-001	-7.09272E-004	10	..........a	-327.74
	2779	9.26667	2.77884E-001	2.47517E-005	0.00000E+000	2.79000E-001	-7.29272E-004	10	..........a	-327.74
	2786	9.29	2.84861E-001	2.45762E-005	0.00000E+000	2.86000E-001	-8.09272E-004	10	..........a	-327.74
	2793	9.31333	2.91874E-001	2.43256E-005	0.00000E+000	2.93000E-001	-7.69272E-004	10	..........a	-327.74
	2800	9.33667	2.98731E-001	2.39747E-005	0.00000E+000	3.00000E-001	-7.19272E-004	10	..........a	-327.74
	2807	9.36	3.05851E-001	2.38744E-005	0.00000E+000	3.07000E-001	-7.44272E-004	10	..........a	-327.74
	2814	9.38333	3.12881E-001	2.37491E-005	0.00000E+000	3.14000E-001	-7.84272E-004	10	..........a	-327.74
	2821	9.40667	3.19871E-001	2.35235E-005	0.00000E+000	3.21000E-001	-6.99272E-004	10	..........a	-327.74
	2828	9.43	3.26896E-001	2.34483E-005	0.00000E+000	3.28000E-001	-7.14272E-004	10	..........a	-327.74
	2835	9.45333	3.33826E-001	2.31726E-005	0.00000E+000	3.35000E-001	-7.59272E-004	10	..........a	-327.74
	2842	9.47667	3.40854E-001	2.30974E-005	0.00000E+000	3.42000E-001	-7.94272E-004	10	..........a	-327.74
	2849	9.5	3.47901E-001	2.29470E-005	0.00000E+000	3.49000E-001	-7.24272E-004	10	..........a	-327.74
	2856	9.5233	3.54846E-001	2.27214E-005	0.00000E+000	3.56000E-001	-7.24272E-004	10	..........a	-327.74
	2863	9.5467	3.61804E-001	2.29470E-005	0.00000E+000	3.63000E-001	-7.64272E-004	10	..........a	-327.74
	2870	9.57	3.68874E-001	2.24457E-005	0.00000E+000	3.70000E-001	-7.14272E-004	10	..........a	-327.74
	2877	9.5933	3.75776E-001	2.24958E-005	0.00000E+000	3.77000E-001	-7.64272E-004	10	..........a	-327.74
	2884	9.6167	3.82856E-001	2.26212E-005	0.00000E+000	3.84000E-001	-7.19272E-004	10	..........a	-327.74
	2891	9.64	3.89834E-001	2.21700E-005	0.00000E+000	3.91000E-001	-7.24272E-004	10	..........a	-327.74
	2898	9.6633	3.96821E-001	2.20447E-005	0.00000E+000	3.98000E-001	-7.59272E-004	10	..........a	-327.74
	2905	9.6867	4.03784E-001	2.18442E-005	0.00000E+000	4.05000E-001	-7.29272E-004	10	..........a	-327.74
	2912	9.71	4.10779E-001	2.14431E-005	0.00000E+000	4.12000E-001	-7.09272E-004	10	..........a	-327.74
	2919	9.7333	4.17806E-001	2.11925E-005	0.00000E+000	4.19000E-001	-7.74272E-004	10	..........a	-327.74
	2926	9.7567	4.24896E-001	2.12175E-005	0.00000E+000	4.26000E-001	-7.24272E-004	10	..........a	-327.74
	2933	9.78	4.31761E-001	2.10421E-005	0.00000E+000	4.33000E-001	-7.24272E-004	10	..........a	-327.74
	2940	9.8033	4.38771E-001	2.08416E-005	0.00000E+000	4.40000E-001	-7.19272E-004	10	..........a	-327.74
	2947	9.8267	4.45846E-001	2.03653E-005	0.00000E+000	4.47000E-001	-7.14272E-004	10	..........a	-327.74
	2954	9.85	4.52764E-001	2.04405E-005	0.00000E+000	4.54000E-001	-7.69272E-004	10	..........a	-327.74
	2961	9.8733	4.59751E-001	2.02901E-005	0.00000E+000	4.61000E-001	-7.09272E-004	10	..........a	-327.74
	2968	9.8967	4.66796E-001	1.97888E-005	0.00000E+000	4.68000E-001	-7.29272E-004	10	..........a	-327.74
	2975	9.92	4.73789E-001	1.98390E-005	0.00000E+000	4.75000E-001	-7.14272E-004	10	..........a	-327.74
	2982	9.9433	4.80841E-001	1.94379E-005	0.00000E+000	4.82000E-001	-7.84272E-004	10	..........a	-327.74
	2989	9.9667	4.87714E-001	1.93126E-005	0.00000E+000	4.89000E-001	-7.34272E-004	10	..........a	-327.74
	2996	9.99	4.94761E-001	1.89868E-005	0.00000E+000	4.96000E-001	-7.84272E-004	10	..........a	-327.74
	3000	10.0033	4.98799E-001	1.91121E-005	0.00000E+000	5.00000E-001	-7.49272E-004	10	..........a	-327.74
CURVE2	TABLE
	Pt	T	Vf	Im	Vu	Sig	Ach	IERange	Over	Temp
	#	s	V vs. Ref.	A	V	V	V	#	bits	deg C
	3001	10.0067	4.98794E-001	1.84855E-005	0.00000E+000	5.00000E-001	-7.14272E-004	10	..........a	-327.74