File: data/02-SI/Figures_S9_S11_RDE/18btmapaq-rde/1mkcl-5mmolar18btmapaq-nitrogen-rde-400mvpers-50mvpers.DTA
EXPLAIN
TAG	LSV
TITLE	LABEL	Linear Sweep Voltammetry	Test &Identifier
DATE	LABEL	1/31/2023	Date
TIME	LABEL	15:26:11	Time
NOTES	NOTES	1	&Notes...

PSTAT	PSTAT	REF3000-21108	Potentiostat
VINIT	POTEN	5.00000E-001	F	&Initial E (V)
VFINAL	POTEN	-1.00000E+000	F	&Final E (V)
SCANRATE	QUANT	4.99999E+001	&Scan Rate (mV/s)
STEPSIZE	QUANT	1.00000E-001	St&ep Size (mV)
IMODE	SELECTOR	0	I/E Range &Mode
IRANGE	QUANT	1.00000E+002	&Max Current (mA)
AREA	QUANT	1.00000E+000	Electrode &Area (cm^2)
ELECTRODETYPE	SELECTOR	0	Electrode Type
STRIPPING	TOGGLE	F	Used for Stripping
POLARITY	TOGGLE	F	Signal Polarity
CONDIT	TWOPARAM	F	1.50000E+001	0.00000E+000	Conditionin&g	Time(s)	E(V)
DELAY	TWOPARAM	F	3.00000E+001	0.00000E+000	Init. De&lay	Time(s)	Stab.(mV/s)
EQDELAY	QUANT	0.00000E+000	Equil. &Time (s)
IRCOMP	SELECTOR	0	IRCom&p
PFCOR	QUANT	5.00000E+001	PF Corr. (ohm)
SAMPLINGMODE	SELECTOR	1	Sampling &Mode
EOC	QUANT	0	Open Circuit (V)
PSTATMODEL	IQUANT	5	Pstat Model
PSTATSECTION	LABEL	REF3000-21108	Pstat Section
PSTATSERIALNO	LABEL	21108	Pstat Serial Number
CTRLMODE	IQUANT	1	Control Mode
ELECTROMETER	IQUANT	0	RE=0 or CS=1
IESTAB	IQUANT	2	I/E Stability
CASPEED	IQUANT	4	Control Amp Speed
CONVENTION	IQUANT	1	Current Convention
ICHRANGE	IQUANT	2	Ich Range
ICHRANGEMODE	TOGGLE	F	Ich Auto Range
ICHOFFSETENABLE	TOGGLE	F	Ich Offset Enable
ICHOFFSET	QUANT	0	Ich Offset (V)
ICHFILTER	IQUANT	2	Ich Filter
VCHRANGE	IQUANT	2	Vch Range
VCHRANGEMODE	TOGGLE	T	Vch Auto Range
VCHOFFSETENABLE	TOGGLE	F	Vch Offset Enable
VCHOFFSET	QUANT	0	Vch Offset (V)
VCHFILTER	IQUANT	2	Vch Filter
ACHRANGE	IQUANT	2	Ach Range
ACHOFFSETENABLE	TOGGLE	F	Ach Offset Enable
ACHOFFSET	QUANT	0	Ach Offset (V)
ACHFILTER	IQUANT	0	Ach Filter
IERANGELOWERLIMIT	IQUANT	2	I/E Range Lower Limit
IERANGEMODE	TOGGLE	T	I/E AutoRange
IERANGE	IQUANT	11	I/E Range
POSFEEDENABLE	TOGGLE	F	Positive Feedback IR Comp
POSFEEDRESISTANCE	QUANT	0	Positive Feedback Resistance (ohm)
ACHSELECT	IQUANT	0	Ach Select
SENSECABLEID	IQUANT	14	Sense Cable ID
PWRCABLEID	IQUANT	7	Power Cable ID
DCCALDATE	LABEL	11/9/2022	DC Calibration Date
ACCALDATE	LABEL	11/9/2022	AC Calibration Date
THERMOSELECT	IQUANT	1	Thermo Select
FRAMEWORKVERSION	LABEL	7.8.2	Framework Version
INSTRUMENTVERSION	LABEL	4.40	Instrument Version
COMPLIANCEVOLTAGE	IQUANT	0	Compliance Voltage
CURVE	TABLE	15001
	Pt	T	Vf	Im	Vu	Sig	Ach	IERange	Over	Cycle	Temp
	#	s	V vs. Ref.	A	V	V	V	#	bits	#	deg C
	0	0.002	4.99221E-001	8.39773E-007	0.00000E+000	5.00000E-001	-1.37927E-003	11	..........a	0	-327.74
	32	0.066	4.95022E-001	9.41412E-006	0.00000E+000	4.96800E-001	-1.64594E-003	8	..........a	0	-327.74
	64	0.13	4.91839E-001	6.74225E-006	0.00000E+000	4.93600E-001	-1.80427E-003	8	..........a	0	-327.74
	96	0.194	4.88585E-001	5.09113E-006	0.00000E+000	4.90400E-001	-1.94594E-003	8	..........a	0	-327.74
	128	0.258	4.85456E-001	4.31870E-006	0.00000E+000	4.87200E-001	-1.73761E-003	8	..........a	0	-327.74
	160	0.322	4.82164E-001	3.75458E-006	0.00000E+000	4.84000E-001	-1.88761E-003	8	..........a	0	-327.74
	192	0.386	4.79035E-001	3.28253E-006	0.00000E+000	4.80800E-001	-1.69594E-003	8	..........a	0	-327.74
	224	0.45	4.75747E-001	3.19170E-006	0.00000E+000	4.77600E-001	-1.80427E-003	8	..........a	0	-327.74
	256	0.514	4.72614E-001	2.72341E-006	0.00000E+000	4.74400E-001	-1.96261E-003	8	..........a	0	-327.74
	288	0.578	4.69360E-001	2.63300E-006	0.00000E+000	4.71200E-001	-1.86261E-003	8	..........a	0	-327.74
	320	0.642	4.66156E-001	2.62758E-006	0.00000E+000	4.68000E-001	-1.98761E-003	8	..........a	0	-327.74
	352	0.706	4.62981E-001	2.37260E-006	0.00000E+000	4.64800E-001	-1.79594E-003	8	..........a	0	-327.74
	384	0.77	4.59822E-001	2.23970E-006	0.00000E+000	4.61600E-001	-1.84594E-003	8	..........a	0	-327.74
	416	0.834	4.56597E-001	2.13221E-006	0.00000E+000	4.58400E-001	-1.82927E-003	8	..........a	0	-327.74
	448	0.898	4.53410E-001	1.95347E-006	0.00000E+000	4.55200E-001	-1.97927E-003	8	..........a	0	-327.74
	480	0.962	4.50235E-001	1.95014E-006	0.00000E+000	4.52000E-001	-1.79594E-003	8	..........a	0	-327.74
	512	1.026	4.47047E-001	1.80182E-006	0.00000E+000	4.48800E-001	-1.91261E-003	8	..........a	0	-327.74
	544	1.09	4.43868E-001	1.64224E-006	0.00000E+000	4.45600E-001	-1.58761E-003	8	..........a	0	-327.74
	576	1.154	4.40652E-001	1.73182E-006	0.00000E+000	4.42400E-001	-1.75427E-003	8	..........a	0	-327.74
	608	1.218	4.37452E-001	1.66058E-006	0.00000E+000	4.39200E-001	-1.73761E-003	8	..........a	0	-327.74
	640	1.282	4.34256E-001	1.69016E-006	0.00000E+000	4.36000E-001	-1.86261E-003	8	..........a	0	-327.74
	672	1.346	4.31081E-001	1.61808E-006	0.00000E+000	4.32800E-001	-1.90427E-003	8	..........a	0	-327.74
	704	1.41	4.27806E-001	1.39060E-006	0.00000E+000	4.29600E-001	-1.69594E-003	8	..........a	0	-327.74
	736	1.474	4.24660E-001	1.58892E-006	0.00000E+000	4.26400E-001	-1.78761E-003	8	..........a	0	-327.74
	768	1.538	4.21472E-001	1.41726E-006	0.00000E+000	4.23200E-001	-1.68761E-003	8	..........a	0	-327.74
	800	1.602	4.18218E-001	1.35143E-006	0.00000E+000	4.20000E-001	-1.89594E-003	8	..........a	0	-327.74
	832	1.666	4.15068E-001	1.42560E-006	0.00000E+000	4.16800E-001	-1.72094E-003	8	..........a	0	-327.74
	864	1.73	4.11781E-001	1.17728E-006	0.00000E+000	4.13600E-001	-2.18761E-003	8	..........a	0	-327.74
	896	1.794	4.08685E-001	1.18561E-006	0.00000E+000	4.10400E-001	-1.63761E-003	8	..........a	0	-327.74
	928	1.858	4.05443E-001	1.17103E-006	0.00000E+000	4.07200E-001	-1.73761E-003	8	..........a	0	-327.74
	960	1.922	4.02260E-001	1.18561E-006	0.00000E+000	4.04000E-001	-1.45427E-003	8	..........a	0	-327.74
	992	1.986	3.99039E-001	1.09437E-006	0.00000E+000	4.00800E-001	-1.76261E-003	8	..........a	0	-327.74
	1024	2.05	3.95822E-001	1.04188E-006	0.00000E+000	3.97600E-001	-1.83761E-003	8	..........a	0	-327.74
	1056	2.114	3.92677E-001	1.04188E-006	0.00000E+000	3.94400E-001	-1.52927E-003	8	..........a	0	-327.74
	1088	2.178	3.89414E-001	8.98138E-007	0.00000E+000	3.91200E-001	-2.02927E-003	8	..........a	0	-327.74
	1120	2.242	3.86277E-001	9.31468E-007	0.00000E+000	3.88000E-001	-1.66261E-003	8	..........a	0	-327.74
	1152	2.306	3.83081E-001	8.85639E-007	0.00000E+000	3.84800E-001	-1.89594E-003	8	..........a	0	-327.74
	1184	2.37	3.79827E-001	8.80639E-007	0.00000E+000	3.81600E-001	-1.80427E-003	8	..........a	0	-327.74
	1216	2.434	3.76606E-001	7.11486E-007	0.00000E+000	3.78400E-001	-1.85427E-003	8	..........a	0	-327.74
	1248	2.498	3.73493E-001	6.77322E-007	0.00000E+000	3.75200E-001	-1.69594E-003	8	..........a	0	-327.74
	1280	2.562	3.70285E-001	5.66498E-007	0.00000E+000	3.72000E-001	-1.64594E-003	8	..........a	0	-327.74
	1312	2.626	3.67072E-001	4.92337E-007	0.00000E+000	3.68800E-001	-1.87094E-003	8	..........a	0	-327.74
	1344	2.69	3.63789E-001	6.72739E-007	0.00000E+000	3.65600E-001	-2.00427E-003	8	..........a	0	-327.74
	1376	2.754	3.60635E-001	5.99828E-007	0.00000E+000	3.62400E-001	-1.87094E-003	8	..........a	0	-327.74
	1408	2.818	3.57431E-001	5.89829E-007	0.00000E+000	3.59200E-001	-1.75427E-003	8	..........a	0	-327.74
	1440	2.882	3.54268E-001	4.25676E-007	0.00000E+000	3.56000E-001	-1.73761E-003	8	..........a	0	-327.74
	1472	2.946	3.51089E-001	5.57748E-007	0.00000E+000	3.52800E-001	-1.78761E-003	8	..........a	0	-327.74
	1504	3.01	3.47839E-001	6.15244E-007	0.00000E+000	3.49600E-001	-1.83761E-003	8	..........a	0	-327.74
	1536	3.074	3.44706E-001	3.59014E-007	0.00000E+000	3.46400E-001	-1.77927E-003	8	..........a	0	-327.74
	1568	3.138	3.41468E-001	4.33592E-007	0.00000E+000	3.43200E-001	-1.95427E-003	8	..........a	0	-327.74
	1600	3.202	3.38268E-001	1.99444E-007	0.00000E+000	3.40000E-001	-1.67094E-003	8	..........a	0	-327.74
	1632	3.266	3.35056E-001	5.34000E-007	0.00000E+000	3.36800E-001	-1.69594E-003	8	..........a	0	-327.74
	1664	3.33	3.31864E-001	3.69430E-007	0.00000E+000	3.33600E-001	-1.90427E-003	8	..........a	0	-327.74
	1696	3.394	3.28714E-001	3.45266E-007	0.00000E+000	3.30400E-001	-1.87927E-003	8	..........a	0	-327.74
	1728	3.458	3.25477E-001	2.84020E-007	0.00000E+000	3.27200E-001	-1.88761E-003	8	..........a	0	-327.74
	1760	3.522	3.22302E-001	2.72355E-007	0.00000E+000	3.24000E-001	-1.72927E-003	8	..........a	0	-327.74
	1792	3.586	3.19102E-001	2.68605E-007	0.00000E+000	3.20800E-001	-1.88761E-003	8	..........a	0	-327.74
	1824	3.65	3.15893E-001	1.39449E-007	0.00000E+000	3.17600E-001	-1.89594E-003	8	..........a	0	-327.74
	1856	3.714	3.12664E-001	1.17784E-007	0.00000E+000	3.14400E-001	-1.93761E-003	8	..........a	0	-327.74
	1888	3.778	3.09468E-001	1.11534E-007	0.00000E+000	3.11200E-001	-1.78761E-003	8	..........a	0	-327.74
	1920	3.842	3.06347E-001	3.98734E-008	0.00000E+000	3.08000E-001	-1.80427E-003	8	..........a	0	-327.74
	1952	3.906	3.03072E-001	4.09844E-007	0.00000E+000	3.04800E-001	-1.68761E-003	8	..........a	0	-327.74
	1984	3.97	2.99910E-001	2.25692E-007	0.00000E+000	3.01600E-001	-1.80427E-003	8	..........a	0	-327.74
	2016	4.034	2.96622E-001	2.76521E-007	0.00000E+000	2.98400E-001	-1.87094E-003	8	..........a	0	-327.74
	2048	4.098	2.93422E-001	1.44588E-008	0.00000E+000	2.95200E-001	-2.14594E-003	8	..........a	0	-327.74
	2080	4.162	2.90239E-001	1.07368E-007	0.00000E+000	2.92000E-001	-2.24594E-003	8	..........a	0	-327.74
	2112	4.226	2.87093E-001	6.86211E-008	0.00000E+000	2.88800E-001	-1.92094E-003	8	..........a	0	-327.74
	2144	4.29	2.83831E-001	2.09026E-007	0.00000E+000	2.85600E-001	-1.96261E-003	8	..........a	0	-327.74
	2176	4.354	2.80714E-001	2.22775E-007	0.00000E+000	2.82400E-001	-1.72927E-003	8	..........a	0	-327.74
	2208	4.418	2.77418E-001	2.42357E-007	0.00000E+000	2.79200E-001	-1.99594E-003	8	..........a	0	-327.74
	2240	4.482	2.74281E-001	1.22783E-007	0.00000E+000	2.76000E-001	-1.87927E-003	8	..........a	0	-327.74
	2272	4.546	2.71027E-001	1.29033E-007	0.00000E+000	2.72800E-001	-1.72094E-003	8	..........a	0	-327.74
	2304	4.61	2.67922E-001	1.27366E-007	0.00000E+000	2.69600E-001	-1.59594E-003	8	..........a	0	-327.74
	2336	4.674	2.64672E-001	3.61237E-008	0.00000E+000	2.66400E-001	-1.82094E-003	8	..........a	0	-327.74
	2368	4.738	2.61460E-001	1.59030E-007	0.00000E+000	2.63200E-001	-1.98761E-003	8	..........a	0	-327.74
	2400	4.802	2.58272E-001	9.52856E-008	0.00000E+000	2.60000E-001	-1.82927E-003	8	..........a	0	-327.74
	2432	4.866	2.55110E-001	1.63613E-007	0.00000E+000	2.56800E-001	-1.96261E-003	8	..........a	0	-327.74
	2464	4.93	2.51902E-001	8.90361E-008	0.00000E+000	2.53600E-001	-1.84594E-003	8	..........a	0	-327.74
	2496	4.994	2.48747E-001	1.04452E-007	0.00000E+000	2.50400E-001	-1.74594E-003	8	..........a	0	-327.74
	2528	5.058	2.45560E-001	1.22367E-007	0.00000E+000	2.47200E-001	-1.42927E-003	8	..........a	0	-327.74
	2560	5.122	2.42693E-001	9.65355E-008	0.00000E+000	2.44000E-001	-1.91261E-003	8	..........a	0	-327.74
	2592	5.186	2.39497E-001	1.18617E-007	0.00000E+000	2.40800E-001	-1.82927E-003	8	..........a	0	-327.74
	2624	5.25	2.36280E-001	-1.47056E-008	0.00000E+000	2.37600E-001	-1.95427E-003	8	..........a	0	-327.74
	2656	5.314	2.33113E-001	1.73196E-007	0.00000E+000	2.34400E-001	-2.06261E-003	8	..........a	0	-327.74
	2688	5.378	2.29902E-001	1.35699E-007	0.00000E+000	2.31200E-001	-1.74594E-003	8	..........a	0	-327.74
	2720	5.442	2.26708E-001	6.77878E-008	0.00000E+000	2.28000E-001	-1.88761E-003	8	..........a	0	-327.74
	2752	5.506	2.23530E-001	7.48706E-008	0.00000E+000	2.24800E-001	-1.79594E-003	8	..........a	0	-327.74
	2784	5.57	2.20301E-001	1.69586E-008	0.00000E+000	2.21600E-001	-2.12094E-003	8	..........a	0	-327.74
	2816	5.634	2.17129E-001	1.03618E-007	0.00000E+000	2.18400E-001	-1.70427E-003	8	..........a	0	-327.74
	2848	5.698	2.13921E-001	7.15375E-008	0.00000E+000	2.15200E-001	-1.68761E-003	8	..........a	0	-327.74
	2880	5.762	2.10729E-001	1.57087E-008	0.00000E+000	2.12000E-001	-1.68761E-003	8	..........a	0	-327.74
	2912	5.826	2.07503E-001	-5.34525E-008	0.00000E+000	2.08800E-001	-1.97927E-003	8	..........a	0	-327.74
	2944	5.89	2.04331E-001	-2.17883E-008	0.00000E+000	2.05600E-001	-1.64594E-003	8	..........a	0	-327.74
	2976	5.954	2.01123E-001	9.94519E-008	0.00000E+000	2.02400E-001	-1.68761E-003	8	..........a	0	-327.74
	3008	6.018	1.97925E-001	7.73704E-008	0.00000E+000	1.99200E-001	-1.77927E-003	8	..........a	0	-327.74
	3040	6.082	1.94712E-001	1.68196E-007	0.00000E+000	1.96000E-001	-1.83761E-003	8	..........a	0	-327.74
	3072	6.146	1.91522E-001	1.98750E-008	0.00000E+000	1.92800E-001	-1.64594E-003	8	..........a	0	-327.74
	3104	6.21	1.88324E-001	7.19541E-008	0.00000E+000	1.89600E-001	-1.85427E-003	8	..........a	0	-327.74
	3136	6.274	1.85112E-001	-8.17835E-008	0.00000E+000	1.86400E-001	-1.70427E-003	8	..........a	0	-327.74
	3168	6.338	1.81918E-001	-4.63697E-008	0.00000E+000	1.83200E-001	-1.92927E-003	8	..........a	0	-327.74
	3200	6.402	1.78732E-001	-2.38715E-008	0.00000E+000	1.80000E-001	-1.66261E-003	8	..........a	0	-327.74
	3232	6.466	1.75523E-001	1.25700E-007	0.00000E+000	1.76800E-001	-1.70427E-003	8	..........a	0	-327.74
	3264	6.53	1.72339E-001	-7.34508E-008	0.00000E+000	1.73600E-001	-1.83761E-003	8	..........a	0	-327.74
	3296	6.594	1.69131E-001	-5.95627E-009	0.00000E+000	1.70400E-001	-1.86261E-003	8	..........a	0	-327.74
	3328	6.658	1.65948E-001	1.07091E-008	0.00000E+000	1.67200E-001	-1.62094E-003	8	..........a	0	-327.74
	3360	6.722	1.62738E-001	-5.76188E-008	0.00000E+000	1.64000E-001	-1.82094E-003	8	..........a	0	-327.74
	3392	6.786	1.59548E-001	1.12649E-009	0.00000E+000	1.60800E-001	-1.67094E-003	8	..........a	0	-327.74
	3424	6.85	1.56335E-001	-1.13725E-008	0.00000E+000	1.57600E-001	-1.93761E-003	8	..........a	0	-327.74
	3456	6.914	1.53145E-001	8.27866E-008	0.00000E+000	1.54400E-001	-2.08761E-003	8	..........a	0	-327.74
	3488	6.978	1.49948E-001	1.36255E-008	0.00000E+000	1.51200E-001	-1.57927E-003	8	..........a	0	-327.74
	3520	7.042	1.46748E-001	-3.80370E-008	0.00000E+000	1.48000E-001	-1.70427E-003	8	..........a	0	-327.74
	3552	7.106	1.43549E-001	-5.67855E-008	0.00000E+000	1.44800E-001	-1.83761E-003	8	..........a	0	-327.74
	3584	7.17	1.40352E-001	-1.25947E-007	0.00000E+000	1.41600E-001	-1.95427E-003	8	..........a	0	-327.74
	3616	7.234	1.37138E-001	-2.34549E-008	0.00000E+000	1.38400E-001	-2.12094E-003	8	..........a	0	-327.74
	3648	7.298	1.33951E-001	-7.17843E-008	0.00000E+000	1.35200E-001	-2.07094E-003	8	..........a	0	-327.74
	3680	7.362	1.30761E-001	-7.13677E-008	0.00000E+000	1.32000E-001	-1.72927E-003	8	..........a	0	-327.74
	3712	7.426	1.27559E-001	3.98734E-008	0.00000E+000	1.28800E-001	-1.84594E-003	8	..........a	0	-327.74
	3744	7.49	1.24348E-001	2.93227E-010	0.00000E+000	1.25600E-001	-1.57927E-003	8	..........a	0	-327.74
	3776	7.554	1.21152E-001	7.09861E-010	0.00000E+000	1.22400E-001	-1.87927E-003	8	..........a	0	-327.74
	3808	7.618	1.17948E-001	-7.67839E-008	0.00000E+000	1.19200E-001	-1.87927E-003	8	..........a	0	-327.74
	3840	7.682	1.14765E-001	-1.20114E-007	0.00000E+000	1.16000E-001	-1.88761E-003	8	..........a	0	-327.74
	3872	7.746	1.11556E-001	-1.15947E-007	0.00000E+000	1.12800E-001	-1.62927E-003	8	..........a	0	-327.74
	3904	7.81	1.08363E-001	8.48698E-008	0.00000E+000	1.09600E-001	-1.63761E-003	8	..........a	0	-327.74
	3936	7.874	1.05177E-001	-5.01194E-008	0.00000E+000	1.06400E-001	-1.84594E-003	8	..........a	0	-327.74
	3968	7.938	1.01963E-001	-6.63681E-008	0.00000E+000	1.03200E-001	-1.79594E-003	8	..........a	0	-327.74
	4000	8.002	9.87664E-002	2.52912E-008	0.00000E+000	1.00000E-001	-1.97927E-003	8	..........a	0	-327.74
	4032	8.066	9.55631E-002	-3.03984E-009	0.00000E+000	9.68000E-002	-1.73761E-003	8	..........a	0	-327.74
	4064	8.13	9.23772E-002	-1.00115E-007	0.00000E+000	9.36000E-002	-1.79594E-003	8	..........a	0	-327.74
	4096	8.194	8.91710E-002	-6.30350E-008	0.00000E+000	9.04000E-002	-1.81261E-003	8	..........a	0	-327.74
	4128	8.258	8.59706E-002	1.54313E-009	0.00000E+000	8.72000E-002	-1.77927E-003	8	..........a	0	-327.74
	4160	8.322	8.27756E-002	-4.97028E-008	0.00000E+000	8.40000E-002	-1.82927E-003	8	..........a	0	-327.74
	4192	8.386	7.95764E-002	-1.14698E-007	0.00000E+000	8.08000E-002	-2.00427E-003	8	..........a	0	-327.74
	4224	8.45	7.63943E-002	-9.28934E-009	0.00000E+000	7.76000E-002	-1.87927E-003	8	..........a	0	-327.74
	4256	8.514	7.32006E-002	-1.30390E-008	0.00000E+000	7.44000E-002	-1.37927E-003	8	..........a	0	-327.74
	4288	8.578	6.99989E-002	5.70946E-009	0.00000E+000	7.12000E-002	-1.90427E-003	8	..........a	0	-327.74
	4320	8.642	6.67843E-002	-1.58444E-007	0.00000E+000	6.80000E-002	-1.87927E-003	8	..........a	0	-327.74
	4352	8.706	6.35822E-002	-1.32613E-007	0.00000E+000	6.48000E-002	-1.77927E-003	8	..........a	0	-327.74
	4384	8.77	6.03835E-002	8.62589E-009	0.00000E+000	6.16000E-002	-1.78761E-003	8	..........a	0	-327.74
	4416	8.834	5.71981E-002	-4.28974E-009	0.00000E+000	5.84000E-002	-1.83761E-003	8	..........a	0	-327.74
	4448	8.898	5.39951E-002	-1.40529E-007	0.00000E+000	5.52000E-002	-1.71261E-003	8	..........a	0	-327.74
	4480	8.962	5.08089E-002	1.47365E-007	0.00000E+000	5.20000E-002	-1.77927E-003	8	..........a	0	-327.74
	4512	9.026	4.75981E-002	-6.67847E-008	0.00000E+000	4.88000E-002	-1.86261E-003	8	..........a	0	-327.74
	4544	9.09	4.44018E-002	-1.29280E-007	0.00000E+000	4.56000E-002	-1.77927E-003	8	..........a	0	-327.74
	4576	9.154	4.12085E-002	-4.01202E-008	0.00000E+000	4.24000E-002	-1.62094E-003	8	..........a	0	-327.74
	4608	9.218	3.80018E-002	-9.70597E-009	0.00000E+000	3.92000E-002	-1.54594E-003	8	..........a	0	-327.74
	4640	9.282	3.48006E-002	-7.97003E-008	0.00000E+000	3.60000E-002	-1.99594E-003	8	..........a	0	-327.74
	4672	9.346	3.15993E-002	3.77902E-008	0.00000E+000	3.28000E-002	-1.85427E-003	8	..........a	0	-327.74
	4704	9.41	2.84089E-002	-1.03865E-007	0.00000E+000	2.96000E-002	-1.85427E-003	8	..........a	0	-327.74
	4736	9.474	2.52081E-002	-2.63852E-007	0.00000E+000	2.64000E-002	-1.82094E-003	8	..........a	0	-327.74
	4768	9.538	2.20523E-002	-6.22018E-008	0.00000E+000	2.32000E-002	-1.74594E-003	8	..........a	0	-327.74
	4800	9.602	1.88573E-002	-1.05532E-007	0.00000E+000	2.00000E-002	-1.65427E-003	8	..........a	0	-327.74
	4832	9.666	1.56467E-002	-2.80378E-008	0.00000E+000	1.68000E-002	-1.67094E-003	8	..........a	0	-327.74
	4864	9.73	1.24600E-002	1.90417E-008	0.00000E+000	1.36000E-002	-1.66261E-003	8	..........a	0	-327.74
	4896	9.794	9.25472E-003	-7.01178E-008	0.00000E+000	1.04000E-002	-2.00427E-003	8	..........a	0	-327.74
	4928	9.858	6.06093E-003	1.98750E-008	0.00000E+000	7.20000E-003	-2.00427E-003	8	..........a	0	-327.74
	4960	9.922	2.86593E-003	-2.55380E-008	0.00000E+000	4.00001E-003	-1.65427E-003	8	..........a	0	-327.74
	4992	9.986	-3.34651E-004	7.23708E-008	0.00000E+000	7.99984E-004	-1.67094E-003	8	..........a	0	-327.74
	5024	10.05	-3.53182E-003	6.12609E-009	0.00000E+000	-2.40001E-003	-1.74594E-003	8	..........a	0	-327.74
	5056	10.114	-6.73190E-003	-8.01170E-008	0.00000E+000	-5.60001E-003	-1.66261E-003	8	..........a	0	-327.74
	5088	10.178	-9.93261E-003	-2.17883E-008	0.00000E+000	-8.80000E-003	-1.68761E-003	8	..........a	0	-327.74
	5120	10.242	-1.31282E-002	-1.15947E-007	0.00000E+000	-1.20000E-002	-1.72927E-003	8	..........a	0	-327.74
	5152	10.306	-1.63208E-002	-1.15114E-007	0.00000E+000	-1.52000E-002	-1.60427E-003	8	..........a	0	-327.74
	5184	10.37	-1.95223E-002	-1.85942E-007	0.00000E+000	-1.84000E-002	-1.75427E-003	8	..........a	0	-327.74
	5216	10.434	-2.27186E-002	-1.36779E-007	0.00000E+000	-2.16000E-002	-1.71261E-003	8	..........a	0	-327.74
	5248	10.498	-2.59214E-002	-2.49687E-007	0.00000E+000	-2.48000E-002	-1.75427E-003	8	..........a	0	-327.74
	5280	10.562	-2.91528E-002	-1.12614E-007	0.00000E+000	-2.80000E-002	-1.82094E-003	8	..........a	0	-327.74
	5312	10.626	-3.23536E-002	-5.88687E-008	0.00000E+000	-3.12000E-002	-1.74594E-003	8	..........a	0	-327.74
	5344	10.69	-3.55490E-002	-1.63721E-008	0.00000E+000	-3.44000E-002	-1.80427E-003	8	..........a	0	-327.74
	5376	10.754	-3.87478E-002	-7.34508E-008	0.00000E+000	-3.76000E-002	-1.90427E-003	8	..........a	0	-327.74
	5408	10.818	-4.19553E-002	-2.10107E-007	0.00000E+000	-4.08000E-002	-1.68761E-003	8	..........a	0	-327.74
	5440	10.882	-4.51728E-002	-2.36771E-007	0.00000E+000	-4.40000E-002	-1.63761E-003	8	..........a	0	-327.74
	5472	10.946	-4.83611E-002	-2.16356E-007	0.00000E+000	-4.72000E-002	-1.97927E-003	8	..........a	0	-327.74
	5504	11.01	-5.15515E-002	-1.20947E-007	0.00000E+000	-5.04000E-002	-1.46261E-003	8	..........a	0	-327.74
	5536	11.074	-5.47507E-002	-1.38029E-007	0.00000E+000	-5.36000E-002	-1.93761E-003	8	..........a	0	-327.74
	5568	11.138	-5.79544E-002	-1.92191E-007	0.00000E+000	-5.68000E-002	-2.10427E-003	8	..........a	0	-327.74
	5600	11.202	-6.11469E-002	-2.10940E-007	0.00000E+000	-6.00000E-002	-1.65427E-003	8	..........a	0	-327.74
	5632	11.266	-6.43528E-002	-2.40521E-007	0.00000E+000	-6.32000E-002	-1.52927E-003	8	..........a	0	-327.74
	5664	11.33	-6.75328E-002	-8.17835E-008	0.00000E+000	-6.64000E-002	-1.65427E-003	8	..........a	0	-327.74
	5696	11.394	-7.07511E-002	-5.67855E-008	0.00000E+000	-6.96000E-002	-1.68761E-003	8	..........a	0	-327.74
	5728	11.458	-7.39532E-002	-2.53436E-007	0.00000E+000	-7.28000E-002	-2.09594E-003	8	..........a	0	-327.74
	5760	11.522	-7.71361E-002	-1.57194E-007	0.00000E+000	-7.60000E-002	-1.94594E-003	8	..........a	0	-327.74
	5792	11.586	-8.03357E-002	-1.70943E-007	0.00000E+000	-7.92000E-002	-1.84594E-003	8	..........a	0	-327.74
	5824	11.65	-8.35482E-002	-1.51361E-007	0.00000E+000	-8.24000E-002	-1.92927E-003	8	..........a	0	-327.74
	5856	11.714	-8.67286E-002	-1.59694E-007	0.00000E+000	-8.56000E-002	-1.84594E-003	8	..........a	0	-327.74
	5888	11.778	-8.99311E-002	-1.73859E-007	0.00000E+000	-8.88000E-002	-1.72094E-003	8	..........a	0	-327.74
	5920	11.842	-9.31299E-002	-3.48429E-007	0.00000E+000	-9.20000E-002	-1.82094E-003	8	..........a	0	-327.74
	5952	11.906	-9.63274E-002	-1.65110E-007	0.00000E+000	-9.52000E-002	-1.55427E-003	8	..........a	0	-327.74
	5984	11.97	-9.95265E-002	-2.13023E-007	0.00000E+000	-9.84000E-002	-1.73761E-003	8	..........a	0	-327.74
	6016	12.034	-1.02732E-001	-7.13677E-008	0.00000E+000	-1.01600E-001	-1.78761E-003	8	..........a	0	-327.74
	6048	12.098	-1.05927E-001	-2.05107E-007	0.00000E+000	-1.04800E-001	-1.87927E-003	8	..........a	0	-327.74
	6080	12.162	-1.09129E-001	-2.20522E-007	0.00000E+000	-1.08000E-001	-2.04594E-003	8	..........a	0	-327.74
	6112	12.226	-1.12322E-001	-2.27605E-007	0.00000E+000	-1.11200E-001	-1.62094E-003	8	..........a	0	-327.74
	6144	12.29	-1.15517E-001	-2.01774E-007	0.00000E+000	-1.14400E-001	-1.68761E-003	8	..........a	0	-327.74
	6176	12.354	-1.18723E-001	-1.67193E-007	0.00000E+000	-1.17600E-001	-1.67927E-003	8	..........a	0	-327.74
	6208	12.418	-1.21909E-001	-1.66360E-007	0.00000E+000	-1.20800E-001	-1.91261E-003	8	..........a	0	-327.74
	6240	12.482	-1.25133E-001	-2.71768E-007	0.00000E+000	-1.24000E-001	-1.95427E-003	8	..........a	0	-327.74
	6272	12.546	-1.28313E-001	-2.23855E-007	0.00000E+000	-1.27200E-001	-1.72927E-003	8	..........a	0	-327.74
	6304	12.61	-1.31516E-001	-3.30930E-007	0.00000E+000	-1.30400E-001	-1.75427E-003	8	..........a	0	-327.74
	6336	12.674	-1.34711E-001	-2.65102E-007	0.00000E+000	-1.33600E-001	-1.66261E-003	8	..........a	0	-327.74
	6368	12.738	-1.37890E-001	-2.54686E-007	0.00000E+000	-1.36800E-001	-1.65427E-003	8	..........a	0	-327.74
	6400	12.802	-1.41113E-001	-3.24681E-007	0.00000E+000	-1.40000E-001	-1.83761E-003	8	..........a	0	-327.74
	6432	12.866	-1.44311E-001	-2.95933E-007	0.00000E+000	-1.43200E-001	-1.84594E-003	8	..........a	0	-327.74
	6464	12.93	-1.47503E-001	-3.94675E-007	0.00000E+000	-1.46400E-001	-1.64594E-003	8	..........a	0	-327.74
	6496	12.994	-1.50711E-001	-4.26339E-007	0.00000E+000	-1.49600E-001	-1.87927E-003	8	..........a	0	-327.74
	6528	13.058	-1.53900E-001	-2.23439E-007	0.00000E+000	-1.52800E-001	-1.47094E-003	8	..........a	0	-327.74
	6560	13.122	-1.57106E-001	-4.09674E-007	0.00000E+000	-1.56000E-001	-1.93761E-003	8	..........a	0	-327.74
	6592	13.186	-1.60287E-001	-1.69277E-007	0.00000E+000	-1.59200E-001	-1.71261E-003	8	..........a	0	-327.74
	6624	13.25	-1.63499E-001	-3.65927E-007	0.00000E+000	-1.62400E-001	-2.08761E-003	8	..........a	0	-327.74
	6656	13.314	-1.66703E-001	-3.05516E-007	0.00000E+000	-1.65600E-001	-1.73761E-003	8	..........a	0	-327.74
	6688	13.378	-1.69915E-001	-3.99675E-007	0.00000E+000	-1.68800E-001	-1.86261E-003	8	..........a	0	-327.74
	6720	13.442	-1.73088E-001	-4.05924E-007	0.00000E+000	-1.72000E-001	-1.57094E-003	8	..........a	0	-327.74
	6752	13.506	-1.76297E-001	-3.61344E-007	0.00000E+000	-1.75200E-001	-2.09594E-003	8	..........a	0	-327.74
	6784	13.57	-1.79503E-001	-4.75502E-007	0.00000E+000	-1.78400E-001	-2.00427E-003	8	..........a	0	-327.74
	6816	13.634	-1.82677E-001	-3.85093E-007	0.00000E+000	-1.81600E-001	-1.47927E-003	8	..........a	0	-327.74
	6848	13.698	-1.85887E-001	-5.14665E-007	0.00000E+000	-1.84800E-001	-1.64594E-003	8	..........a	0	-327.74
	6880	13.762	-1.89098E-001	-4.25089E-007	0.00000E+000	-1.88000E-001	-1.77094E-003	8	..........a	0	-327.74
	6912	13.826	-1.92299E-001	-6.00908E-007	0.00000E+000	-1.91200E-001	-1.57927E-003	8	..........a	0	-327.74
	6944	13.89	-1.95493E-001	-5.73411E-007	0.00000E+000	-1.94400E-001	-1.80427E-003	8	..........a	0	-327.74
	6976	13.954	-1.98686E-001	-3.23431E-007	0.00000E+000	-1.97600E-001	-1.58761E-003	8	..........a	0	-327.74
	7008	14.018	-2.01892E-001	-6.91735E-007	0.00000E+000	-2.00800E-001	-1.80427E-003	8	..........a	0	-327.74
	7040	14.082	-2.05077E-001	-5.22165E-007	0.00000E+000	-2.04000E-001	-1.69594E-003	8	..........a	0	-327.74
	7072	14.146	-2.08264E-001	-5.92576E-007	0.00000E+000	-2.07200E-001	-1.48761E-003	8	..........a	0	-327.74
	7104	14.21	-2.11471E-001	-5.60495E-007	0.00000E+000	-2.10400E-001	-1.65427E-003	8	..........a	0	-327.74
	7136	14.274	-2.14677E-001	-6.91318E-007	0.00000E+000	-2.13600E-001	-1.79594E-003	8	..........a	0	-327.74
	7168	14.338	-2.17872E-001	-7.16316E-007	0.00000E+000	-2.16800E-001	-1.60427E-003	8	..........a	0	-327.74
	7200	14.402	-2.21076E-001	-6.13407E-007	0.00000E+000	-2.20000E-001	-1.61261E-003	8	..........a	0	-327.74
	7232	14.466	-2.24269E-001	-6.63403E-007	0.00000E+000	-2.23200E-001	-1.73761E-003	8	..........a	0	-327.74
	7264	14.53	-2.27468E-001	-6.99651E-007	0.00000E+000	-2.26400E-001	-1.94594E-003	8	..........a	0	-327.74
	7296	14.594	-2.30674E-001	-9.07550E-007	0.00000E+000	-2.29600E-001	-1.94594E-003	8	..........a	0	-327.74
	7328	14.658	-2.33867E-001	-8.17974E-007	0.00000E+000	-2.32800E-001	-1.72927E-003	8	..........a	0	-327.74
	7360	14.722	-2.37062E-001	-1.00629E-006	0.00000E+000	-2.36000E-001	-1.61261E-003	8	..........a	0	-327.74
	7392	14.786	-2.40261E-001	-7.67562E-007	0.00000E+000	-2.39200E-001	-1.74594E-003	8	..........a	0	-327.74
	7424	14.85	-2.43450E-001	-1.00671E-006	0.00000E+000	-2.42400E-001	-1.57927E-003	8	..........a	0	-327.74
	7456	14.914	-2.46662E-001	-1.10962E-006	0.00000E+000	-2.45600E-001	-1.91261E-003	8	..........a	0	-327.74
	7488	14.978	-2.49864E-001	-1.07587E-006	0.00000E+000	-2.48800E-001	-1.73761E-003	8	..........a	0	-327.74
	7520	15.042	-2.53052E-001	-1.17461E-006	0.00000E+000	-2.52000E-001	-1.67927E-003	8	..........a	0	-327.74
	7552	15.106	-2.56260E-001	-1.16503E-006	0.00000E+000	-2.55200E-001	-1.46261E-003	8	..........a	0	-327.74
	7584	15.17	-2.59469E-001	-1.35210E-006	0.00000E+000	-2.58400E-001	-1.50427E-003	8	..........a	0	-327.74
	7616	15.234	-2.62664E-001	-1.27377E-006	0.00000E+000	-2.61600E-001	-1.74594E-003	8	..........a	0	-327.74
	7648	15.298	-2.65871E-001	-1.36793E-006	0.00000E+000	-2.64800E-001	-2.00427E-003	8	..........a	0	-327.74
	7680	15.362	-2.69457E-001	-1.42834E-006	0.00000E+000	-2.68000E-001	-1.67094E-003	8	..........a	0	-327.74
	7712	15.426	-2.72653E-001	-1.53292E-006	0.00000E+000	-2.71200E-001	-1.78761E-003	8	..........a	0	-327.74
	7744	15.49	-2.75803E-001	-1.56500E-006	0.00000E+000	-2.74400E-001	-1.62094E-003	8	..........a	0	-327.74
	7776	15.554	-2.79015E-001	-1.64249E-006	0.00000E+000	-2.77600E-001	-1.70427E-003	8	..........a	0	-327.74
	7808	15.618	-2.82215E-001	-1.85789E-006	0.00000E+000	-2.80800E-001	-1.57927E-003	8	..........a	0	-327.74
	7840	15.682	-2.85473E-001	-1.85206E-006	0.00000E+000	-2.84000E-001	-1.63761E-003	8	..........a	0	-327.74
	7872	15.746	-2.88661E-001	-1.87539E-006	0.00000E+000	-2.87200E-001	-1.75427E-003	8	..........a	0	-327.74
	7904	15.81	-2.91848E-001	-1.86872E-006	0.00000E+000	-2.90400E-001	-1.71261E-003	8	..........a	0	-327.74
	7936	15.874	-2.95057E-001	-2.08162E-006	0.00000E+000	-2.93600E-001	-1.84594E-003	8	..........a	0	-327.74
	7968	15.938	-2.98315E-001	-2.02746E-006	0.00000E+000	-2.96800E-001	-1.92094E-003	8	..........a	0	-327.74
	8000	16.002	-3.01428E-001	-1.97621E-006	0.00000E+000	-3.00000E-001	-1.87927E-003	8	..........a	0	-327.74
	8032	16.066	-3.04665E-001	-2.03329E-006	0.00000E+000	-3.03200E-001	-1.87927E-003	8	..........a	0	-327.74
	8064	16.13	-3.07848E-001	-2.28744E-006	0.00000E+000	-3.06400E-001	-1.77094E-003	8	..........a	0	-327.74
	8096	16.194	-3.10994E-001	-2.29452E-006	0.00000E+000	-3.09600E-001	-1.68761E-003	8	..........a	0	-327.74
	8128	16.258	-3.14298E-001	-2.38118E-006	0.00000E+000	-3.12800E-001	-1.88761E-003	8	..........a	0	-327.74
	8160	16.322	-3.17507E-001	-2.54242E-006	0.00000E+000	-3.16000E-001	-2.04594E-003	8	..........a	0	-327.74
	8192	16.386	-3.20623E-001	-2.47118E-006	0.00000E+000	-3.19200E-001	-1.79594E-003	8	..........a	0	-327.74
	8224	16.45	-3.23840E-001	-2.68199E-006	0.00000E+000	-3.22400E-001	-1.80427E-003	8	..........a	0	-327.74
	8256	16.514	-3.27057E-001	-2.75074E-006	0.00000E+000	-3.25600E-001	-1.80427E-003	8	..........a	0	-327.74
	8288	16.578	-3.30144E-001	-2.73990E-006	0.00000E+000	-3.28800E-001	-1.38761E-003	8	..........a	0	-327.74
	8320	16.642	-3.33419E-001	-2.85781E-006	0.00000E+000	-3.32000E-001	-1.98761E-003	8	..........a	0	-327.74
	8352	16.706	-3.36636E-001	-2.87864E-006	0.00000E+000	-3.35200E-001	-1.83761E-003	8	..........a	0	-327.74
	8384	16.77	-3.39769E-001	-3.12029E-006	0.00000E+000	-3.38400E-001	-1.72927E-003	8	..........a	0	-327.74
	8416	16.834	-3.43011E-001	-3.06321E-006	0.00000E+000	-3.41600E-001	-1.92094E-003	8	..........a	0	-327.74
	8448	16.898	-3.46228E-001	-3.11279E-006	0.00000E+000	-3.44800E-001	-1.62094E-003	8	..........a	0	-327.74
	8480	16.962	-3.49444E-001	-3.27486E-006	0.00000E+000	-3.48000E-001	-1.92094E-003	8	..........a	0	-327.74
	8512	17.026	-3.52619E-001	-3.25445E-006	0.00000E+000	-3.51200E-001	-1.67927E-003	8	..........a	0	-327.74
	8544	17.09	-3.55882E-001	-3.47026E-006	0.00000E+000	-3.54400E-001	-1.87094E-003	8	..........a	0	-327.74
	8576	17.154	-3.58936E-001	-3.45818E-006	0.00000E+000	-3.57600E-001	-1.63761E-003	8	..........a	0	-327.74
	8608	17.218	-3.62223E-001	-3.50818E-006	0.00000E+000	-3.60800E-001	-1.70427E-003	8	..........a	0	-327.74
	8640	17.282	-3.65398E-001	-3.65358E-006	0.00000E+000	-3.64000E-001	-1.58761E-003	8	..........a	0	-327.74
	8672	17.346	-3.68553E-001	-3.58150E-006	0.00000E+000	-3.67200E-001	-1.82094E-003	8	..........a	0	-327.74
	8704	17.41	-3.71778E-001	-3.78982E-006	0.00000E+000	-3.70400E-001	-1.82927E-003	8	..........a	0	-327.74
	8736	17.474	-3.75086E-001	-3.96272E-006	0.00000E+000	-3.73600E-001	-1.98761E-003	8	..........a	0	-327.74
	8768	17.538	-3.78190E-001	-4.12938E-006	0.00000E+000	-3.76800E-001	-1.59594E-003	8	..........a	0	-327.74
	8800	17.602	-3.81398E-001	-4.23853E-006	0.00000E+000	-3.80000E-001	-1.73761E-003	8	..........a	0	-327.74
	8832	17.666	-3.84586E-001	-4.36894E-006	0.00000E+000	-3.83200E-001	-1.74594E-003	8	..........a	0	-327.74
	8864	17.73	-3.87823E-001	-4.57934E-006	0.00000E+000	-3.86400E-001	-2.02094E-003	8	..........a	0	-327.74
	8896	17.794	-3.91069E-001	-4.70058E-006	0.00000E+000	-3.89600E-001	-1.99594E-003	8	..........a	0	-327.74
	8928	17.858	-3.94232E-001	-4.84807E-006	0.00000E+000	-3.92800E-001	-1.73761E-003	8	..........a	0	-327.74
	8960	17.922	-3.97432E-001	-5.20596E-006	0.00000E+000	-3.96000E-001	-1.77094E-003	8	..........a	0	-327.74
	8992	17.986	-4.00603E-001	-5.46927E-006	0.00000E+000	-3.99200E-001	-1.77927E-003	8	..........a	0	-327.74
	9024	18.05	-4.03878E-001	-5.79507E-006	0.00000E+000	-4.02400E-001	-1.92927E-003	8	..........a	0	-327.74
	9056	18.114	-4.07003E-001	-6.11380E-006	0.00000E+000	-4.05600E-001	-1.91261E-003	8	..........a	0	-327.74
	9088	18.178	-4.10207E-001	-6.48419E-006	0.00000E+000	-4.08800E-001	-1.73761E-003	8	..........a	0	-327.74
	9120	18.242	-4.13411E-001	-7.17038E-006	0.00000E+000	-4.12000E-001	-1.70427E-003	8	..........a	0	-327.74
	9152	18.306	-4.16636E-001	-7.62493E-006	0.00000E+000	-4.15200E-001	-1.77094E-003	8	..........a	0	-327.74
	9184	18.37	-4.19798E-001	-8.28154E-006	0.00000E+000	-4.18400E-001	-1.87927E-003	8	..........a	0	-327.74
	9216	18.434	-4.23053E-001	-8.89358E-006	0.00000E+000	-4.21600E-001	-1.90427E-003	8	..........a	0	-327.74
	9248	18.498	-4.26194E-001	-9.67018E-006	0.00000E+000	-4.24800E-001	-1.82927E-003	8	..........a	0	-327.74
	9280	18.562	-4.29411E-001	-1.06147E-005	0.00000E+000	-4.28000E-001	-1.58761E-003	8	..........a	0	-327.74
	9312	18.626	-4.32590E-001	-1.15284E-005	0.00000E+000	-4.31200E-001	-1.64594E-003	8	..........a	0	-327.74
	9344	18.69	-4.35761E-001	-1.23783E-005	0.00000E+000	-4.34400E-001	-1.87927E-003	8	..........a	0	-327.74
	9376	18.754	-4.39032E-001	-1.36965E-005	0.00000E+000	-4.37600E-001	-2.02094E-003	8	..........a	0	-327.74
	9408	18.818	-4.42198E-001	-1.48568E-005	0.00000E+000	-4.40800E-001	-1.84594E-003	8	..........a	0	-327.74
	9440	18.882	-4.45365E-001	-1.63384E-005	0.00000E+000	-4.44000E-001	-1.72927E-003	8	..........a	0	-327.74
	9472	18.946	-4.48632E-001	-1.82832E-005	0.00000E+000	-4.47200E-001	-1.77094E-003	8	..........a	0	-327.74
	9504	19.01	-4.51715E-001	-1.99748E-005	0.00000E+000	-4.50400E-001	-1.64594E-003	8	..........a	0	-327.74
	9536	19.074	-4.54948E-001	-2.19792E-005	0.00000E+000	-4.53600E-001	-1.79594E-003	8	..........a	0	-327.74
	9568	19.138	-4.58219E-001	-2.42682E-005	0.00000E+000	-4.56800E-001	-1.87927E-003	8	..........a	0	-327.74
	9600	19.202	-4.61328E-001	-2.68309E-005	0.00000E+000	-4.60000E-001	-1.79594E-003	8	..........a	0	-327.74
	9632	19.266	-4.64519E-001	-2.97286E-005	0.00000E+000	-4.63200E-001	-1.73761E-003	8	..........a	0	-327.74
	9664	19.33	-4.67757E-001	-3.29012E-005	0.00000E+000	-4.66400E-001	-1.76261E-003	8	..........a	0	-327.74
	9696	19.394	-4.70944E-001	-3.67647E-005	0.00000E+000	-4.69600E-001	-1.79594E-003	8	..........a	0	-327.74
	9728	19.458	-4.74140E-001	-4.04448E-005	0.00000E+000	-4.72800E-001	-1.77927E-003	8	..........a	0	-327.74
	9760	19.522	-4.77398E-001	-4.53777E-005	0.00000E+000	-4.76000E-001	-1.81261E-003	8	..........a	0	-327.74
	9792	19.586	-4.80486E-001	-5.01853E-005	0.00000E+000	-4.79200E-001	-1.70427E-003	8	..........a	0	-327.74
	9824	19.65	-4.83719E-001	-5.57556E-005	0.00000E+000	-4.82400E-001	-1.77094E-003	8	..........a	0	-327.74
	9856	19.714	-4.86890E-001	-6.17810E-005	0.00000E+000	-4.85600E-001	-1.79594E-003	8	..........a	0	-327.74
	9888	19.778	-4.90078E-001	-6.85375E-005	0.00000E+000	-4.88800E-001	-1.83761E-003	8	..........a	0	-327.74
	9920	19.842	-4.93269E-001	-7.64915E-005	0.00000E+000	-4.92000E-001	-1.92927E-003	8	..........a	0	-327.74
	9952	19.906	-4.96469E-001	-8.46467E-005	0.00000E+000	-4.95200E-001	-1.91261E-003	8	..........a	0	-327.74
	9984	19.97	-4.99686E-001	-9.30843E-005	0.00000E+000	-4.98400E-001	-1.74594E-003	8	..........a	0	-327.74
	10016	20.034	-5.02823E-001	-1.03374E-004	0.00000E+000	-5.01600E-001	-1.56261E-003	8	..........a	0	-327.74
	10048	20.098	-5.06053E-001	-1.13798E-004	0.00000E+000	-5.04800E-001	-1.70427E-003	8	..........a	0	-327.74
	10080	20.162	-5.09232E-001	-1.24985E-004	0.00000E+000	-5.08000E-001	-1.74594E-003	8	..........a	0	-327.74
	10112	20.226	-5.12403E-001	-1.37201E-004	0.00000E+000	-5.11200E-001	-1.57927E-003	8	..........a	0	-327.74
	10144	20.29	-5.15582E-001	-1.49319E-004	0.00000E+000	-5.14400E-001	-1.76261E-003	8	..........a	0	-327.74
	10176	20.354	-5.18757E-001	-1.62832E-004	0.00000E+000	-5.17600E-001	-1.51261E-003	8	..........a	0	-327.74
	10208	20.418	-5.21944E-001	-1.75506E-004	0.00000E+000	-5.20800E-001	-1.52094E-003	8	..........a	0	-327.74
	10240	20.482	-5.25136E-001	-1.88978E-004	0.00000E+000	-5.24000E-001	-1.73761E-003	8	..........a	0	-327.74
	10272	20.546	-5.28365E-001	-2.01990E-004	0.00000E+000	-5.27200E-001	-1.74594E-003	8	..........a	0	-327.74
	10304	20.61	-5.31494E-001	-2.14922E-004	0.00000E+000	-5.30400E-001	-1.61261E-003	8	..........a	0	-327.74
	10336	20.674	-5.34711E-001	-2.26909E-004	0.00000E+000	-5.33600E-001	-1.80427E-003	8	..........a	0	-327.74
	10368	20.738	-5.37857E-001	-2.37572E-004	0.00000E+000	-5.36800E-001	-1.62927E-003	8	..........a	0	-327.74
	10400	20.802	-5.41053E-001	-2.46444E-004	0.00000E+000	-5.40000E-001	-1.61261E-003	8	..........a	0	-327.74
	10432	20.866	-5.44315E-001	-2.54105E-004	0.00000E+000	-5.43200E-001	-1.74594E-003	8	..........a	0	-327.74
	10464	20.93	-5.47465E-001	-2.59918E-004	0.00000E+000	-5.46400E-001	-1.74594E-003	8	..........a	0	-327.74
	10496	20.994	-5.50665E-001	-2.63750E-004	0.00000E+000	-5.49600E-001	-1.72094E-003	8	..........a	0	-327.74
	10528	21.058	-5.53882E-001	-2.65958E-004	0.00000E+000	-5.52800E-001	-1.84594E-003	8	..........a	0	-327.74
	10560	21.122	-5.57154E-001	-2.66710E-004	0.00000E+000	-5.56000E-001	-1.19594E-003	9	..........a	0	-327.74
	10592	21.186	-5.60471E-001	-2.65766E-004	0.00000E+000	-5.59200E-001	-1.64594E-003	9	..........a	0	-327.74
	10624	21.25	-5.63612E-001	-2.64219E-004	0.00000E+000	-5.62400E-001	-1.68761E-003	9	..........a	0	-327.74
	10656	21.314	-5.66817E-001	-2.62690E-004	0.00000E+000	-5.65600E-001	-1.65427E-003	9	..........a	0	-327.74
	10688	21.378	-5.70021E-001	-2.60877E-004	0.00000E+000	-5.68800E-001	-1.41261E-003	9	..........a	0	-327.74
	10720	21.442	-5.73242E-001	-2.58913E-004	0.00000E+000	-5.72000E-001	-1.70427E-003	9	..........a	0	-327.74
	10752	21.506	-5.76458E-001	-2.57429E-004	0.00000E+000	-5.75200E-001	-1.84594E-003	9	..........a	0	-327.74
	10784	21.57	-5.79675E-001	-2.55703E-004	0.00000E+000	-5.78400E-001	-1.84594E-003	9	..........a	0	-327.74
	10816	21.634	-5.82833E-001	-2.54830E-004	0.00000E+000	-5.81600E-001	-1.62094E-003	9	..........a	0	-327.74
	10848	21.698	-5.85996E-001	-2.53489E-004	0.00000E+000	-5.84800E-001	-1.54594E-003	9	..........a	0	-327.74
	10880	21.762	-5.89179E-001	-2.52632E-004	0.00000E+000	-5.88000E-001	-1.52927E-003	9	..........a	0	-327.74
	10912	21.826	-5.92408E-001	-2.51119E-004	0.00000E+000	-5.91200E-001	-1.66261E-003	9	..........a	0	-327.74
	10944	21.89	-5.95625E-001	-2.50760E-004	0.00000E+000	-5.94400E-001	-1.62094E-003	9	..........a	0	-327.74
	10976	21.954	-5.98846E-001	-2.50451E-004	0.00000E+000	-5.97600E-001	-1.58761E-003	9	..........a	0	-327.74
	11008	22.018	-6.02062E-001	-2.50125E-004	0.00000E+000	-6.00800E-001	-1.65427E-003	9	..........a	0	-327.74
	11040	22.082	-6.05217E-001	-2.49907E-004	0.00000E+000	-6.04000E-001	-1.51261E-003	9	..........a	0	-327.74
	11072	22.146	-6.08454E-001	-2.50062E-004	0.00000E+000	-6.07200E-001	-1.57927E-003	9	..........a	0	-327.74
	11104	22.21	-6.11687E-001	-2.50137E-004	0.00000E+000	-6.10400E-001	-1.71261E-003	9	..........a	0	-327.74
	11136	22.274	-6.14821E-001	-2.50288E-004	0.00000E+000	-6.13600E-001	-1.64594E-003	9	..........a	0	-327.74
	11168	22.338	-6.18033E-001	-2.50300E-004	0.00000E+000	-6.16800E-001	-1.78761E-003	9	..........a	0	-327.74
	11200	22.402	-6.21237E-001	-2.50213E-004	0.00000E+000	-6.20000E-001	-1.73761E-003	9	..........a	0	-327.74
	11232	22.466	-6.24442E-001	-2.50175E-004	0.00000E+000	-6.23200E-001	-1.74594E-003	9	..........a	0	-327.74
	11264	22.53	-6.27592E-001	-2.49949E-004	0.00000E+000	-6.26400E-001	-1.49594E-003	9	..........a	0	-327.74
	11296	22.594	-6.30850E-001	-2.50070E-004	0.00000E+000	-6.29600E-001	-1.97094E-003	9	..........a	0	-327.74
	11328	22.658	-6.34058E-001	-2.49678E-004	0.00000E+000	-6.32800E-001	-1.96261E-003	9	..........a	0	-327.74
	11360	22.722	-6.37225E-001	-2.49661E-004	0.00000E+000	-6.36000E-001	-1.63761E-003	9	..........a	0	-327.74
	11392	22.786	-6.40404E-001	-2.49017E-004	0.00000E+000	-6.39200E-001	-1.66261E-003	9	..........a	0	-327.74
	11424	22.85	-6.43629E-001	-2.48917E-004	0.00000E+000	-6.42400E-001	-1.68761E-003	9	..........a	0	-327.74
	11456	22.914	-6.46762E-001	-2.48884E-004	0.00000E+000	-6.45600E-001	-1.69594E-003	9	..........a	0	-327.74
	11488	22.978	-6.50042E-001	-2.48654E-004	0.00000E+000	-6.48800E-001	-1.85427E-003	9	..........a	0	-327.74
	11520	23.042	-6.53183E-001	-2.48946E-004	0.00000E+000	-6.52000E-001	-1.45427E-003	9	..........a	0	-327.74
	11552	23.106	-6.56417E-001	-2.49130E-004	0.00000E+000	-6.55200E-001	-1.65427E-003	9	..........a	0	-327.74
	11584	23.17	-6.59592E-001	-2.49256E-004	0.00000E+000	-6.58400E-001	-1.58761E-003	9	..........a	0	-327.74
	11616	23.234	-6.62817E-001	-2.49055E-004	0.00000E+000	-6.61600E-001	-1.55427E-003	9	..........a	0	-327.74
	11648	23.298	-6.66017E-001	-2.49013E-004	0.00000E+000	-6.64800E-001	-1.87927E-003	9	..........a	0	-327.74
	11680	23.362	-6.69217E-001	-2.49101E-004	0.00000E+000	-6.68000E-001	-1.67927E-003	9	..........a	0	-327.74
	11712	23.426	-6.72396E-001	-2.49001E-004	0.00000E+000	-6.71200E-001	-1.58761E-003	9	..........a	0	-327.74
	11744	23.49	-6.75579E-001	-2.49009E-004	0.00000E+000	-6.74400E-001	-1.59594E-003	9	..........a	0	-327.74
	11776	23.554	-6.78804E-001	-2.49214E-004	0.00000E+000	-6.77600E-001	-1.79594E-003	9	..........a	0	-327.74
	11808	23.618	-6.82058E-001	-2.49381E-004	0.00000E+000	-6.80800E-001	-2.07094E-003	9	..........a	0	-327.74
	11840	23.682	-6.85250E-001	-2.49214E-004	0.00000E+000	-6.84000E-001	-1.81261E-003	9	..........a	0	-327.74
	11872	23.746	-6.88458E-001	-2.49097E-004	0.00000E+000	-6.87200E-001	-1.72927E-003	9	..........a	0	-327.74
	11904	23.81	-6.91567E-001	-2.48737E-004	0.00000E+000	-6.90400E-001	-1.64594E-003	9	..........a	0	-327.74
	11936	23.874	-6.94792E-001	-2.48424E-004	0.00000E+000	-6.93600E-001	-1.79594E-003	9	..........a	0	-327.74
	11968	23.938	-6.97967E-001	-2.48416E-004	0.00000E+000	-6.96800E-001	-1.71261E-003	9	..........a	0	-327.74
	12000	24.002	-7.01279E-001	-2.48324E-004	0.00000E+000	-7.00000E-001	-1.92094E-003	9	..........a	0	-327.74
	12032	24.066	-7.04483E-001	-2.48098E-004	0.00000E+000	-7.03200E-001	-1.92927E-003	9	..........a	0	-327.74
	12064	24.13	-7.07608E-001	-2.48052E-004	0.00000E+000	-7.06400E-001	-1.55427E-003	9	..........a	0	-327.74
	12096	24.194	-7.10837E-001	-2.48274E-004	0.00000E+000	-7.09600E-001	-1.90427E-003	9	..........a	0	-327.74
	12128	24.258	-7.13950E-001	-2.48294E-004	0.00000E+000	-7.12800E-001	-1.50427E-003	9	..........a	0	-327.74
	12160	24.322	-7.17271E-001	-2.48165E-004	0.00000E+000	-7.16000E-001	-2.04594E-003	9	..........a	0	-327.74
	12192	24.386	-7.20450E-001	-2.47843E-004	0.00000E+000	-7.19200E-001	-2.02094E-003	9	..........a	0	-327.74
	12224	24.45	-7.23612E-001	-2.47893E-004	0.00000E+000	-7.22400E-001	-1.77094E-003	9	..........a	0	-327.74
	12256	24.514	-7.26783E-001	-2.48006E-004	0.00000E+000	-7.25600E-001	-1.84594E-003	9	..........a	0	-327.74
	12288	24.578	-7.30037E-001	-2.47714E-004	0.00000E+000	-7.28800E-001	-1.89594E-003	9	..........a	0	-327.74
	12320	24.642	-7.33233E-001	-2.47501E-004	0.00000E+000	-7.32000E-001	-1.82927E-003	9	..........a	0	-327.74
	12352	24.706	-7.36417E-001	-2.47430E-004	0.00000E+000	-7.35200E-001	-1.78761E-003	9	..........a	0	-327.74
	12384	24.77	-7.39646E-001	-2.47292E-004	0.00000E+000	-7.38400E-001	-1.87094E-003	9	..........a	0	-327.74
	12416	24.834	-7.42771E-001	-2.47087E-004	0.00000E+000	-7.41600E-001	-1.69594E-003	9	..........a	0	-327.74
	12448	24.898	-7.46033E-001	-2.47350E-004	0.00000E+000	-7.44800E-001	-1.74594E-003	9	..........a	0	-327.74
	12480	24.962	-7.49204E-001	-2.47024E-004	0.00000E+000	-7.48000E-001	-1.83761E-003	9	..........a	0	-327.74
	12512	25.026	-7.52400E-001	-2.47137E-004	0.00000E+000	-7.51200E-001	-1.67094E-003	9	..........a	0	-327.74
	12544	25.09	-7.55508E-001	-2.47271E-004	0.00000E+000	-7.54400E-001	-1.61261E-003	9	..........a	0	-327.74
	12576	25.154	-7.58854E-001	-2.47358E-004	0.00000E+000	-7.57600E-001	-1.95427E-003	9	..........a	0	-327.74
	12608	25.218	-7.61996E-001	-2.47914E-004	0.00000E+000	-7.60800E-001	-1.56261E-003	9	..........a	0	-327.74
	12640	25.282	-7.65179E-001	-2.48090E-004	0.00000E+000	-7.64000E-001	-1.61261E-003	9	..........a	0	-327.74
	12672	25.346	-7.68412E-001	-2.48307E-004	0.00000E+000	-7.67200E-001	-1.63761E-003	9	..........a	0	-327.74
	12704	25.41	-7.71600E-001	-2.48299E-004	0.00000E+000	-7.70400E-001	-1.77094E-003	9	..........a	0	-327.74
	12736	25.474	-7.74804E-001	-2.48462E-004	0.00000E+000	-7.73600E-001	-1.68761E-003	9	..........a	0	-327.74
	12768	25.538	-7.78004E-001	-2.48378E-004	0.00000E+000	-7.76800E-001	-1.75427E-003	9	..........a	0	-327.74
	12800	25.602	-7.81196E-001	-2.48198E-004	0.00000E+000	-7.80000E-001	-1.67094E-003	9	..........a	0	-327.74
	12832	25.666	-7.84437E-001	-2.47893E-004	0.00000E+000	-7.83200E-001	-1.82927E-003	9	..........a	0	-327.74
	12864	25.73	-7.87587E-001	-2.47827E-004	0.00000E+000	-7.86400E-001	-1.76261E-003	9	..........a	0	-327.74
	12896	25.794	-7.90833E-001	-2.47664E-004	0.00000E+000	-7.89600E-001	-1.82927E-003	9	..........a	0	-327.74
	12928	25.858	-7.94021E-001	-2.47872E-004	0.00000E+000	-7.92800E-001	-1.87094E-003	9	..........a	0	-327.74
	12960	25.922	-7.97150E-001	-2.47768E-004	0.00000E+000	-7.96000E-001	-1.76261E-003	9	..........a	0	-327.74
	12992	25.986	-8.00367E-001	-2.47923E-004	0.00000E+000	-7.99200E-001	-1.71261E-003	9	..........a	0	-327.74
	13024	26.05	-8.03654E-001	-2.47856E-004	0.00000E+000	-8.02400E-001	-1.77094E-003	9	..........a	0	-327.74
	13056	26.114	-8.06808E-001	-2.47860E-004	0.00000E+000	-8.05600E-001	-1.90427E-003	9	..........a	0	-327.74
	13088	26.178	-8.10004E-001	-2.48073E-004	0.00000E+000	-8.08800E-001	-1.81261E-003	9	..........a	0	-327.74
	13120	26.242	-8.13196E-001	-2.47852E-004	0.00000E+000	-8.12000E-001	-1.64594E-003	9	..........a	0	-327.74
	13152	26.306	-8.16458E-001	-2.47889E-004	0.00000E+000	-8.15200E-001	-1.84594E-003	9	..........a	0	-327.74
	13184	26.37	-8.19500E-001	-2.47893E-004	0.00000E+000	-8.18400E-001	-1.60427E-003	9	..........a	0	-327.74
	13216	26.434	-8.22754E-001	-2.47743E-004	0.00000E+000	-8.21600E-001	-1.84594E-003	9	..........a	0	-327.74
	13248	26.498	-8.25937E-001	-2.47935E-004	0.00000E+000	-8.24800E-001	-1.84594E-003	9	..........a	0	-327.74
	13280	26.562	-8.29192E-001	-2.47918E-004	0.00000E+000	-8.28000E-001	-1.89594E-003	9	..........a	0	-327.74
	13312	26.626	-8.32350E-001	-2.47526E-004	0.00000E+000	-8.31200E-001	-1.62927E-003	9	..........a	0	-327.74
	13344	26.69	-8.35483E-001	-2.47542E-004	0.00000E+000	-8.34400E-001	-1.86261E-003	9	..........a	0	-327.74
	13376	26.754	-8.38729E-001	-2.47329E-004	0.00000E+000	-8.37600E-001	-1.80427E-003	9	..........a	0	-327.74
	13408	26.818	-8.41979E-001	-2.47045E-004	0.00000E+000	-8.40800E-001	-1.82094E-003	9	..........a	0	-327.74
	13440	26.882	-8.45158E-001	-2.47271E-004	0.00000E+000	-8.44000E-001	-1.89594E-003	9	..........a	0	-327.74
	13472	26.946	-8.48275E-001	-2.47120E-004	0.00000E+000	-8.47200E-001	-1.57094E-003	9	..........a	0	-327.74
	13504	27.01	-8.51475E-001	-2.47241E-004	0.00000E+000	-8.50400E-001	-1.84594E-003	9	..........a	0	-327.74
	13536	27.074	-8.54733E-001	-2.47325E-004	0.00000E+000	-8.53600E-001	-1.69594E-003	9	..........a	0	-327.74
	13568	27.138	-8.57908E-001	-2.47551E-004	0.00000E+000	-8.56800E-001	-1.77927E-003	9	..........a	0	-327.74
	13600	27.202	-8.61142E-001	-2.47680E-004	0.00000E+000	-8.60000E-001	-1.62927E-003	9	..........a	0	-327.74
	13632	27.266	-8.64300E-001	-2.47609E-004	0.00000E+000	-8.63200E-001	-1.66261E-003	9	..........a	0	-327.74
	13664	27.33	-8.67529E-001	-2.47459E-004	0.00000E+000	-8.66400E-001	-1.68761E-003	9	..........a	0	-327.74
	13696	27.394	-8.70675E-001	-2.47567E-004	0.00000E+000	-8.69600E-001	-1.50427E-003	9	..........a	0	-327.74
	13728	27.458	-8.73900E-001	-2.47664E-004	0.00000E+000	-8.72800E-001	-1.90427E-003	9	..........a	0	-327.74
	13760	27.522	-8.77154E-001	-2.47818E-004	0.00000E+000	-8.76000E-001	-1.87094E-003	9	..........a	0	-327.74
	13792	27.586	-8.80304E-001	-2.47827E-004	0.00000E+000	-8.79200E-001	-1.88761E-003	9	..........a	0	-327.74
	13824	27.65	-8.83454E-001	-2.48152E-004	0.00000E+000	-8.82400E-001	-1.59594E-003	9	..........a	0	-327.74
	13856	27.714	-8.86683E-001	-2.48244E-004	0.00000E+000	-8.85600E-001	-1.68761E-003	9	..........a	0	-327.74
	13888	27.778	-8.89921E-001	-2.48027E-004	0.00000E+000	-8.88800E-001	-1.78761E-003	9	..........a	0	-327.74
	13920	27.842	-8.93092E-001	-2.47960E-004	0.00000E+000	-8.92000E-001	-1.55427E-003	9	..........a	0	-327.74
	13952	27.906	-8.96283E-001	-2.47943E-004	0.00000E+000	-8.95200E-001	-1.38761E-003	9	..........a	0	-327.74
	13984	27.97	-8.99483E-001	-2.47943E-004	0.00000E+000	-8.98400E-001	-1.60427E-003	9	..........a	0	-327.74
	14016	28.034	-9.02692E-001	-2.48198E-004	0.00000E+000	-9.01600E-001	-1.57094E-003	9	..........a	0	-327.74
	14048	28.098	-9.05925E-001	-2.48299E-004	0.00000E+000	-9.04800E-001	-1.48761E-003	9	..........a	0	-327.74
	14080	28.162	-9.09083E-001	-2.48320E-004	0.00000E+000	-9.08000E-001	-1.79594E-003	9	..........a	0	-327.74
	14112	28.226	-9.12283E-001	-2.48274E-004	0.00000E+000	-9.11200E-001	-1.70427E-003	9	..........a	0	-327.74
	14144	28.29	-9.15542E-001	-2.48098E-004	0.00000E+000	-9.14400E-001	-1.80427E-003	9	..........a	0	-327.74
	14176	28.354	-9.18687E-001	-2.47902E-004	0.00000E+000	-9.17600E-001	-1.75427E-003	9	..........a	0	-327.74
	14208	28.418	-9.21887E-001	-2.47718E-004	0.00000E+000	-9.20800E-001	-1.51261E-003	9	..........a	0	-327.74
	14240	28.482	-9.25083E-001	-2.47513E-004	0.00000E+000	-9.24000E-001	-1.49594E-003	9	..........a	0	-327.74
	14272	28.546	-9.28321E-001	-2.47668E-004	0.00000E+000	-9.27200E-001	-1.82094E-003	9	..........a	0	-327.74
	14304	28.61	-9.31496E-001	-2.47430E-004	0.00000E+000	-9.30400E-001	-1.82927E-003	9	..........a	0	-327.74
	14336	28.674	-9.34654E-001	-2.47455E-004	0.00000E+000	-9.33600E-001	-1.55427E-003	9	..........a	0	-327.74
	14368	28.738	-9.37879E-001	-2.47325E-004	0.00000E+000	-9.36800E-001	-1.61261E-003	9	..........a	0	-327.74
	14400	28.802	-9.41046E-001	-2.47254E-004	0.00000E+000	-9.40000E-001	-1.77927E-003	9	..........a	0	-327.74
	14432	28.866	-9.44279E-001	-2.47313E-004	0.00000E+000	-9.43200E-001	-1.57927E-003	9	..........a	0	-327.74
	14464	28.93	-9.47454E-001	-2.46932E-004	0.00000E+000	-9.46400E-001	-1.75427E-003	9	..........a	0	-327.74
	14496	28.994	-9.50683E-001	-2.46978E-004	0.00000E+000	-9.49600E-001	-1.75427E-003	9	..........a	0	-327.74
	14528	29.058	-9.53904E-001	-2.46895E-004	0.00000E+000	-9.52800E-001	-1.69594E-003	9	..........a	0	-327.74
	14560	29.122	-9.57037E-001	-2.46957E-004	0.00000E+000	-9.56000E-001	-1.33761E-003	9	..........a	0	-327.74
	14592	29.186	-9.60242E-001	-2.46807E-004	0.00000E+000	-9.59200E-001	-1.61261E-003	9	..........a	0	-327.74
	14624	29.25	-9.63571E-001	-2.46727E-004	0.00000E+000	-9.62400E-001	-2.00427E-003	9	..........a	0	-327.74
	14656	29.314	-9.66717E-001	-2.46736E-004	0.00000E+000	-9.65600E-001	-1.66261E-003	9	..........a	0	-327.74
	14688	29.378	-9.69908E-001	-2.46941E-004	0.00000E+000	-9.68800E-001	-1.72094E-003	9	..........a	0	-327.74
	14720	29.442	-9.73029E-001	-2.47108E-004	0.00000E+000	-9.72000E-001	-1.64594E-003	9	..........a	0	-327.74
	14752	29.506	-9.76250E-001	-2.47580E-004	0.00000E+000	-9.75200E-001	-1.78761E-003	9	..........a	0	-327.74
	14784	29.57	-9.79508E-001	-2.48069E-004	0.00000E+000	-9.78400E-001	-1.62927E-003	9	..........a	0	-327.74
	14816	29.634	-9.82725E-001	-2.48428E-004	0.00000E+000	-9.81600E-001	-2.16261E-003	9	..........a	0	-327.74
	14848	29.698	-9.85896E-001	-2.48721E-004	0.00000E+000	-9.84800E-001	-1.99594E-003	9	..........a	0	-327.74
	14880	29.762	-9.89058E-001	-2.48537E-004	0.00000E+000	-9.88000E-001	-1.66261E-003	9	..........a	0	-327.74
	14912	29.826	-9.92333E-001	-2.48395E-004	0.00000E+000	-9.91200E-001	-2.02094E-003	9	..........a	0	-327.74
	14944	29.89	-9.95521E-001	-2.48386E-004	0.00000E+000	-9.94400E-001	-1.72927E-003	9	..........a	0	-327.74
	14976	29.954	-9.98717E-001	-2.48432E-004	0.00000E+000	-9.97600E-001	-2.07094E-003	9	..........a	0	-327.74
	15000	30.002	-1.00114E+000	-2.48274E-004	0.00000E+000	-1.00000E+000	-2.21261E-003	9	..........a	0	-327.74