File: data/02-SI/Figures_S9_S11_RDE/18btmapaq-rde/1mkcl-18btmapaq-nitrogen-500mvpers.DTA
EXPLAIN
TAG	CV
TITLE	LABEL	Cyclic Voltammetry	Test &Identifier
DATE	LABEL	1/31/2023	Date
TIME	LABEL	15:21:26	Time
NOTES	NOTES	1	&Notes...

PSTAT	PSTAT	REF3000-21108	Potentiostat
VINIT	POTEN	5.00000E-001	F	Initial &E (V)
VLIMIT1	POTEN	-1.00000E+000	F	Scan Limit &1 (V)
VLIMIT2	POTEN	5.00000E-001	F	Scan Limit &2 (V)
VFINAL	POTEN	5.00000E-001	F	Final &E (V)
SCANRATE	QUANT	4.99999E+002	&Scan Rate (mV/s)
STEPSIZE	QUANT	1.00000E+000	St&ep Size (mV)
CYCLES	IQUANT	1	C&ycles (#)
IMODE	SELECTOR	1	I/E Range &Mode
IRANGE	QUANT	1.00000E+001	&Max Current (mA)
AREA	QUANT	1.00000E+000	Electrode &Area (cm^2)
ELECTRODETYPE	SELECTOR	0	Electrode Type
STRIPPING	TOGGLE	F	Used for Stripping
POLARITY	TOGGLE	F	Signal Polarity
CONDIT	TWOPARAM	F	1.50000E+001	0.00000E+000	Conditionin&g	Time(s)	E(V)
DELAY	TWOPARAM	F	5.00000E+000	0.00000E+000	Init. De&lay	Time(s)	Stab.(mV/s)
EQDELAY	QUANT	0.00000E+000	Equil. &Time (s)
IRCOMP	SELECTOR	0	IRCom&p
PFCOR	QUANT	5.00000E+001	PF Corr. (ohm)
SAMPLINGMODE	SELECTOR	1	Sampling &Mode
EOC	QUANT	0	Open Circuit (V)
PSTATMODEL	IQUANT	5	Pstat Model
PSTATSECTION	LABEL	REF3000-21108	Pstat Section
PSTATSERIALNO	LABEL	21108	Pstat Serial Number
CTRLMODE	IQUANT	1	Control Mode
ELECTROMETER	IQUANT	0	RE=0 or CS=1
IESTAB	IQUANT	2	I/E Stability
CASPEED	IQUANT	4	Control Amp Speed
CONVENTION	IQUANT	1	Current Convention
ICHRANGE	IQUANT	2	Ich Range
ICHRANGEMODE	TOGGLE	F	Ich Auto Range
ICHOFFSETENABLE	TOGGLE	F	Ich Offset Enable
ICHOFFSET	QUANT	0	Ich Offset (V)
ICHFILTER	IQUANT	2	Ich Filter
VCHRANGE	IQUANT	2	Vch Range
VCHRANGEMODE	TOGGLE	F	Vch Auto Range
VCHOFFSETENABLE	TOGGLE	F	Vch Offset Enable
VCHOFFSET	QUANT	0	Vch Offset (V)
VCHFILTER	IQUANT	2	Vch Filter
ACHRANGE	IQUANT	2	Ach Range
ACHOFFSETENABLE	TOGGLE	F	Ach Offset Enable
ACHOFFSET	QUANT	0	Ach Offset (V)
ACHFILTER	IQUANT	0	Ach Filter
IERANGELOWERLIMIT	IQUANT	2	I/E Range Lower Limit
IERANGEMODE	TOGGLE	F	I/E AutoRange
IERANGE	IQUANT	10	I/E Range
POSFEEDENABLE	TOGGLE	F	Positive Feedback IR Comp
POSFEEDRESISTANCE	QUANT	0	Positive Feedback Resistance (ohm)
ACHSELECT	IQUANT	0	Ach Select
SENSECABLEID	IQUANT	14	Sense Cable ID
PWRCABLEID	IQUANT	7	Power Cable ID
DCCALDATE	LABEL	11/9/2022	DC Calibration Date
ACCALDATE	LABEL	11/9/2022	AC Calibration Date
THERMOSELECT	IQUANT	1	Thermo Select
FRAMEWORKVERSION	LABEL	7.8.2	Framework Version
INSTRUMENTVERSION	LABEL	4.40	Instrument Version
COMPLIANCEVOLTAGE	IQUANT	0	Compliance Voltage
CURVE1	TABLE
	Pt	T	Vf	Im	Vu	Sig	Ach	IERange	Over	Temp
	#	s	V vs. Ref.	A	V	V	V	#	bits	deg C
	0	0.002	4.98760E-001	1.63800E-005	0.00000E+000	5.00000E-001	-8.79272E-004	10	..........a	-327.74
	7	0.016	4.91735E-001	1.05316E-005	0.00000E+000	4.93000E-001	-8.04272E-004	10	..........a	-327.74
	14	0.03	4.84756E-001	7.73265E-006	0.00000E+000	4.86000E-001	-8.95939E-004	10	..........a	-327.74
	21	0.044	4.77873E-001	5.43504E-006	0.00000E+000	4.79000E-001	-8.29272E-004	10	..........a	-327.74
	28	0.058	4.70773E-001	4.22357E-006	0.00000E+000	4.72000E-001	-8.79272E-004	10	..........a	-327.74
	35	0.072	4.63727E-001	3.38807E-006	0.00000E+000	4.65000E-001	-8.95939E-004	10	..........a	-327.74
	42	0.086	4.56802E-001	2.67790E-006	0.00000E+000	4.58000E-001	-8.45939E-004	10	..........a	-327.74
	49	0.1	4.49744E-001	2.00951E-006	0.00000E+000	4.51000E-001	-8.62605E-004	10	..........a	-327.74
	56	0.114	4.42814E-001	1.13224E-006	0.00000E+000	4.44000E-001	-8.79272E-004	10	..........a	-327.74
	63	0.128	4.35839E-001	7.56265E-007	0.00000E+000	4.37000E-001	-8.62605E-004	10	..........a	-327.74
	70	0.142	4.28769E-001	8.78689E-008	0.00000E+000	4.30000E-001	-9.04272E-004	10	..........a	-327.74
	77	0.156	4.21823E-001	-2.04554E-007	0.00000E+000	4.23000E-001	-8.79272E-004	10	..........a	-327.74
	84	0.17	4.14827E-001	-2.04554E-007	0.00000E+000	4.16000E-001	-8.95939E-004	10	..........a	-327.74
	91	0.184	4.07814E-001	-8.72950E-007	0.00000E+000	4.09000E-001	-8.70939E-004	10	..........a	-327.74
	98	0.198	4.00777E-001	-1.20715E-006	0.00000E+000	4.02000E-001	-9.20939E-004	10	..........a	-327.74
	105	0.212	3.93814E-001	-1.45780E-006	0.00000E+000	3.95000E-001	-8.12605E-004	10	..........a	-327.74
	112	0.226	3.86806E-001	-1.58312E-006	0.00000E+000	3.88000E-001	-8.95939E-004	10	..........a	-327.74
	119	0.24	3.79760E-001	-1.95909E-006	0.00000E+000	3.81000E-001	-8.70939E-004	10	..........a	-327.74
	126	0.254	3.72731E-001	-2.66926E-006	0.00000E+000	3.74000E-001	-8.20939E-004	10	..........a	-327.74
	133	0.268	3.65848E-001	-3.00346E-006	0.00000E+000	3.67000E-001	-7.79272E-004	10	..........a	-327.74
	140	0.282	3.58798E-001	-3.46298E-006	0.00000E+000	3.60000E-001	-8.54272E-004	10	..........a	-327.74
	147	0.296	3.51748E-001	-3.63008E-006	0.00000E+000	3.53000E-001	-8.29272E-004	10	..........a	-327.74
	154	0.31	3.44831E-001	-3.88073E-006	0.00000E+000	3.46000E-001	-8.20939E-004	10	..........a	-327.74
	161	0.324	3.37852E-001	-3.25411E-006	0.00000E+000	3.39000E-001	-8.54272E-004	10	..........a	-327.74
	168	0.338	3.30848E-001	-3.96428E-006	0.00000E+000	3.32000E-001	-8.87605E-004	10	..........a	-327.74
	175	0.352	3.23719E-001	-4.00606E-006	0.00000E+000	3.25000E-001	-8.20939E-004	10	..........a	-327.74
	182	0.366	3.16844E-001	-4.04783E-006	0.00000E+000	3.18000E-001	-8.20939E-004	10	..........a	-327.74
	189	0.38	3.09860E-001	-3.79718E-006	0.00000E+000	3.11000E-001	-8.04272E-004	10	..........a	-327.74
	196	0.394	3.02823E-001	-3.88073E-006	0.00000E+000	3.04000E-001	-8.29272E-004	10	..........a	-327.74
	203	0.408	2.95727E-001	-4.21493E-006	0.00000E+000	2.97000E-001	-8.45939E-004	10	..........a	-327.74
	210	0.422	2.88839E-001	-3.92251E-006	0.00000E+000	2.90000E-001	-8.37606E-004	10	..........a	-327.74
	217	0.436	2.81844E-001	-4.13138E-006	0.00000E+000	2.83000E-001	-8.29272E-004	10	..........a	-327.74
	224	0.45	2.74844E-001	-4.17316E-006	0.00000E+000	2.76000E-001	-8.54272E-004	10	..........a	-327.74
	231	0.464	2.67835E-001	-4.38203E-006	0.00000E+000	2.69000E-001	-8.37606E-004	10	..........a	-327.74
	238	0.478	2.60831E-001	-4.42380E-006	0.00000E+000	2.62000E-001	-8.20939E-004	10	..........a	-327.74
	245	0.492	2.53910E-001	-4.29848E-006	0.00000E+000	2.55000E-001	-8.04272E-004	10	..........a	-327.74
	252	0.506	2.46831E-001	-4.13138E-006	0.00000E+000	2.48000E-001	-8.95939E-004	10	..........a	-327.74
	259	0.52	2.39831E-001	-4.17316E-006	0.00000E+000	2.41000E-001	-8.04272E-004	10	..........a	-327.74
	266	0.534	2.32931E-001	-4.38203E-006	0.00000E+000	2.34000E-001	-8.70939E-004	10	..........a	-327.74
	273	0.548	2.25856E-001	-3.92251E-006	0.00000E+000	2.27000E-001	-8.37606E-004	10	..........a	-327.74
	280	0.562	2.18889E-001	-4.13138E-006	0.00000E+000	2.20000E-001	-8.62605E-004	10	..........a	-327.74
	287	0.576	2.11864E-001	-4.21493E-006	0.00000E+000	2.13000E-001	-7.79272E-004	10	..........a	-327.74
	294	0.59	2.04898E-001	-4.13138E-006	0.00000E+000	2.06000E-001	-8.04272E-004	10	..........a	-327.74
	301	0.604	1.97869E-001	-4.21493E-006	0.00000E+000	1.99000E-001	-8.12605E-004	10	..........a	-327.74
	308	0.618	1.90885E-001	-4.04783E-006	0.00000E+000	1.92000E-001	-8.62605E-004	10	..........a	-327.74
	315	0.632	1.83873E-001	-4.46558E-006	0.00000E+000	1.85000E-001	-8.29272E-004	10	..........a	-327.74
	322	0.646	1.76944E-001	-4.54913E-006	0.00000E+000	1.78000E-001	-8.29272E-004	10	..........a	-327.74
	329	0.66	1.69802E-001	-4.25670E-006	0.00000E+000	1.71000E-001	-8.87605E-004	10	..........a	-327.74
	336	0.674	1.62914E-001	-4.21493E-006	0.00000E+000	1.64000E-001	-8.70939E-004	10	..........a	-327.74
	343	0.688	1.55839E-001	-4.21493E-006	0.00000E+000	1.57000E-001	-8.62605E-004	10	..........a	-327.74
	350	0.702	1.48889E-001	-4.29848E-006	0.00000E+000	1.50000E-001	-8.70939E-004	10	..........a	-327.74
	357	0.716	1.41927E-001	-3.96428E-006	0.00000E+000	1.43000E-001	-8.54272E-004	10	..........a	-327.74
	364	0.73	1.34919E-001	-4.38203E-006	0.00000E+000	1.36000E-001	-8.45939E-004	10	..........a	-327.74
	371	0.744	1.27910E-001	-4.25670E-006	0.00000E+000	1.29000E-001	-8.12605E-004	10	..........a	-327.74
	378	0.758	1.20981E-001	-4.79978E-006	0.00000E+000	1.22000E-001	-8.29272E-004	10	..........a	-327.74
	385	0.772	1.13923E-001	-4.38203E-006	0.00000E+000	1.15000E-001	-7.87605E-004	10	..........a	-327.74
	392	0.786	1.06935E-001	-4.75800E-006	0.00000E+000	1.08000E-001	-8.29272E-004	10	..........a	-327.74
	399	0.8	9.98936E-002	-4.59090E-006	0.00000E+000	1.01000E-001	-8.45939E-004	10	..........a	-327.74
	406	0.814	9.28727E-002	-4.50735E-006	0.00000E+000	9.40000E-002	-8.45939E-004	10	..........a	-327.74
	413	0.828	8.59769E-002	-4.42380E-006	0.00000E+000	8.70000E-002	-9.04272E-004	10	..........a	-327.74
	420	0.842	7.89186E-002	-4.59090E-006	0.00000E+000	8.00000E-002	-8.37606E-004	10	..........a	-327.74
	427	0.856	7.18936E-002	-4.42380E-006	0.00000E+000	7.30000E-002	-8.70939E-004	10	..........a	-327.74
	434	0.87	6.50144E-002	-4.50735E-006	0.00000E+000	6.60000E-002	-8.45939E-004	10	..........a	-327.74
	441	0.884	5.79477E-002	-4.71623E-006	0.00000E+000	5.90000E-002	-8.87605E-004	10	..........a	-327.74
	448	0.898	5.09019E-002	-4.38203E-006	0.00000E+000	5.20000E-002	-8.29272E-004	10	..........a	-327.74
	455	0.912	4.39436E-002	-4.54913E-006	0.00000E+000	4.50000E-002	-8.79272E-004	10	..........a	-327.74
	462	0.926	3.69102E-002	-4.42380E-006	0.00000E+000	3.80000E-002	-8.37606E-004	10	..........a	-327.74
	469	0.94	2.99644E-002	-4.63268E-006	0.00000E+000	3.10000E-002	-8.54272E-004	10	..........a	-327.74
	476	0.954	2.29144E-002	-4.50735E-006	0.00000E+000	2.40000E-002	-8.37606E-004	10	..........a	-327.74
	483	0.968	1.58436E-002	-4.63268E-006	0.00000E+000	1.70000E-002	-8.45939E-004	10	..........a	-327.74
	490	0.982	8.98106E-003	-4.25670E-006	0.00000E+000	9.99999E-003	-7.87605E-004	10	..........a	-327.74
	497	0.996	1.96440E-003	-4.79978E-006	0.00000E+000	2.99999E-003	-8.20939E-004	10	..........a	-327.74
	504	1.01	-5.06894E-003	-4.59090E-006	0.00000E+000	-4.00001E-003	-7.95939E-004	10	..........a	-327.74
	511	1.024	-1.21106E-002	-4.84155E-006	0.00000E+000	-1.10000E-002	-8.45939E-004	10	..........a	-327.74
	518	1.038	-1.90523E-002	-4.75800E-006	0.00000E+000	-1.80000E-002	-8.54272E-004	10	..........a	-327.74
	525	1.052	-2.60439E-002	-4.50735E-006	0.00000E+000	-2.50000E-002	-8.87605E-004	10	..........a	-327.74
	532	1.066	-3.30606E-002	-4.59090E-006	0.00000E+000	-3.20000E-002	-7.95939E-004	10	..........a	-327.74
	539	1.08	-4.00231E-002	-4.92510E-006	0.00000E+000	-3.90000E-002	-7.79272E-004	10	..........a	-327.74
	546	1.094	-4.70023E-002	-4.96688E-006	0.00000E+000	-4.60000E-002	-8.04272E-004	10	..........a	-327.74
	553	1.108	-5.40189E-002	-5.00865E-006	0.00000E+000	-5.30000E-002	-8.04272E-004	10	..........a	-327.74
	560	1.122	-6.10481E-002	-5.17575E-006	0.00000E+000	-6.00000E-002	-8.45939E-004	10	..........a	-327.74
	567	1.136	-6.80231E-002	-4.79978E-006	0.00000E+000	-6.70000E-002	-8.29272E-004	10	..........a	-327.74
	574	1.15	-7.50398E-002	-4.84155E-006	0.00000E+000	-7.40000E-002	-8.37606E-004	10	..........a	-327.74
	581	1.164	-8.20106E-002	-5.00865E-006	0.00000E+000	-8.10000E-002	-8.20939E-004	10	..........a	-327.74
	588	1.178	-8.90356E-002	-4.96688E-006	0.00000E+000	-8.80000E-002	-8.70939E-004	10	..........a	-327.74
	595	1.192	-9.60106E-002	-5.05043E-006	0.00000E+000	-9.50000E-002	-7.70939E-004	10	..........a	-327.74
	602	1.206	-1.02956E-001	-4.88333E-006	0.00000E+000	-1.02000E-001	-8.12605E-004	10	..........a	-327.74
	609	1.22	-1.10019E-001	-4.79978E-006	0.00000E+000	-1.09000E-001	-8.12605E-004	10	..........a	-327.74
	616	1.234	-1.16981E-001	-5.09220E-006	0.00000E+000	-1.16000E-001	-8.29272E-004	10	..........a	-327.74
	623	1.248	-1.23969E-001	-4.84155E-006	0.00000E+000	-1.23000E-001	-8.12605E-004	10	..........a	-327.74
	630	1.262	-1.31061E-001	-4.79978E-006	0.00000E+000	-1.30000E-001	-8.45939E-004	10	..........a	-327.74
	637	1.276	-1.37986E-001	-4.96688E-006	0.00000E+000	-1.37000E-001	-7.95939E-004	10	..........a	-327.74
	644	1.29	-1.45015E-001	-4.79978E-006	0.00000E+000	-1.44000E-001	-8.70939E-004	10	..........a	-327.74
	651	1.304	-1.51990E-001	-5.17575E-006	0.00000E+000	-1.51000E-001	-7.95939E-004	10	..........a	-327.74
	658	1.318	-1.58961E-001	-4.96688E-006	0.00000E+000	-1.58000E-001	-8.29272E-004	10	..........a	-327.74
	665	1.332	-1.65981E-001	-5.59350E-006	0.00000E+000	-1.65000E-001	-8.37606E-004	10	..........a	-327.74
	672	1.346	-1.73015E-001	-5.38462E-006	0.00000E+000	-1.72000E-001	-7.79272E-004	10	..........a	-327.74
	679	1.36	-1.79956E-001	-5.46817E-006	0.00000E+000	-1.79000E-001	-8.37606E-004	10	..........a	-327.74
	686	1.374	-1.87040E-001	-5.71882E-006	0.00000E+000	-1.86000E-001	-8.29272E-004	10	..........a	-327.74
	693	1.388	-1.93952E-001	-5.25930E-006	0.00000E+000	-1.93000E-001	-8.12605E-004	10	..........a	-327.74
	700	1.402	-2.00965E-001	-5.46817E-006	0.00000E+000	-2.00000E-001	-8.54272E-004	10	..........a	-327.74
	707	1.416	-2.07986E-001	-6.22012E-006	0.00000E+000	-2.07000E-001	-7.79272E-004	10	..........a	-327.74
	714	1.43	-2.14915E-001	-5.80237E-006	0.00000E+000	-2.14000E-001	-7.95939E-004	10	..........a	-327.74
	721	1.444	-2.21948E-001	-6.80496E-006	0.00000E+000	-2.21000E-001	-8.20939E-004	10	..........a	-327.74
	728	1.458	-2.28915E-001	-7.13916E-006	0.00000E+000	-2.28000E-001	-8.29272E-004	10	..........a	-327.74
	735	1.472	-2.35898E-001	-7.97466E-006	0.00000E+000	-2.35000E-001	-7.95939E-004	10	..........a	-327.74
	742	1.486	-2.42931E-001	-8.09998E-006	0.00000E+000	-2.42000E-001	-8.62605E-004	10	..........a	-327.74
	749	1.5	-2.49998E-001	-8.85193E-006	0.00000E+000	-2.49000E-001	-8.04272E-004	10	..........a	-327.74
	756	1.514	-2.56969E-001	-9.14435E-006	0.00000E+000	-2.56000E-001	-8.54272E-004	10	..........a	-327.74
	763	1.528	-2.63948E-001	-9.72920E-006	0.00000E+000	-2.63000E-001	-8.45939E-004	10	..........a	-327.74
	770	1.542	-2.70869E-001	-1.01052E-005	0.00000E+000	-2.70000E-001	-8.04272E-004	10	..........a	-327.74
	777	1.556	-2.77973E-001	-1.14837E-005	0.00000E+000	-2.77000E-001	-8.45939E-004	10	..........a	-327.74
	784	1.57	-2.84952E-001	-1.19850E-005	0.00000E+000	-2.84000E-001	-8.54272E-004	10	..........a	-327.74
	791	1.584	-2.91856E-001	-1.26534E-005	0.00000E+000	-2.91000E-001	-8.54272E-004	10	..........a	-327.74
	798	1.598	-2.98923E-001	-1.31130E-005	0.00000E+000	-2.98000E-001	-8.70939E-004	10	..........a	-327.74
	805	1.612	-3.05890E-001	-1.41991E-005	0.00000E+000	-3.05000E-001	-8.04272E-004	10	..........a	-327.74
	812	1.626	-3.12865E-001	-1.51181E-005	0.00000E+000	-3.12000E-001	-8.20939E-004	10	..........a	-327.74
	819	1.64	-3.19890E-001	-1.61625E-005	0.00000E+000	-3.19000E-001	-8.62605E-004	10	..........a	-327.74
	826	1.654	-3.26865E-001	-1.73322E-005	0.00000E+000	-3.26000E-001	-7.87605E-004	10	..........a	-327.74
	833	1.668	-3.33906E-001	-1.90867E-005	0.00000E+000	-3.33000E-001	-7.79272E-004	10	..........a	-327.74
	840	1.682	-3.40923E-001	-2.00476E-005	0.00000E+000	-3.40000E-001	-9.04272E-004	10	..........a	-327.74
	847	1.696	-3.47886E-001	-2.07577E-005	0.00000E+000	-3.47000E-001	-8.70939E-004	10	..........a	-327.74
	854	1.71	-3.54877E-001	-2.23869E-005	0.00000E+000	-3.54000E-001	-8.04272E-004	10	..........a	-327.74
	861	1.724	-3.61831E-001	-2.33895E-005	0.00000E+000	-3.61000E-001	-8.29272E-004	10	..........a	-327.74
	868	1.738	-3.68877E-001	-2.40997E-005	0.00000E+000	-3.68000E-001	-8.70939E-004	10	..........a	-327.74
	875	1.752	-3.75894E-001	-2.52276E-005	0.00000E+000	-3.75000E-001	-8.20939E-004	10	..........a	-327.74
	882	1.766	-3.82869E-001	-2.61467E-005	0.00000E+000	-3.82000E-001	-8.29272E-004	10	..........a	-327.74
	889	1.78	-3.89919E-001	-2.74417E-005	0.00000E+000	-3.89000E-001	-8.20939E-004	10	..........a	-327.74
	896	1.794	-3.96902E-001	-2.84861E-005	0.00000E+000	-3.96000E-001	-7.95939E-004	10	..........a	-327.74
	903	1.808	-4.03823E-001	-2.98229E-005	0.00000E+000	-4.03000E-001	-7.79272E-004	10	..........a	-327.74
	910	1.822	-4.10831E-001	-3.14103E-005	0.00000E+000	-4.10000E-001	-7.87605E-004	10	..........a	-327.74
	917	1.836	-4.17944E-001	-3.27471E-005	0.00000E+000	-4.17000E-001	-8.79272E-004	10	..........a	-327.74
	924	1.85	-4.24848E-001	-3.60891E-005	0.00000E+000	-4.24000E-001	-8.45939E-004	10	..........a	-327.74
	931	1.864	-4.31906E-001	-3.96399E-005	0.00000E+000	-4.31000E-001	-8.54272E-004	10	..........a	-327.74
	938	1.878	-4.38815E-001	-4.50289E-005	0.00000E+000	-4.38000E-001	-8.37606E-004	10	..........a	-327.74
	945	1.892	-4.45931E-001	-5.22141E-005	0.00000E+000	-4.45000E-001	-8.45939E-004	10	..........a	-327.74
	952	1.906	-4.52856E-001	-6.10704E-005	0.00000E+000	-4.52000E-001	-8.20939E-004	10	..........a	-327.74
	959	1.92	-4.59861E-001	-7.25584E-005	0.00000E+000	-4.59000E-001	-8.62605E-004	10	..........a	-327.74
	966	1.934	-4.66881E-001	-8.75138E-005	0.00000E+000	-4.66000E-001	-8.37606E-004	10	..........a	-327.74
	973	1.948	-4.73869E-001	-1.05978E-004	0.00000E+000	-4.73000E-001	-8.20939E-004	10	..........a	-327.74
	980	1.962	-4.80831E-001	-1.29832E-004	0.00000E+000	-4.80000E-001	-8.54272E-004	10	..........a	-327.74
	987	1.976	-4.87831E-001	-1.58907E-004	0.00000E+000	-4.87000E-001	-7.87605E-004	10	..........a	-327.74
	994	1.99	-4.94840E-001	-1.94917E-004	0.00000E+000	-4.94000E-001	-8.54272E-004	10	..........a	-327.74
	1001	2.004	-5.01856E-001	-2.37276E-004	0.00000E+000	-5.01000E-001	-7.79272E-004	10	..........a	-327.74
	1008	2.018	-5.08873E-001	-2.85234E-004	0.00000E+000	-5.08000E-001	-8.62605E-004	10	..........a	-327.74
	1015	2.032	-5.15823E-001	-3.39332E-004	0.00000E+000	-5.15000E-001	-8.29272E-004	10	..........a	-327.74
	1022	2.046	-5.22902E-001	-3.97608E-004	0.00000E+000	-5.22000E-001	-8.54272E-004	10	..........a	-327.74
	1029	2.06	-5.29848E-001	-4.55299E-004	0.00000E+000	-5.29000E-001	-8.29272E-004	10	..........a	-327.74
	1036	2.074	-5.36831E-001	-5.09021E-004	0.00000E+000	-5.36000E-001	-8.20939E-004	10	..........a	-327.74
	1043	2.088	-5.43898E-001	-5.55391E-004	0.00000E+000	-5.43000E-001	-8.29272E-004	10	..........a	-327.74
	1050	2.102	-5.50831E-001	-5.90524E-004	0.00000E+000	-5.50000E-001	-8.54272E-004	10	..........a	-327.74
	1057	2.116	-5.57840E-001	-6.12121E-004	0.00000E+000	-5.57000E-001	-7.95939E-004	10	..........a	-327.74
	1064	2.13	-5.64806E-001	-6.17092E-004	0.00000E+000	-5.64000E-001	-8.45939E-004	10	..........a	-327.74
	1071	2.144	-5.71706E-001	-6.06607E-004	0.00000E+000	-5.71000E-001	-8.62605E-004	10	..........a	-327.74
	1078	2.158	-5.78802E-001	-5.82921E-004	0.00000E+000	-5.78000E-001	-8.54272E-004	10	..........a	-327.74
	1085	2.172	-5.85806E-001	-5.51673E-004	0.00000E+000	-5.85000E-001	-8.20939E-004	10	..........a	-327.74
	1092	2.186	-5.92777E-001	-5.19799E-004	0.00000E+000	-5.92000E-001	-8.54272E-004	10	..........a	-327.74
	1099	2.2	-5.99869E-001	-4.89387E-004	0.00000E+000	-5.99000E-001	-8.62605E-004	10	..........a	-327.74
	1106	2.214	-6.06802E-001	-4.62567E-004	0.00000E+000	-6.06000E-001	-8.29272E-004	10	..........a	-327.74
	1113	2.228	-6.13840E-001	-4.38839E-004	0.00000E+000	-6.13000E-001	-8.54272E-004	10	..........a	-327.74
	1120	2.242	-6.20794E-001	-4.17952E-004	0.00000E+000	-6.20000E-001	-8.04272E-004	10	..........a	-327.74
	1127	2.256	-6.27719E-001	-3.99780E-004	0.00000E+000	-6.27000E-001	-8.29272E-004	10	..........a	-327.74
	1134	2.27	-6.34769E-001	-3.84073E-004	0.00000E+000	-6.34000E-001	-8.20939E-004	10	..........a	-327.74
	1141	2.284	-6.41752E-001	-3.69995E-004	0.00000E+000	-6.41000E-001	-8.29272E-004	10	..........a	-327.74
	1148	2.298	-6.48798E-001	-3.57671E-004	0.00000E+000	-6.48000E-001	-8.37606E-004	10	..........a	-327.74
	1155	2.312	-6.55798E-001	-3.46768E-004	0.00000E+000	-6.55000E-001	-8.62605E-004	10	..........a	-327.74
	1162	2.326	-6.62740E-001	-3.36700E-004	0.00000E+000	-6.62000E-001	-8.62605E-004	10	..........a	-327.74
	1169	2.34	-6.69673E-001	-3.27593E-004	0.00000E+000	-6.69000E-001	-8.20939E-004	10	..........a	-327.74
	1176	2.354	-6.76806E-001	-3.18695E-004	0.00000E+000	-6.76000E-001	-8.37606E-004	10	..........a	-327.74
	1183	2.368	-6.83781E-001	-3.11176E-004	0.00000E+000	-6.83000E-001	-8.37606E-004	10	..........a	-327.74
	1190	2.382	-6.90740E-001	-3.03573E-004	0.00000E+000	-6.90000E-001	-8.37606E-004	10	..........a	-327.74
	1197	2.396	-6.97706E-001	-2.96638E-004	0.00000E+000	-6.97000E-001	-8.04272E-004	10	..........a	-327.74
	1204	2.41	-7.04736E-001	-2.89871E-004	0.00000E+000	-7.04000E-001	-8.37606E-004	10	..........a	-327.74
	1211	2.424	-7.11727E-001	-2.83604E-004	0.00000E+000	-7.11000E-001	-8.45939E-004	10	..........a	-327.74
	1218	2.438	-7.18727E-001	-2.77923E-004	0.00000E+000	-7.18000E-001	-7.54272E-004	10	..........a	-327.74
	1225	2.452	-7.25748E-001	-2.72701E-004	0.00000E+000	-7.25000E-001	-8.29272E-004	10	..........a	-327.74
	1232	2.466	-7.32736E-001	-2.67521E-004	0.00000E+000	-7.32000E-001	-8.87605E-004	10	..........a	-327.74
	1239	2.48	-7.39731E-001	-2.62550E-004	0.00000E+000	-7.39000E-001	-7.95939E-004	10	..........a	-327.74
	1246	2.494	-7.46715E-001	-2.57621E-004	0.00000E+000	-7.46000E-001	-8.87605E-004	10	..........a	-327.74
	1253	2.508	-7.53823E-001	-2.53485E-004	0.00000E+000	-7.53000E-001	-8.12605E-004	10	..........a	-327.74
	1260	2.522	-7.60702E-001	-2.49349E-004	0.00000E+000	-7.60000E-001	-8.04272E-004	10	..........a	-327.74
	1267	2.536	-7.67761E-001	-2.45381E-004	0.00000E+000	-7.67000E-001	-8.45939E-004	10	..........a	-327.74
	1274	2.55	-7.74715E-001	-2.41871E-004	0.00000E+000	-7.74000E-001	-7.87605E-004	10	..........a	-327.74
	1281	2.564	-7.81740E-001	-2.38655E-004	0.00000E+000	-7.81000E-001	-7.95939E-004	10	..........a	-327.74
	1288	2.578	-7.88719E-001	-2.35020E-004	0.00000E+000	-7.88000E-001	-8.29272E-004	10	..........a	-327.74
	1295	2.592	-7.95665E-001	-2.31678E-004	0.00000E+000	-7.95000E-001	-7.70939E-004	10	..........a	-327.74
	1302	2.606	-8.02727E-001	-2.28796E-004	0.00000E+000	-8.02000E-001	-7.79272E-004	10	..........a	-327.74
	1309	2.62	-8.09711E-001	-2.25454E-004	0.00000E+000	-8.09000E-001	-8.45939E-004	10	..........a	-327.74
	1316	2.634	-8.16656E-001	-2.23031E-004	0.00000E+000	-8.16000E-001	-8.29272E-004	10	..........a	-327.74
	1323	2.648	-8.23640E-001	-2.20566E-004	0.00000E+000	-8.23000E-001	-8.12605E-004	10	..........a	-327.74
	1330	2.662	-8.30677E-001	-2.17475E-004	0.00000E+000	-8.30000E-001	-8.04272E-004	10	..........a	-327.74
	1337	2.676	-8.37619E-001	-2.15136E-004	0.00000E+000	-8.37000E-001	-8.20939E-004	10	..........a	-327.74
	1344	2.69	-8.44681E-001	-2.12546E-004	0.00000E+000	-8.44000E-001	-8.95939E-004	10	..........a	-327.74
	1351	2.704	-8.51619E-001	-2.10499E-004	0.00000E+000	-8.51000E-001	-8.45939E-004	10	..........a	-327.74
	1358	2.718	-8.58636E-001	-2.08452E-004	0.00000E+000	-8.58000E-001	-8.87605E-004	10	..........a	-327.74
	1365	2.732	-8.65640E-001	-2.05778E-004	0.00000E+000	-8.65000E-001	-7.70939E-004	10	..........a	-327.74
	1372	2.746	-8.72569E-001	-2.03898E-004	0.00000E+000	-8.72000E-001	-8.45939E-004	10	..........a	-327.74
	1379	2.76	-8.79681E-001	-2.01977E-004	0.00000E+000	-8.79000E-001	-7.87605E-004	10	..........a	-327.74
	1386	2.774	-8.86619E-001	-2.00097E-004	0.00000E+000	-8.86000E-001	-8.54272E-004	10	..........a	-327.74
	1393	2.788	-8.93661E-001	-1.97799E-004	0.00000E+000	-8.93000E-001	-9.12605E-004	10	..........a	-327.74
	1400	2.802	-9.00665E-001	-1.96337E-004	0.00000E+000	-9.00000E-001	-8.45939E-004	10	..........a	-327.74
	1407	2.816	-9.07644E-001	-1.94750E-004	0.00000E+000	-9.07000E-001	-8.29272E-004	10	..........a	-327.74
	1414	2.83	-9.14640E-001	-1.92995E-004	0.00000E+000	-9.14000E-001	-8.70939E-004	10	..........a	-327.74
	1421	2.844	-9.21581E-001	-1.91157E-004	0.00000E+000	-9.21000E-001	-8.29272E-004	10	..........a	-327.74
	1428	2.858	-9.28519E-001	-1.89653E-004	0.00000E+000	-9.28000E-001	-8.20939E-004	10	..........a	-327.74
	1435	2.872	-9.35648E-001	-1.88191E-004	0.00000E+000	-9.35000E-001	-8.54272E-004	10	..........a	-327.74
	1442	2.886	-9.42636E-001	-1.86520E-004	0.00000E+000	-9.42000E-001	-8.54272E-004	10	..........a	-327.74
	1449	2.9	-9.49573E-001	-1.85141E-004	0.00000E+000	-9.49000E-001	-8.37606E-004	10	..........a	-327.74
	1456	2.914	-9.56702E-001	-1.84222E-004	0.00000E+000	-9.56000E-001	-8.20939E-004	10	..........a	-327.74
	1463	2.928	-9.63590E-001	-1.82468E-004	0.00000E+000	-9.63000E-001	-8.37606E-004	10	..........a	-327.74
	1470	2.942	-9.70669E-001	-1.81173E-004	0.00000E+000	-9.70000E-001	-8.04272E-004	10	..........a	-327.74
	1477	2.956	-9.77611E-001	-1.79711E-004	0.00000E+000	-9.77000E-001	-8.29272E-004	10	..........a	-327.74
	1484	2.97	-9.84565E-001	-1.79000E-004	0.00000E+000	-9.84000E-001	-7.79272E-004	10	..........a	-327.74
	1491	2.984	-9.91598E-001	-1.77121E-004	0.00000E+000	-9.91000E-001	-8.04272E-004	10	..........a	-327.74
	1498	2.998	-9.98561E-001	-1.76828E-004	0.00000E+000	-9.98000E-001	-8.04272E-004	10	..........a	-327.74
	1505	3.012	-9.95586E-001	-1.69183E-004	0.00000E+000	-9.95000E-001	-8.29272E-004	10	..........a	-327.74
	1512	3.026	-9.88586E-001	-1.64588E-004	0.00000E+000	-9.88000E-001	-7.70939E-004	10	..........a	-327.74
	1519	3.04	-9.81602E-001	-1.61413E-004	0.00000E+000	-9.81000E-001	-8.20939E-004	10	..........a	-327.74
	1526	3.054	-9.74556E-001	-1.59157E-004	0.00000E+000	-9.74000E-001	-8.29272E-004	10	..........a	-327.74
	1533	3.068	-9.67602E-001	-1.57111E-004	0.00000E+000	-9.67000E-001	-8.95939E-004	10	..........a	-327.74
	1540	3.082	-9.60586E-001	-1.55189E-004	0.00000E+000	-9.60000E-001	-8.04272E-004	10	..........a	-327.74
	1547	3.096	-9.53652E-001	-1.53894E-004	0.00000E+000	-9.53000E-001	-8.20939E-004	10	..........a	-327.74
	1554	3.11	-9.46569E-001	-1.52098E-004	0.00000E+000	-9.46000E-001	-8.29272E-004	10	..........a	-327.74
	1561	3.124	-9.39573E-001	-1.50510E-004	0.00000E+000	-9.39000E-001	-7.37606E-004	10	..........a	-327.74
	1568	3.138	-9.32706E-001	-1.49090E-004	0.00000E+000	-9.32000E-001	-8.04272E-004	10	..........a	-327.74
	1575	3.152	-9.25681E-001	-1.48004E-004	0.00000E+000	-9.25000E-001	-8.54272E-004	10	..........a	-327.74
	1582	3.166	-9.18661E-001	-1.46583E-004	0.00000E+000	-9.18000E-001	-8.20939E-004	10	..........a	-327.74
	1589	3.18	-9.11623E-001	-1.45121E-004	0.00000E+000	-9.11000E-001	-8.45939E-004	10	..........a	-327.74
	1596	3.194	-9.04536E-001	-1.44369E-004	0.00000E+000	-9.04000E-001	-8.37606E-004	10	..........a	-327.74
	1603	3.208	-8.97644E-001	-1.43408E-004	0.00000E+000	-8.97000E-001	-8.12605E-004	10	..........a	-327.74
	1610	3.222	-8.90656E-001	-1.41529E-004	0.00000E+000	-8.90000E-001	-8.45939E-004	10	..........a	-327.74
	1617	3.236	-8.83661E-001	-1.40735E-004	0.00000E+000	-8.83000E-001	-8.70939E-004	10	..........a	-327.74
	1624	3.25	-8.76706E-001	-1.40150E-004	0.00000E+000	-8.76000E-001	-8.12605E-004	10	..........a	-327.74
	1631	3.264	-8.69698E-001	-1.39106E-004	0.00000E+000	-8.69000E-001	-8.87605E-004	10	..........a	-327.74
	1638	3.278	-8.62661E-001	-1.37894E-004	0.00000E+000	-8.62000E-001	-8.37606E-004	10	..........a	-327.74
	1645	3.292	-8.55694E-001	-1.36683E-004	0.00000E+000	-8.55000E-001	-7.87605E-004	10	..........a	-327.74
	1652	3.306	-8.48594E-001	-1.35889E-004	0.00000E+000	-8.48000E-001	-8.37606E-004	10	..........a	-327.74
	1659	3.32	-8.41673E-001	-1.35555E-004	0.00000E+000	-8.41000E-001	-8.29272E-004	10	..........a	-327.74
	1666	3.334	-8.34640E-001	-1.33842E-004	0.00000E+000	-8.34000E-001	-8.37606E-004	10	..........a	-327.74
	1673	3.348	-8.27723E-001	-1.32881E-004	0.00000E+000	-8.27000E-001	-8.37606E-004	10	..........a	-327.74
	1680	3.362	-8.20690E-001	-1.32004E-004	0.00000E+000	-8.20000E-001	-8.37606E-004	10	..........a	-327.74
	1687	3.376	-8.13765E-001	-1.31335E-004	0.00000E+000	-8.13000E-001	-8.29272E-004	10	..........a	-327.74
	1694	3.39	-8.06706E-001	-1.30500E-004	0.00000E+000	-8.06000E-001	-8.12605E-004	10	..........a	-327.74
	1701	3.404	-7.99752E-001	-1.29330E-004	0.00000E+000	-7.99000E-001	-7.95939E-004	10	..........a	-327.74
	1708	3.418	-7.92694E-001	-1.28662E-004	0.00000E+000	-7.92000E-001	-8.29272E-004	10	..........a	-327.74
	1715	3.432	-7.85669E-001	-1.27200E-004	0.00000E+000	-7.85000E-001	-8.62605E-004	10	..........a	-327.74
	1722	3.446	-7.78698E-001	-1.26949E-004	0.00000E+000	-7.78000E-001	-8.12605E-004	10	..........a	-327.74
	1729	3.46	-7.71665E-001	-1.26030E-004	0.00000E+000	-7.71000E-001	-8.12605E-004	10	..........a	-327.74
	1736	3.474	-7.64756E-001	-1.25529E-004	0.00000E+000	-7.64000E-001	-8.12605E-004	10	..........a	-327.74
	1743	3.488	-7.57786E-001	-1.24693E-004	0.00000E+000	-7.57000E-001	-8.62605E-004	10	..........a	-327.74
	1750	3.502	-7.50736E-001	-1.24108E-004	0.00000E+000	-7.50000E-001	-8.20939E-004	10	..........a	-327.74
	1757	3.516	-7.43736E-001	-1.23022E-004	0.00000E+000	-7.43000E-001	-8.12605E-004	10	..........a	-327.74
	1764	3.53	-7.36706E-001	-1.22062E-004	0.00000E+000	-7.36000E-001	-8.04272E-004	10	..........a	-327.74
	1771	3.544	-7.29727E-001	-1.21351E-004	0.00000E+000	-7.29000E-001	-8.12605E-004	10	..........a	-327.74
	1778	3.558	-7.22740E-001	-1.20307E-004	0.00000E+000	-7.22000E-001	-8.04272E-004	10	..........a	-327.74
	1785	3.572	-7.15744E-001	-1.19221E-004	0.00000E+000	-7.15000E-001	-8.12605E-004	10	..........a	-327.74
	1792	3.586	-7.08740E-001	-1.18511E-004	0.00000E+000	-7.08000E-001	-8.20939E-004	10	..........a	-327.74
	1799	3.6	-7.01811E-001	-1.17759E-004	0.00000E+000	-7.01000E-001	-8.70939E-004	10	..........a	-327.74
	1806	3.614	-6.94752E-001	-1.16547E-004	0.00000E+000	-6.94000E-001	-8.62605E-004	10	..........a	-327.74
	1813	3.628	-6.87781E-001	-1.15628E-004	0.00000E+000	-6.87000E-001	-8.37606E-004	10	..........a	-327.74
	1820	3.642	-6.80756E-001	-1.14542E-004	0.00000E+000	-6.80000E-001	-8.29272E-004	10	..........a	-327.74
	1827	3.656	-6.73786E-001	-1.13372E-004	0.00000E+000	-6.73000E-001	-8.45939E-004	10	..........a	-327.74
	1834	3.67	-6.66736E-001	-1.12495E-004	0.00000E+000	-6.66000E-001	-7.95939E-004	10	..........a	-327.74
	1841	3.684	-6.59736E-001	-1.10908E-004	0.00000E+000	-6.59000E-001	-8.45939E-004	10	..........a	-327.74
	1848	3.698	-6.52744E-001	-1.09111E-004	0.00000E+000	-6.52000E-001	-8.12605E-004	10	..........a	-327.74
	1855	3.712	-6.45861E-001	-1.07649E-004	0.00000E+000	-6.45000E-001	-8.12605E-004	10	..........a	-327.74
	1862	3.726	-6.38790E-001	-1.05769E-004	0.00000E+000	-6.38000E-001	-8.45939E-004	10	..........a	-327.74
	1869	3.74	-6.31831E-001	-1.03388E-004	0.00000E+000	-6.31000E-001	-7.87605E-004	10	..........a	-327.74
	1876	3.754	-6.24831E-001	-1.00380E-004	0.00000E+000	-6.24000E-001	-7.79272E-004	10	..........a	-327.74
	1883	3.768	-6.17798E-001	-9.72891E-005	0.00000E+000	-6.17000E-001	-8.04272E-004	10	..........a	-327.74
	1890	3.782	-6.10827E-001	-9.33205E-005	0.00000E+000	-6.10000E-001	-7.95939E-004	10	..........a	-327.74
	1897	3.796	-6.03773E-001	-8.79315E-005	0.00000E+000	-6.03000E-001	-7.79272E-004	10	..........a	-327.74
	1904	3.81	-5.96823E-001	-8.17906E-005	0.00000E+000	-5.96000E-001	-8.29272E-004	10	..........a	-327.74
	1911	3.824	-5.89831E-001	-7.39370E-005	0.00000E+000	-5.89000E-001	-7.87605E-004	10	..........a	-327.74
	1918	3.838	-5.82811E-001	-6.31173E-005	0.00000E+000	-5.82000E-001	-7.95939E-004	10	..........a	-327.74
	1925	3.852	-5.75819E-001	-4.87886E-005	0.00000E+000	-5.75000E-001	-8.62605E-004	10	..........a	-327.74
	1932	3.866	-5.68756E-001	-3.05330E-005	0.00000E+000	-5.68000E-001	-7.95939E-004	10	..........a	-327.74
	1939	3.88	-5.61815E-001	-6.05302E-006	0.00000E+000	-5.61000E-001	-7.95939E-004	10	..........a	-327.74
	1946	3.894	-5.54844E-001	2.58629E-005	0.00000E+000	-5.54000E-001	-8.62605E-004	10	..........a	-327.74
	1953	3.908	-5.47806E-001	6.85985E-005	0.00000E+000	-5.47000E-001	-8.37606E-004	10	..........a	-327.74
	1960	3.922	-5.40836E-001	1.21109E-004	0.00000E+000	-5.40000E-001	-8.62605E-004	10	..........a	-327.74
	1967	3.936	-5.33840E-001	1.84231E-004	0.00000E+000	-5.33000E-001	-8.62605E-004	10	..........a	-327.74
	1974	3.95	-5.26827E-001	2.52282E-004	0.00000E+000	-5.26000E-001	-8.62605E-004	10	..........a	-327.74
	1981	3.964	-5.19873E-001	3.17660E-004	0.00000E+000	-5.19000E-001	-8.29272E-004	10	..........a	-327.74
	1988	3.978	-5.12823E-001	3.72886E-004	0.00000E+000	-5.12000E-001	-8.62605E-004	10	..........a	-327.74
	1995	3.992	-5.05861E-001	4.13658E-004	0.00000E+000	-5.05000E-001	-8.79272E-004	10	..........a	-327.74
	2002	4.006	-4.98819E-001	4.35590E-004	0.00000E+000	-4.98000E-001	-8.45939E-004	10	..........a	-327.74
	2009	4.02	-4.91811E-001	4.40853E-004	0.00000E+000	-4.91000E-001	-8.37606E-004	10	..........a	-327.74
	2016	4.034	-4.84873E-001	4.33877E-004	0.00000E+000	-4.84000E-001	-7.95939E-004	10	..........a	-327.74
	2023	4.048	-4.77865E-001	4.18295E-004	0.00000E+000	-4.77000E-001	-8.29272E-004	10	..........a	-327.74
	2030	4.062	-4.70852E-001	3.98452E-004	0.00000E+000	-4.70000E-001	-8.20939E-004	10	..........a	-327.74
	2037	4.076	-4.63911E-001	3.76228E-004	0.00000E+000	-4.63000E-001	-8.45939E-004	10	..........a	-327.74
	2044	4.09	-4.56902E-001	3.53502E-004	0.00000E+000	-4.56000E-001	-8.45939E-004	10	..........a	-327.74
	2051	4.104	-4.49894E-001	3.32072E-004	0.00000E+000	-4.49000E-001	-8.87605E-004	10	..........a	-327.74
	2058	4.118	-4.42886E-001	3.11435E-004	0.00000E+000	-4.42000E-001	-8.70939E-004	10	..........a	-327.74
	2065	4.132	-4.35802E-001	2.92636E-004	0.00000E+000	-4.35000E-001	-8.95939E-004	10	..........a	-327.74
	2072	4.146	-4.28881E-001	2.74924E-004	0.00000E+000	-4.28000E-001	-8.29272E-004	10	..........a	-327.74
	2079	4.16	-4.21877E-001	2.59217E-004	0.00000E+000	-4.21000E-001	-8.54272E-004	10	..........a	-327.74
	2086	4.174	-4.14844E-001	2.44846E-004	0.00000E+000	-4.14000E-001	-8.79272E-004	10	..........a	-327.74
	2093	4.188	-4.07936E-001	2.32021E-004	0.00000E+000	-4.07000E-001	-8.54272E-004	10	..........a	-327.74
	2100	4.202	-4.00873E-001	2.20241E-004	0.00000E+000	-4.00000E-001	-8.54272E-004	10	..........a	-327.74
	2107	4.216	-3.93836E-001	2.10048E-004	0.00000E+000	-3.93000E-001	-8.04272E-004	10	..........a	-327.74
	2114	4.23	-3.86915E-001	2.00481E-004	0.00000E+000	-3.86000E-001	-8.70939E-004	10	..........a	-327.74
	2121	4.244	-3.79840E-001	1.92335E-004	0.00000E+000	-3.79000E-001	-8.95939E-004	10	..........a	-327.74
	2128	4.258	-3.72890E-001	1.84649E-004	0.00000E+000	-3.72000E-001	-8.45939E-004	10	..........a	-327.74
	2135	4.272	-3.65890E-001	1.77422E-004	0.00000E+000	-3.65000E-001	-7.95939E-004	10	..........a	-327.74
	2142	4.286	-3.58869E-001	1.70821E-004	0.00000E+000	-3.58000E-001	-8.45939E-004	10	..........a	-327.74
	2149	4.3	-3.51886E-001	1.64931E-004	0.00000E+000	-3.51000E-001	-8.54272E-004	10	..........a	-327.74
	2156	4.314	-3.44936E-001	1.59542E-004	0.00000E+000	-3.44000E-001	-8.87605E-004	10	..........a	-327.74
	2163	4.328	-3.37881E-001	1.54195E-004	0.00000E+000	-3.37000E-001	-8.20939E-004	10	..........a	-327.74
	2170	4.342	-3.30927E-001	1.49266E-004	0.00000E+000	-3.30000E-001	-8.20939E-004	10	..........a	-327.74
	2177	4.356	-3.23865E-001	1.44963E-004	0.00000E+000	-3.23000E-001	-8.37606E-004	10	..........a	-327.74
	2184	4.37	-3.17023E-001	1.40702E-004	0.00000E+000	-3.16000E-001	-8.62605E-004	10	..........a	-327.74
	2191	4.384	-3.09844E-001	1.36733E-004	0.00000E+000	-3.09000E-001	-8.29272E-004	10	..........a	-327.74
	2198	4.398	-3.02936E-001	1.33015E-004	0.00000E+000	-3.02000E-001	-8.29272E-004	10	..........a	-327.74
	2205	4.412	-2.95919E-001	1.29631E-004	0.00000E+000	-2.95000E-001	-8.29272E-004	10	..........a	-327.74
	2212	4.426	-2.88965E-001	1.26498E-004	0.00000E+000	-2.88000E-001	-9.20939E-004	10	..........a	-327.74
	2219	4.44	-2.81944E-001	1.23574E-004	0.00000E+000	-2.81000E-001	-8.70939E-004	10	..........a	-327.74
	2226	4.454	-2.74952E-001	1.20316E-004	0.00000E+000	-2.74000E-001	-8.54272E-004	10	..........a	-327.74
	2233	4.468	-2.67894E-001	1.17350E-004	0.00000E+000	-2.67000E-001	-8.54272E-004	10	..........a	-327.74
	2240	4.482	-2.60927E-001	1.15136E-004	0.00000E+000	-2.60000E-001	-8.29272E-004	10	..........a	-327.74
	2247	4.496	-2.53927E-001	1.12378E-004	0.00000E+000	-2.53000E-001	-8.70939E-004	10	..........a	-327.74
	2254	4.51	-2.46902E-001	1.10164E-004	0.00000E+000	-2.46000E-001	-8.45939E-004	10	..........a	-327.74
	2261	4.524	-2.39956E-001	1.07950E-004	0.00000E+000	-2.39000E-001	-8.37606E-004	10	..........a	-327.74
	2268	4.538	-2.32898E-001	1.05068E-004	0.00000E+000	-2.32000E-001	-8.04272E-004	10	..........a	-327.74
	2275	4.552	-2.25965E-001	1.03815E-004	0.00000E+000	-2.25000E-001	-9.12605E-004	10	..........a	-327.74
	2282	4.566	-2.18952E-001	1.01350E-004	0.00000E+000	-2.18000E-001	-8.45939E-004	10	..........a	-327.74
	2289	4.58	-2.11852E-001	9.98877E-005	0.00000E+000	-2.11000E-001	-8.54272E-004	10	..........a	-327.74
	2296	4.594	-2.04931E-001	9.80497E-005	0.00000E+000	-2.04000E-001	-8.45939E-004	10	..........a	-327.74
	2303	4.608	-1.98015E-001	9.59191E-005	0.00000E+000	-1.97000E-001	-8.70939E-004	10	..........a	-327.74
	2310	4.622	-1.90952E-001	9.47077E-005	0.00000E+000	-1.90000E-001	-8.29272E-004	10	..........a	-327.74
	2317	4.636	-1.84002E-001	9.25772E-005	0.00000E+000	-1.83000E-001	-8.20939E-004	10	..........a	-327.74
	2324	4.65	-1.77040E-001	9.12821E-005	0.00000E+000	-1.76000E-001	-8.54272E-004	10	..........a	-327.74
	2331	4.664	-1.69973E-001	8.99454E-005	0.00000E+000	-1.69000E-001	-8.37606E-004	10	..........a	-327.74
	2338	4.678	-1.63036E-001	8.83579E-005	0.00000E+000	-1.62000E-001	-8.37606E-004	10	..........a	-327.74
	2345	4.692	-1.56031E-001	8.68540E-005	0.00000E+000	-1.55000E-001	-8.29272E-004	10	..........a	-327.74
	2352	4.706	-1.49023E-001	8.56008E-005	0.00000E+000	-1.48000E-001	-8.04272E-004	10	..........a	-327.74
	2359	4.72	-1.41994E-001	8.40551E-005	0.00000E+000	-1.41000E-001	-8.37606E-004	10	..........a	-327.74
	2366	4.734	-1.34956E-001	8.28854E-005	0.00000E+000	-1.34000E-001	-8.45939E-004	10	..........a	-327.74
	2373	4.748	-1.28011E-001	8.14233E-005	0.00000E+000	-1.27000E-001	-8.12605E-004	10	..........a	-327.74
	2380	4.762	-1.20961E-001	8.04207E-005	0.00000E+000	-1.20000E-001	-8.45939E-004	10	..........a	-327.74
	2387	4.776	-1.14011E-001	7.93763E-005	0.00000E+000	-1.13000E-001	-8.45939E-004	10	..........a	-327.74
	2394	4.79	-1.07011E-001	7.88333E-005	0.00000E+000	-1.06000E-001	-8.20939E-004	10	..........a	-327.74
	2401	4.804	-9.99648E-002	7.75383E-005	0.00000E+000	-9.90000E-002	-8.12605E-004	10	..........a	-327.74
	2408	4.818	-9.30398E-002	7.61179E-005	0.00000E+000	-9.20000E-002	-8.54272E-004	10	..........a	-327.74
	2415	4.832	-8.60439E-002	7.52406E-005	0.00000E+000	-8.50000E-002	-8.70939E-004	10	..........a	-327.74
	2422	4.846	-7.89606E-002	7.44887E-005	0.00000E+000	-7.80000E-002	-8.45939E-004	10	..........a	-327.74
	2429	4.86	-7.20273E-002	7.34026E-005	0.00000E+000	-7.10000E-002	-8.79272E-004	10	..........a	-327.74
	2436	4.874	-6.49523E-002	7.25671E-005	0.00000E+000	-6.40000E-002	-8.87605E-004	10	..........a	-327.74
	2443	4.888	-5.79981E-002	7.19822E-005	0.00000E+000	-5.70000E-002	-8.20939E-004	10	..........a	-327.74
	2450	4.902	-5.10564E-002	7.13556E-005	0.00000E+000	-5.00000E-002	-8.54272E-004	10	..........a	-327.74
	2457	4.916	-4.40314E-002	7.05619E-005	0.00000E+000	-4.30000E-002	-8.45939E-004	10	..........a	-327.74
	2464	4.93	-3.70898E-002	6.96428E-005	0.00000E+000	-3.60000E-002	-8.20939E-004	10	..........a	-327.74
	2471	4.944	-3.00523E-002	6.89326E-005	0.00000E+000	-2.90000E-002	-8.29272E-004	10	..........a	-327.74
	2478	4.958	-2.29898E-002	6.85567E-005	0.00000E+000	-2.20000E-002	-8.29272E-004	10	..........a	-327.74
	2485	4.972	-1.60648E-002	6.78883E-005	0.00000E+000	-1.50000E-002	-8.62605E-004	10	..........a	-327.74
	2492	4.986	-9.07310E-003	6.73870E-005	0.00000E+000	-8.00000E-003	-8.79272E-004	10	..........a	-327.74
	2499	5	-2.01477E-003	6.70946E-005	0.00000E+000	-1.00000E-003	-8.54272E-004	10	..........a	-327.74
	2506	5.014	4.98523E-003	6.66768E-005	0.00000E+000	5.99998E-003	-8.45939E-004	10	..........a	-327.74
	2513	5.028	1.19977E-002	6.57578E-005	0.00000E+000	1.30000E-002	-8.54272E-004	10	..........a	-327.74
	2520	5.042	1.90519E-002	6.53400E-005	0.00000E+000	2.00000E-002	-8.29272E-004	10	..........a	-327.74
	2527	5.056	2.59352E-002	6.47970E-005	0.00000E+000	2.70000E-002	-8.70939E-004	10	..........a	-327.74
	2534	5.07	3.30186E-002	6.42539E-005	0.00000E+000	3.40000E-002	-8.54272E-004	10	..........a	-327.74
	2541	5.084	3.99477E-002	6.39197E-005	0.00000E+000	4.10000E-002	-8.95939E-004	10	..........a	-327.74
	2548	5.098	4.69644E-002	6.30006E-005	0.00000E+000	4.80000E-002	-8.45939E-004	10	..........a	-327.74
	2555	5.112	5.39352E-002	6.28753E-005	0.00000E+000	5.50000E-002	-8.54272E-004	10	..........a	-327.74
	2562	5.126	6.09352E-002	6.22487E-005	0.00000E+000	6.20000E-002	-8.95939E-004	10	..........a	-327.74
	2569	5.14	6.78727E-002	6.15803E-005	0.00000E+000	6.90000E-002	-8.62605E-004	10	..........a	-327.74
	2576	5.154	7.49019E-002	6.06195E-005	0.00000E+000	7.60000E-002	-8.37606E-004	10	..........a	-327.74
	2583	5.168	8.19227E-002	5.95333E-005	0.00000E+000	8.30000E-002	-8.62605E-004	10	..........a	-327.74
	2590	5.182	8.89852E-002	5.90320E-005	0.00000E+000	9.00000E-002	-9.04272E-004	10	..........a	-327.74
	2597	5.196	9.58477E-002	5.88232E-005	0.00000E+000	9.70000E-002	-8.70939E-004	10	..........a	-327.74
	2604	5.21	1.02939E-001	5.76952E-005	0.00000E+000	1.04000E-001	-7.95939E-004	10	..........a	-327.74
	2611	5.224	1.09956E-001	5.68180E-005	0.00000E+000	1.11000E-001	-8.62605E-004	10	..........a	-327.74
	2618	5.238	1.16910E-001	5.59825E-005	0.00000E+000	1.18000E-001	-8.12605E-004	10	..........a	-327.74
	2625	5.252	1.23885E-001	5.53141E-005	0.00000E+000	1.25000E-001	-8.45939E-004	10	..........a	-327.74
	2632	5.266	1.30973E-001	5.51052E-005	0.00000E+000	1.32000E-001	-8.79272E-004	10	..........a	-327.74
	2639	5.28	1.37914E-001	5.39355E-005	0.00000E+000	1.39000E-001	-8.37606E-004	10	..........a	-327.74
	2646	5.294	1.45014E-001	5.29747E-005	0.00000E+000	1.46000E-001	-8.12605E-004	10	..........a	-327.74
	2653	5.308	1.51885E-001	5.21810E-005	0.00000E+000	1.53000E-001	-8.12605E-004	10	..........a	-327.74
	2660	5.322	1.58906E-001	5.18886E-005	0.00000E+000	1.60000E-001	-8.54272E-004	10	..........a	-327.74
	2667	5.336	1.65894E-001	5.13455E-005	0.00000E+000	1.67000E-001	-8.62605E-004	10	..........a	-327.74
	2674	5.35	1.72902E-001	5.04264E-005	0.00000E+000	1.74000E-001	-7.95939E-004	10	..........a	-327.74
	2681	5.364	1.79914E-001	4.98416E-005	0.00000E+000	1.81000E-001	-8.37606E-004	10	..........a	-327.74
	2688	5.378	1.86935E-001	4.91732E-005	0.00000E+000	1.88000E-001	-8.12605E-004	10	..........a	-327.74
	2695	5.392	1.93931E-001	4.82959E-005	0.00000E+000	1.95000E-001	-8.95939E-004	10	..........a	-327.74
	2702	5.406	2.00998E-001	4.80871E-005	0.00000E+000	2.02000E-001	-8.87605E-004	10	..........a	-327.74
	2709	5.42	2.07881E-001	4.77529E-005	0.00000E+000	2.09000E-001	-8.62605E-004	10	..........a	-327.74
	2716	5.434	2.14889E-001	4.71680E-005	0.00000E+000	2.16000E-001	-8.62605E-004	10	..........a	-327.74
	2723	5.448	2.21914E-001	4.69174E-005	0.00000E+000	2.23000E-001	-8.62605E-004	10	..........a	-327.74
	2730	5.462	2.28877E-001	4.62072E-005	0.00000E+000	2.30000E-001	-8.29272E-004	10	..........a	-327.74
	2737	5.476	2.35869E-001	4.57059E-005	0.00000E+000	2.37000E-001	-8.12605E-004	10	..........a	-327.74
	2744	5.49	2.42848E-001	4.49957E-005	0.00000E+000	2.44000E-001	-8.45939E-004	10	..........a	-327.74
	2751	5.504	2.49831E-001	4.45780E-005	0.00000E+000	2.51000E-001	-8.79272E-004	10	..........a	-327.74
	2758	5.518	2.56835E-001	4.44527E-005	0.00000E+000	2.58000E-001	-8.54272E-004	10	..........a	-327.74
	2765	5.532	2.63798E-001	4.39514E-005	0.00000E+000	2.65000E-001	-8.87605E-004	10	..........a	-327.74
	2772	5.546	2.70756E-001	4.32830E-005	0.00000E+000	2.72000E-001	-8.70939E-004	10	..........a	-327.74
	2779	5.56	2.77852E-001	4.30323E-005	0.00000E+000	2.79000E-001	-8.79272E-004	10	..........a	-327.74
	2786	5.574	2.84839E-001	4.31159E-005	0.00000E+000	2.86000E-001	-7.62605E-004	10	..........a	-327.74
	2793	5.588	2.91906E-001	4.24475E-005	0.00000E+000	2.93000E-001	-8.45939E-004	10	..........a	-327.74
	2800	5.602	2.98798E-001	4.23221E-005	0.00000E+000	3.00000E-001	-8.70939E-004	10	..........a	-327.74
	2807	5.616	3.05785E-001	4.23221E-005	0.00000E+000	3.07000E-001	-8.20939E-004	10	..........a	-327.74
	2814	5.63	3.12852E-001	4.10271E-005	0.00000E+000	3.14000E-001	-8.12605E-004	10	..........a	-327.74
	2821	5.644	3.19864E-001	4.08600E-005	0.00000E+000	3.21000E-001	-8.20939E-004	10	..........a	-327.74
	2828	5.658	3.26852E-001	4.08182E-005	0.00000E+000	3.28000E-001	-7.70939E-004	10	..........a	-327.74
	2835	5.672	3.33864E-001	4.05676E-005	0.00000E+000	3.35000E-001	-8.62605E-004	10	..........a	-327.74
	2842	5.686	3.40848E-001	4.04005E-005	0.00000E+000	3.42000E-001	-8.45939E-004	10	..........a	-327.74
	2849	5.7	3.47898E-001	4.03170E-005	0.00000E+000	3.49000E-001	-8.45939E-004	10	..........a	-327.74
	2856	5.714	3.54848E-001	4.03587E-005	0.00000E+000	3.56000E-001	-8.37606E-004	10	..........a	-327.74
	2863	5.728	3.61819E-001	4.02334E-005	0.00000E+000	3.63000E-001	-9.12605E-004	10	..........a	-327.74
	2870	5.742	3.68794E-001	3.97739E-005	0.00000E+000	3.70000E-001	-8.95939E-004	10	..........a	-327.74
	2877	5.756	3.75785E-001	3.98574E-005	0.00000E+000	3.77000E-001	-8.70939E-004	10	..........a	-327.74
	2884	5.77	3.82781E-001	3.93979E-005	0.00000E+000	3.84000E-001	-8.79272E-004	10	..........a	-327.74
	2891	5.784	3.89823E-001	3.96486E-005	0.00000E+000	3.91000E-001	-8.20939E-004	10	..........a	-327.74
	2898	5.798	3.96781E-001	3.91055E-005	0.00000E+000	3.98000E-001	-8.04272E-004	10	..........a	-327.74
	2905	5.812	4.03839E-001	3.92726E-005	0.00000E+000	4.05000E-001	-8.79272E-004	10	..........a	-327.74
	2912	5.826	4.10781E-001	3.86877E-005	0.00000E+000	4.12000E-001	-8.70939E-004	10	..........a	-327.74
	2919	5.84	4.17806E-001	3.87295E-005	0.00000E+000	4.19000E-001	-8.62605E-004	10	..........a	-327.74
	2926	5.854	4.24752E-001	3.81447E-005	0.00000E+000	4.26000E-001	-8.95939E-004	10	..........a	-327.74
	2933	5.868	4.31806E-001	3.79358E-005	0.00000E+000	4.33000E-001	-8.29272E-004	10	..........a	-327.74
	2940	5.882	4.38777E-001	3.77687E-005	0.00000E+000	4.40000E-001	-8.37606E-004	10	..........a	-327.74
	2947	5.896	4.45831E-001	3.74763E-005	0.00000E+000	4.47000E-001	-8.20939E-004	10	..........a	-327.74
	2954	5.91	4.52714E-001	3.68079E-005	0.00000E+000	4.54000E-001	-8.37606E-004	10	..........a	-327.74
	2961	5.924	4.59748E-001	3.65990E-005	0.00000E+000	4.61000E-001	-8.62605E-004	10	..........a	-327.74
	2968	5.938	4.66789E-001	3.66408E-005	0.00000E+000	4.68000E-001	-8.95939E-004	10	..........a	-327.74
	2975	5.952	4.73794E-001	3.63901E-005	0.00000E+000	4.75000E-001	-8.45939E-004	10	..........a	-327.74
	2982	5.966	4.80731E-001	3.61395E-005	0.00000E+000	4.82000E-001	-8.62605E-004	10	..........a	-327.74
	2989	5.98	4.87735E-001	3.58888E-005	0.00000E+000	4.89000E-001	-8.87605E-004	10	..........a	-327.74
	2996	5.994	4.94773E-001	3.54711E-005	0.00000E+000	4.96000E-001	-9.20939E-004	10	..........a	-327.74
	3000	6.002	4.98819E-001	3.53875E-005	0.00000E+000	5.00000E-001	-8.29272E-004	10	..........a	-327.74
CURVE2	TABLE
	Pt	T	Vf	Im	Vu	Sig	Ach	IERange	Over	Temp
	#	s	V vs. Ref.	A	V	V	V	#	bits	deg C
	3001	6.004	4.98827E-001	3.50116E-005	0.00000E+000	5.00000E-001	-8.79272E-004	10	..........a	-327.74