File: data/02-SI/Figures_S9_S11_RDE/18btmapaq-rde/1mkcl-18btmapaq-nitrogen-900mvpers.DTA
EXPLAIN
TAG	CV
TITLE	LABEL	Cyclic Voltammetry	Test &Identifier
DATE	LABEL	1/31/2023	Date
TIME	LABEL	15:22:20	Time
NOTES	NOTES	1	&Notes...

PSTAT	PSTAT	REF3000-21108	Potentiostat
VINIT	POTEN	5.00000E-001	F	Initial &E (V)
VLIMIT1	POTEN	-1.00000E+000	F	Scan Limit &1 (V)
VLIMIT2	POTEN	5.00000E-001	F	Scan Limit &2 (V)
VFINAL	POTEN	5.00000E-001	F	Final &E (V)
SCANRATE	QUANT	8.95521E+002	&Scan Rate (mV/s)
STEPSIZE	QUANT	1.00000E+000	St&ep Size (mV)
CYCLES	IQUANT	1	C&ycles (#)
IMODE	SELECTOR	1	I/E Range &Mode
IRANGE	QUANT	1.00000E+001	&Max Current (mA)
AREA	QUANT	1.00000E+000	Electrode &Area (cm^2)
ELECTRODETYPE	SELECTOR	0	Electrode Type
STRIPPING	TOGGLE	F	Used for Stripping
POLARITY	TOGGLE	F	Signal Polarity
CONDIT	TWOPARAM	F	1.50000E+001	0.00000E+000	Conditionin&g	Time(s)	E(V)
DELAY	TWOPARAM	F	5.00000E+000	0.00000E+000	Init. De&lay	Time(s)	Stab.(mV/s)
EQDELAY	QUANT	0.00000E+000	Equil. &Time (s)
IRCOMP	SELECTOR	0	IRCom&p
PFCOR	QUANT	5.00000E+001	PF Corr. (ohm)
SAMPLINGMODE	SELECTOR	1	Sampling &Mode
EOC	QUANT	0	Open Circuit (V)
PSTATMODEL	IQUANT	5	Pstat Model
PSTATSECTION	LABEL	REF3000-21108	Pstat Section
PSTATSERIALNO	LABEL	21108	Pstat Serial Number
CTRLMODE	IQUANT	1	Control Mode
ELECTROMETER	IQUANT	0	RE=0 or CS=1
IESTAB	IQUANT	2	I/E Stability
CASPEED	IQUANT	4	Control Amp Speed
CONVENTION	IQUANT	1	Current Convention
ICHRANGE	IQUANT	2	Ich Range
ICHRANGEMODE	TOGGLE	F	Ich Auto Range
ICHOFFSETENABLE	TOGGLE	F	Ich Offset Enable
ICHOFFSET	QUANT	0	Ich Offset (V)
ICHFILTER	IQUANT	1	Ich Filter
VCHRANGE	IQUANT	2	Vch Range
VCHRANGEMODE	TOGGLE	F	Vch Auto Range
VCHOFFSETENABLE	TOGGLE	F	Vch Offset Enable
VCHOFFSET	QUANT	0	Vch Offset (V)
VCHFILTER	IQUANT	1	Vch Filter
ACHRANGE	IQUANT	2	Ach Range
ACHOFFSETENABLE	TOGGLE	F	Ach Offset Enable
ACHOFFSET	QUANT	0	Ach Offset (V)
ACHFILTER	IQUANT	0	Ach Filter
IERANGELOWERLIMIT	IQUANT	2	I/E Range Lower Limit
IERANGEMODE	TOGGLE	F	I/E AutoRange
IERANGE	IQUANT	10	I/E Range
POSFEEDENABLE	TOGGLE	F	Positive Feedback IR Comp
POSFEEDRESISTANCE	QUANT	0	Positive Feedback Resistance (ohm)
ACHSELECT	IQUANT	0	Ach Select
SENSECABLEID	IQUANT	14	Sense Cable ID
PWRCABLEID	IQUANT	7	Power Cable ID
DCCALDATE	LABEL	11/9/2022	DC Calibration Date
ACCALDATE	LABEL	11/9/2022	AC Calibration Date
THERMOSELECT	IQUANT	1	Thermo Select
FRAMEWORKVERSION	LABEL	7.8.2	Framework Version
INSTRUMENTVERSION	LABEL	4.40	Instrument Version
COMPLIANCEVOLTAGE	IQUANT	0	Compliance Voltage
CURVE1	TABLE
	Pt	T	Vf	Im	Vu	Sig	Ach	IERange	Over	Temp
	#	s	V vs. Ref.	A	V	V	V	#	bits	deg C
	0	0.001117	4.98553E-001	1.08457E-005	0.00000E+000	5.00000E-001	-8.72129E-004	10	..........a	-327.74
	7	0.008933	4.91499E-001	3.44189E-006	0.00000E+000	4.92950E-001	-8.57844E-004	10	..........a	-327.74
	14	0.01675	4.84576E-001	2.02737E-007	0.00000E+000	4.85950E-001	-8.43558E-004	10	..........a	-327.74
	21	0.024567	4.77422E-001	-4.65599E-006	0.00000E+000	4.78900E-001	-8.00701E-004	10	..........a	-327.74
	28	0.032383	4.70429E-001	-6.27556E-006	0.00000E+000	4.71850E-001	-8.57844E-004	10	..........a	-327.74
	35	0.0402	4.63414E-001	-8.35787E-006	0.00000E+000	4.64800E-001	-8.00701E-004	10	..........a	-327.74
	42	0.048017	4.56391E-001	-9.20622E-006	0.00000E+000	4.57800E-001	-8.14986E-004	10	..........a	-327.74
	49	0.055833	4.49314E-001	-1.02859E-005	0.00000E+000	4.50750E-001	-8.86415E-004	10	..........a	-327.74
	56	0.06365	4.42306E-001	-1.09029E-005	0.00000E+000	4.43700E-001	-8.14986E-004	10	..........a	-327.74
	63	0.071467	4.35253E-001	-1.30624E-005	0.00000E+000	4.36700E-001	-8.00701E-004	10	..........a	-327.74
	70	0.079283	4.28245E-001	-1.35251E-005	0.00000E+000	4.29650E-001	-8.72129E-004	10	..........a	-327.74
	77	0.0871	4.21214E-001	-1.38336E-005	0.00000E+000	4.22600E-001	-8.00701E-004	10	..........a	-327.74
	84	0.094917	4.14168E-001	-1.41421E-005	0.00000E+000	4.15600E-001	-8.43558E-004	10	..........a	-327.74
	91	0.102733	4.07106E-001	-1.44506E-005	0.00000E+000	4.08550E-001	-8.43558E-004	10	..........a	-327.74
	98	0.11055	4.00037E-001	-1.54532E-005	0.00000E+000	4.01500E-001	-7.72129E-004	10	..........a	-327.74
	105	0.118367	3.93122E-001	-1.56845E-005	0.00000E+000	3.94500E-001	-7.72129E-004	10	..........a	-327.74
	112	0.126183	3.86068E-001	-1.69185E-005	0.00000E+000	3.87450E-001	-8.29272E-004	10	..........a	-327.74
	119	0.134	3.78968E-001	-1.68414E-005	0.00000E+000	3.80400E-001	-8.29272E-004	10	..........a	-327.74
	126	0.141817	3.71922E-001	-1.66100E-005	0.00000E+000	3.73350E-001	-8.00701E-004	10	..........a	-327.74
	133	0.149633	3.64953E-001	-1.83838E-005	0.00000E+000	3.66350E-001	-8.29272E-004	10	..........a	-327.74
	140	0.15745	3.57953E-001	-1.86152E-005	0.00000E+000	3.59300E-001	-8.57844E-004	10	..........a	-327.74
	147	0.165267	3.50837E-001	-1.86923E-005	0.00000E+000	3.52250E-001	-8.57844E-004	10	..........a	-327.74
	154	0.173083	3.43860E-001	-1.87694E-005	0.00000E+000	3.45250E-001	-8.72129E-004	10	..........a	-327.74
	161	0.1809	3.36814E-001	-2.03890E-005	0.00000E+000	3.38200E-001	-8.29272E-004	10	..........a	-327.74
	168	0.188717	3.29776E-001	-1.86152E-005	0.00000E+000	3.31150E-001	-8.72129E-004	10	..........a	-327.74
	175	0.196533	3.22760E-001	-2.06204E-005	0.00000E+000	3.24150E-001	-8.29272E-004	10	..........a	-327.74
	182	0.20435	3.15722E-001	-1.98491E-005	0.00000E+000	3.17100E-001	-8.43558E-004	10	..........a	-327.74
	189	0.212167	3.08622E-001	-1.94635E-005	0.00000E+000	3.10050E-001	-8.29272E-004	10	..........a	-327.74
	196	0.219983	3.01668E-001	-1.90008E-005	0.00000E+000	3.03000E-001	-8.00701E-004	10	..........a	-327.74
	203	0.2278	2.94629E-001	-2.01576E-005	0.00000E+000	2.96000E-001	-8.43558E-004	10	..........a	-327.74
	210	0.235617	2.87591E-001	-1.98491E-005	0.00000E+000	2.88950E-001	-9.14986E-004	10	..........a	-327.74
	217	0.243433	2.80514E-001	-2.09289E-005	0.00000E+000	2.81900E-001	-8.29272E-004	10	..........a	-327.74
	224	0.25125	2.73529E-001	-1.93864E-005	0.00000E+000	2.74900E-001	-7.72129E-004	10	..........a	-327.74
	231	0.259067	2.66491E-001	-2.03890E-005	0.00000E+000	2.67850E-001	-8.29272E-004	10	..........a	-327.74
	238	0.266883	2.59406E-001	-2.05432E-005	0.00000E+000	2.60800E-001	-8.29272E-004	10	..........a	-327.74
	245	0.2747	2.52468E-001	-2.04661E-005	0.00000E+000	2.53800E-001	-8.00701E-004	10	..........a	-327.74
	252	0.282517	2.45353E-001	-2.12374E-005	0.00000E+000	2.46750E-001	-8.86415E-004	10	..........a	-327.74
	259	0.290333	2.38322E-001	-2.06204E-005	0.00000E+000	2.39700E-001	-8.43558E-004	10	..........a	-327.74
	266	0.29815	2.31322E-001	-2.07746E-005	0.00000E+000	2.32650E-001	-8.00701E-004	10	..........a	-327.74
	273	0.305967	2.24306E-001	-2.11602E-005	0.00000E+000	2.25650E-001	-7.14986E-004	10	..........a	-327.74
	280	0.313783	2.17229E-001	-2.07746E-005	0.00000E+000	2.18600E-001	-7.86415E-004	10	..........a	-327.74
	287	0.3216	2.10145E-001	-2.03890E-005	0.00000E+000	2.11550E-001	-8.57844E-004	10	..........a	-327.74
	294	0.329417	2.03291E-001	-2.08517E-005	0.00000E+000	2.04550E-001	-8.72129E-004	10	..........a	-327.74
	301	0.337233	1.96160E-001	-2.10831E-005	0.00000E+000	1.97500E-001	-8.29272E-004	10	..........a	-327.74
	308	0.34505	1.89145E-001	-2.19315E-005	0.00000E+000	1.90450E-001	-8.00701E-004	10	..........a	-327.74
	315	0.352867	1.82106E-001	-2.02348E-005	0.00000E+000	1.83450E-001	-9.00701E-004	10	..........a	-327.74
	322	0.360683	1.75106E-001	-2.13916E-005	0.00000E+000	1.76400E-001	-8.14986E-004	10	..........a	-327.74
	329	0.3685	1.67999E-001	-2.20857E-005	0.00000E+000	1.69350E-001	-7.57844E-004	10	..........a	-327.74
	336	0.376317	1.61037E-001	-2.19315E-005	0.00000E+000	1.62300E-001	-8.14986E-004	10	..........a	-327.74
	343	0.384133	1.53976E-001	-2.13916E-005	0.00000E+000	1.55300E-001	-8.72129E-004	10	..........a	-327.74
	350	0.39195	1.47014E-001	-2.13145E-005	0.00000E+000	1.48250E-001	-8.00701E-004	10	..........a	-327.74
	357	0.399767	1.39945E-001	-2.13145E-005	0.00000E+000	1.41200E-001	-7.86415E-004	10	..........a	-327.74
	364	0.407583	1.32914E-001	-2.27027E-005	0.00000E+000	1.34200E-001	-8.00701E-004	10	..........a	-327.74
	371	0.4154	1.25868E-001	-2.13145E-005	0.00000E+000	1.27150E-001	-8.29272E-004	10	..........a	-327.74
	378	0.423217	1.18860E-001	-2.17001E-005	0.00000E+000	1.20100E-001	-8.43558E-004	10	..........a	-327.74
	385	0.431033	1.11722E-001	-2.17772E-005	0.00000E+000	1.13050E-001	-8.14986E-004	10	..........a	-327.74
	392	0.43885	1.04806E-001	-2.13145E-005	0.00000E+000	1.06050E-001	-8.43558E-004	10	..........a	-327.74
	399	0.446667	9.77448E-002	-2.12374E-005	0.00000E+000	9.90000E-002	-8.86415E-004	10	..........a	-327.74
	406	0.454483	9.06987E-002	-2.27027E-005	0.00000E+000	9.19500E-002	-8.29272E-004	10	..........a	-327.74
	413	0.4623	8.37064E-002	-2.13145E-005	0.00000E+000	8.49500E-002	-8.00701E-004	10	..........a	-327.74
	420	0.470117	7.66602E-002	-2.22399E-005	0.00000E+000	7.79000E-002	-7.43558E-004	10	..........a	-327.74
	427	0.477933	6.96141E-002	-2.14687E-005	0.00000E+000	7.08500E-002	-8.57844E-004	10	..........a	-327.74
	434	0.48575	6.25756E-002	-2.20086E-005	0.00000E+000	6.38500E-002	-8.14986E-004	10	..........a	-327.74
	441	0.493567	5.55448E-002	-2.28569E-005	0.00000E+000	5.68000E-002	-7.57844E-004	10	..........a	-327.74
	448	0.501383	4.85064E-002	-2.23942E-005	0.00000E+000	4.97500E-002	-7.86415E-004	10	..........a	-327.74
	455	0.5092	4.13987E-002	-2.27027E-005	0.00000E+000	4.27000E-002	-8.72129E-004	10	..........a	-327.74
	462	0.517017	3.44756E-002	-2.21628E-005	0.00000E+000	3.57000E-002	-7.43558E-004	10	..........a	-327.74
	469	0.524833	2.73372E-002	-2.28569E-005	0.00000E+000	2.86500E-002	-7.86415E-004	10	..........a	-327.74
	476	0.53265	2.03679E-002	-2.27027E-005	0.00000E+000	2.16000E-002	-8.57844E-004	10	..........a	-327.74
	483	0.540467	1.33910E-002	-2.21628E-005	0.00000E+000	1.46000E-002	-7.86415E-004	10	..........a	-327.74
	490	0.548283	6.28331E-003	-2.25484E-005	0.00000E+000	7.55000E-003	-8.00701E-004	10	..........a	-327.74
	497	0.5561	-7.55151E-004	-2.33197E-005	0.00000E+000	4.99994E-004	-8.43558E-004	10	..........a	-327.74
	504	0.563917	-7.74746E-003	-2.27798E-005	0.00000E+000	-6.50001E-003	-7.86415E-004	10	..........a	-327.74
	511	0.571733	-1.47705E-002	-2.29340E-005	0.00000E+000	-1.35500E-002	-8.29272E-004	10	..........a	-327.74
	518	0.57955	-2.18628E-002	-2.19315E-005	0.00000E+000	-2.06000E-002	-8.14986E-004	10	..........a	-327.74
	525	0.587367	-2.89398E-002	-2.33197E-005	0.00000E+000	-2.76500E-002	-8.14986E-004	10	..........a	-327.74
	532	0.595183	-3.58398E-002	-2.29340E-005	0.00000E+000	-3.46500E-002	-8.14986E-004	10	..........a	-327.74
	539	0.603	-4.28936E-002	-2.31654E-005	0.00000E+000	-4.17000E-002	-8.43558E-004	10	..........a	-327.74
	546	0.610817	-5.00244E-002	-2.27798E-005	0.00000E+000	-4.87500E-002	-8.14986E-004	10	..........a	-327.74
	553	0.618633	-5.69936E-002	-2.30112E-005	0.00000E+000	-5.57500E-002	-8.86415E-004	10	..........a	-327.74
	560	0.62645	-6.40244E-002	-2.42451E-005	0.00000E+000	-6.28000E-002	-8.72129E-004	10	..........a	-327.74
	567	0.634267	-7.10398E-002	-2.22399E-005	0.00000E+000	-6.98500E-002	-7.86415E-004	10	..........a	-327.74
	574	0.642083	-7.80705E-002	-2.32425E-005	0.00000E+000	-7.68500E-002	-8.14986E-004	10	..........a	-327.74
	581	0.6499	-8.51167E-002	-2.35510E-005	0.00000E+000	-8.39000E-002	-7.43558E-004	10	..........a	-327.74
	588	0.657717	-9.21705E-002	-2.30883E-005	0.00000E+000	-9.09500E-002	-7.57844E-004	10	..........a	-327.74
	595	0.665533	-9.92090E-002	-2.45536E-005	0.00000E+000	-9.80000E-002	-8.00701E-004	10	..........a	-327.74
	602	0.67335	-1.06171E-001	-2.30112E-005	0.00000E+000	-1.05000E-001	-8.43558E-004	10	..........a	-327.74
	609	0.681167	-1.13247E-001	-2.28569E-005	0.00000E+000	-1.12050E-001	-8.29272E-004	10	..........a	-327.74
	616	0.688983	-1.20317E-001	-2.39366E-005	0.00000E+000	-1.19100E-001	-8.72129E-004	10	..........a	-327.74
	623	0.6968	-1.27332E-001	-2.29340E-005	0.00000E+000	-1.26100E-001	-8.43558E-004	10	..........a	-327.74
	630	0.704617	-1.34317E-001	-2.31654E-005	0.00000E+000	-1.33150E-001	-7.43558E-004	10	..........a	-327.74
	637	0.712433	-1.41401E-001	-2.38595E-005	0.00000E+000	-1.40200E-001	-8.43558E-004	10	..........a	-327.74
	644	0.72025	-1.48386E-001	-2.34739E-005	0.00000E+000	-1.47200E-001	-7.86415E-004	10	..........a	-327.74
	651	0.728067	-1.55440E-001	-2.37053E-005	0.00000E+000	-1.54250E-001	-8.86415E-004	10	..........a	-327.74
	658	0.735883	-1.62455E-001	-2.37053E-005	0.00000E+000	-1.61300E-001	-8.43558E-004	10	..........a	-327.74
	665	0.7437	-1.69524E-001	-2.36282E-005	0.00000E+000	-1.68350E-001	-8.29272E-004	10	..........a	-327.74
	672	0.751517	-1.76517E-001	-2.38595E-005	0.00000E+000	-1.75350E-001	-8.14986E-004	10	..........a	-327.74
	679	0.759333	-1.83571E-001	-2.43223E-005	0.00000E+000	-1.82400E-001	-8.43558E-004	10	..........a	-327.74
	686	0.76715	-1.90671E-001	-2.43994E-005	0.00000E+000	-1.89450E-001	-8.00701E-004	10	..........a	-327.74
	693	0.774967	-1.97640E-001	-2.51706E-005	0.00000E+000	-1.96450E-001	-7.72129E-004	10	..........a	-327.74
	700	0.782783	-2.04686E-001	-2.43994E-005	0.00000E+000	-2.03500E-001	-7.86415E-004	10	..........a	-327.74
	707	0.7906	-2.11701E-001	-2.55562E-005	0.00000E+000	-2.10550E-001	-8.43558E-004	10	..........a	-327.74
	714	0.798417	-2.18709E-001	-2.56333E-005	0.00000E+000	-2.17550E-001	-8.29272E-004	10	..........a	-327.74
	721	0.806233	-2.25771E-001	-2.62503E-005	0.00000E+000	-2.24600E-001	-8.00701E-004	10	..........a	-327.74
	728	0.81405	-2.32717E-001	-2.64046E-005	0.00000E+000	-2.31650E-001	-8.00701E-004	10	..........a	-327.74
	735	0.821867	-2.39886E-001	-2.58647E-005	0.00000E+000	-2.38700E-001	-7.86415E-004	10	..........a	-327.74
	742	0.829683	-2.46809E-001	-2.67902E-005	0.00000E+000	-2.45700E-001	-8.00701E-004	10	..........a	-327.74
	749	0.8375	-2.53909E-001	-2.70987E-005	0.00000E+000	-2.52750E-001	-8.43558E-004	10	..........a	-327.74
	756	0.845317	-2.60994E-001	-2.77928E-005	0.00000E+000	-2.59800E-001	-7.86415E-004	10	..........a	-327.74
	763	0.853133	-2.67863E-001	-2.86411E-005	0.00000E+000	-2.66800E-001	-8.14986E-004	10	..........a	-327.74
	770	0.86095	-2.74963E-001	-2.75614E-005	0.00000E+000	-2.73850E-001	-8.14986E-004	10	..........a	-327.74
	777	0.868767	-2.82032E-001	-2.74072E-005	0.00000E+000	-2.80900E-001	-7.57844E-004	10	..........a	-327.74
	784	0.876583	-2.89071E-001	-2.97980E-005	0.00000E+000	-2.87900E-001	-8.14986E-004	10	..........a	-327.74
	791	0.8844	-2.96171E-001	-3.13404E-005	0.00000E+000	-2.94950E-001	-8.72129E-004	10	..........a	-327.74
	798	0.892217	-3.03071E-001	-3.04921E-005	0.00000E+000	-3.02000E-001	-8.14986E-004	10	..........a	-327.74
	805	0.900033	-3.10209E-001	-3.20345E-005	0.00000E+000	-3.09050E-001	-8.43558E-004	10	..........a	-327.74
	812	0.90785	-3.17201E-001	-3.18031E-005	0.00000E+000	-3.16050E-001	-7.86415E-004	10	..........a	-327.74
	819	0.915667	-3.24240E-001	-3.20345E-005	0.00000E+000	-3.23100E-001	-8.00701E-004	10	..........a	-327.74
	826	0.923483	-3.31271E-001	-3.40397E-005	0.00000E+000	-3.30150E-001	-8.29272E-004	10	..........a	-327.74
	833	0.9313	-3.38240E-001	-3.45796E-005	0.00000E+000	-3.37150E-001	-8.57844E-004	10	..........a	-327.74
	840	0.939117	-3.45278E-001	-3.48109E-005	0.00000E+000	-3.44200E-001	-8.72129E-004	10	..........a	-327.74
	847	0.946933	-3.52417E-001	-3.75102E-005	0.00000E+000	-3.51250E-001	-8.72129E-004	10	..........a	-327.74
	854	0.95475	-3.59394E-001	-3.82043E-005	0.00000E+000	-3.58250E-001	-8.14986E-004	10	..........a	-327.74
	861	0.96257	-3.66494E-001	-4.05180E-005	0.00000E+000	-3.65300E-001	-8.43558E-004	10	..........a	-327.74
	868	0.97038	-3.73455E-001	-4.03638E-005	0.00000E+000	-3.72350E-001	-8.57844E-004	10	..........a	-327.74
	875	0.9782	-3.80509E-001	-4.22918E-005	0.00000E+000	-3.79400E-001	-9.14986E-004	10	..........a	-327.74
	882	0.98602	-3.87486E-001	-4.56081E-005	0.00000E+000	-3.86400E-001	-8.00701E-004	10	..........a	-327.74
	889	0.99383	-3.94563E-001	-4.66878E-005	0.00000E+000	-3.93450E-001	-8.29272E-004	10	..........a	-327.74
	896	1.00165	-4.01601E-001	-4.90786E-005	0.00000E+000	-4.00500E-001	-7.29272E-004	10	..........a	-327.74
	903	1.00947	-4.08609E-001	-5.17779E-005	0.00000E+000	-4.07500E-001	-8.86415E-004	10	..........a	-327.74
	910	1.01728	-4.15647E-001	-5.57112E-005	0.00000E+000	-4.14550E-001	-7.57844E-004	10	..........a	-327.74
	917	1.0251	-4.22678E-001	-5.91046E-005	0.00000E+000	-4.21600E-001	-8.00701E-004	10	..........a	-327.74
	924	1.03292	-4.29701E-001	-6.51201E-005	0.00000E+000	-4.28600E-001	-8.14986E-004	10	..........a	-327.74
	931	1.04073	-4.36732E-001	-7.14442E-005	0.00000E+000	-4.35650E-001	-8.00701E-004	10	..........a	-327.74
	938	1.04855	-4.43740E-001	-8.01590E-005	0.00000E+000	-4.42700E-001	-8.14986E-004	10	..........a	-327.74
	945	1.05637	-4.50809E-001	-9.18817E-005	0.00000E+000	-4.49750E-001	-8.57844E-004	10	..........a	-327.74
	952	1.06418	-4.57847E-001	-1.04684E-004	0.00000E+000	-4.56750E-001	-8.29272E-004	10	..........a	-327.74
	959	1.072	-4.64863E-001	-1.23502E-004	0.00000E+000	-4.63800E-001	-7.72129E-004	10	..........a	-327.74
	966	1.07982	-4.71970E-001	-1.46562E-004	0.00000E+000	-4.70850E-001	-7.43558E-004	10	..........a	-327.74
	973	1.08763	-4.78917E-001	-1.75483E-004	0.00000E+000	-4.77850E-001	-8.14986E-004	10	..........a	-327.74
	980	1.09545	-4.85932E-001	-2.10034E-004	0.00000E+000	-4.84900E-001	-8.14986E-004	10	..........a	-327.74
	987	1.10327	-4.93070E-001	-2.50986E-004	0.00000E+000	-4.91950E-001	-8.00701E-004	10	..........a	-327.74
	994	1.11108	-4.99994E-001	-3.01038E-004	0.00000E+000	-4.98950E-001	-8.72129E-004	10	..........a	-327.74
	1001	1.1189	-5.07070E-001	-3.57338E-004	0.00000E+000	-5.06000E-001	-8.00701E-004	10	..........a	-327.74
	1008	1.12672	-5.14078E-001	-4.21658E-004	0.00000E+000	-5.13050E-001	-7.86415E-004	10	..........a	-327.74
	1015	1.13453	-5.21124E-001	-4.92688E-004	0.00000E+000	-5.20100E-001	-8.00701E-004	10	..........a	-327.74
	1022	1.14235	-5.28078E-001	-5.61250E-004	0.00000E+000	-5.27100E-001	-8.14986E-004	10	..........a	-327.74
	1029	1.15017	-5.35178E-001	-6.31046E-004	0.00000E+000	-5.34150E-001	-8.29272E-004	10	..........a	-327.74
	1036	1.15798	-5.42301E-001	-6.94441E-004	0.00000E+000	-5.41200E-001	-8.29272E-004	10	..........a	-327.74
	1043	1.1658	-5.49224E-001	-7.45496E-004	0.00000E+000	-5.48200E-001	-9.14986E-004	10	..........a	-327.74
	1050	1.17362	-5.56286E-001	-7.88453E-004	0.00000E+000	-5.55250E-001	-8.57844E-004	10	..........a	-327.74
	1057	1.18143	-5.63363E-001	-8.15292E-004	0.00000E+000	-5.62300E-001	-7.86415E-004	10	..........a	-327.74
	1064	1.18925	-5.70340E-001	-8.23621E-004	0.00000E+000	-5.69300E-001	-8.14986E-004	10	..........a	-327.74
	1071	1.19707	-5.77363E-001	-8.15832E-004	0.00000E+000	-5.76350E-001	-8.00701E-004	10	..........a	-327.74
	1078	1.20488	-5.84424E-001	-7.92386E-004	0.00000E+000	-5.83400E-001	-8.86415E-004	10	..........a	-327.74
	1085	1.2127	-5.91470E-001	-7.55830E-004	0.00000E+000	-5.90450E-001	-8.72129E-004	10	..........a	-327.74
	1092	1.22052	-5.98501E-001	-7.14724E-004	0.00000E+000	-5.97450E-001	-8.00701E-004	10	..........a	-327.74
	1099	1.22833	-6.05524E-001	-6.75854E-004	0.00000E+000	-6.04500E-001	-8.00701E-004	10	..........a	-327.74
	1106	1.23615	-6.12563E-001	-6.39375E-004	0.00000E+000	-6.11550E-001	-8.14986E-004	10	..........a	-327.74
	1113	1.24397	-6.19555E-001	-6.09143E-004	0.00000E+000	-6.18550E-001	-8.43558E-004	10	..........a	-327.74
	1120	1.25178	-6.26663E-001	-5.80993E-004	0.00000E+000	-6.25600E-001	-9.00701E-004	10	..........a	-327.74
	1127	1.2596	-6.33663E-001	-5.57085E-004	0.00000E+000	-6.32650E-001	-8.57844E-004	10	..........a	-327.74
	1134	1.26742	-6.40570E-001	-5.36648E-004	0.00000E+000	-6.39650E-001	-7.72129E-004	10	..........a	-327.74
	1141	1.27523	-6.47655E-001	-5.18447E-004	0.00000E+000	-6.46700E-001	-8.14986E-004	10	..........a	-327.74
	1148	1.28305	-6.54717E-001	-5.02097E-004	0.00000E+000	-6.53750E-001	-8.14986E-004	10	..........a	-327.74
	1155	1.29087	-6.61840E-001	-4.87444E-004	0.00000E+000	-6.60800E-001	-7.86415E-004	10	..........a	-327.74
	1162	1.29868	-6.68771E-001	-4.72867E-004	0.00000E+000	-6.67800E-001	-8.00701E-004	10	..........a	-327.74
	1169	1.3065	-6.75747E-001	-4.60605E-004	0.00000E+000	-6.74850E-001	-8.29272E-004	10	..........a	-327.74
	1176	1.31432	-6.82878E-001	-4.48882E-004	0.00000E+000	-6.81900E-001	-7.86415E-004	10	..........a	-327.74
	1183	1.32213	-6.89894E-001	-4.38008E-004	0.00000E+000	-6.88900E-001	-7.72129E-004	10	..........a	-327.74
	1190	1.32995	-6.96924E-001	-4.28522E-004	0.00000E+000	-6.95950E-001	-7.86415E-004	10	..........a	-327.74
	1197	1.33777	-7.03971E-001	-4.17879E-004	0.00000E+000	-7.03000E-001	-8.57844E-004	10	..........a	-327.74
	1204	1.34558	-7.10963E-001	-4.08624E-004	0.00000E+000	-7.10000E-001	-8.29272E-004	10	..........a	-327.74
	1211	1.3534	-7.18001E-001	-4.01992E-004	0.00000E+000	-7.17050E-001	-8.29272E-004	10	..........a	-327.74
	1218	1.36122	-7.25071E-001	-3.93277E-004	0.00000E+000	-7.24100E-001	-8.29272E-004	10	..........a	-327.74
	1225	1.36903	-7.32117E-001	-3.86027E-004	0.00000E+000	-7.31150E-001	-7.57844E-004	10	..........a	-327.74
	1232	1.37685	-7.39155E-001	-3.78084E-004	0.00000E+000	-7.38150E-001	-8.57844E-004	10	..........a	-327.74
	1239	1.38467	-7.46094E-001	-3.72299E-004	0.00000E+000	-7.45200E-001	-8.29272E-004	10	..........a	-327.74
	1246	1.39248	-7.53224E-001	-3.65898E-004	0.00000E+000	-7.52250E-001	-8.14986E-004	10	..........a	-327.74
	1253	1.4003	-7.60201E-001	-3.58186E-004	0.00000E+000	-7.59250E-001	-8.00701E-004	10	..........a	-327.74
	1260	1.40812	-7.67224E-001	-3.53559E-004	0.00000E+000	-7.66300E-001	-8.43558E-004	10	..........a	-327.74
	1267	1.41593	-7.74355E-001	-3.48854E-004	0.00000E+000	-7.73350E-001	-8.00701E-004	10	..........a	-327.74
	1274	1.42375	-7.81294E-001	-3.43687E-004	0.00000E+000	-7.80350E-001	-8.43558E-004	10	..........a	-327.74
	1281	1.43157	-7.88324E-001	-3.38057E-004	0.00000E+000	-7.87400E-001	-8.72129E-004	10	..........a	-327.74
	1288	1.43938	-7.95355E-001	-3.33198E-004	0.00000E+000	-7.94450E-001	-8.14986E-004	10	..........a	-327.74
	1295	1.4472	-8.02424E-001	-3.28957E-004	0.00000E+000	-8.01500E-001	-8.29272E-004	10	..........a	-327.74
	1302	1.45502	-8.09432E-001	-3.25100E-004	0.00000E+000	-8.08500E-001	-8.43558E-004	10	..........a	-327.74
	1309	1.46283	-8.16486E-001	-3.19933E-004	0.00000E+000	-8.15550E-001	-8.86415E-004	10	..........a	-327.74
	1316	1.47065	-8.23501E-001	-3.16463E-004	0.00000E+000	-8.22600E-001	-8.00701E-004	10	..........a	-327.74
	1323	1.47847	-8.30478E-001	-3.13301E-004	0.00000E+000	-8.29600E-001	-8.57844E-004	10	..........a	-327.74
	1330	1.48628	-8.37555E-001	-3.09367E-004	0.00000E+000	-8.36650E-001	-8.29272E-004	10	..........a	-327.74
	1337	1.4941	-8.44601E-001	-3.05743E-004	0.00000E+000	-8.43700E-001	-7.86415E-004	10	..........a	-327.74
	1344	1.50192	-8.51517E-001	-3.01578E-004	0.00000E+000	-8.50700E-001	-8.00701E-004	10	..........a	-327.74
	1351	1.50973	-8.58624E-001	-2.98493E-004	0.00000E+000	-8.57750E-001	-7.86415E-004	10	..........a	-327.74
	1358	1.51755	-8.65694E-001	-2.96179E-004	0.00000E+000	-8.64800E-001	-8.57844E-004	10	..........a	-327.74
	1365	1.52537	-8.72709E-001	-2.92940E-004	0.00000E+000	-8.71850E-001	-7.57844E-004	10	..........a	-327.74
	1372	1.53318	-8.79778E-001	-2.89316E-004	0.00000E+000	-8.78850E-001	-7.72129E-004	10	..........a	-327.74
	1379	1.541	-8.86771E-001	-2.87079E-004	0.00000E+000	-8.85900E-001	-7.86415E-004	10	..........a	-327.74
	1386	1.54882	-8.93786E-001	-2.84225E-004	0.00000E+000	-8.92950E-001	-8.43558E-004	10	..........a	-327.74
	1393	1.55663	-9.00824E-001	-2.80986E-004	0.00000E+000	-8.99950E-001	-8.43558E-004	10	..........a	-327.74
	1400	1.56445	-9.07771E-001	-2.81218E-004	0.00000E+000	-9.07000E-001	-7.72129E-004	10	..........a	-327.74
	1407	1.57227	-9.14878E-001	-2.77901E-004	0.00000E+000	-9.14050E-001	-8.14986E-004	10	..........a	-327.74
	1414	1.58008	-9.21863E-001	-2.75202E-004	0.00000E+000	-9.21050E-001	-8.43558E-004	10	..........a	-327.74
	1421	1.5879	-9.28947E-001	-2.73351E-004	0.00000E+000	-9.28100E-001	-8.00701E-004	10	..........a	-327.74
	1428	1.59572	-9.35963E-001	-2.71038E-004	0.00000E+000	-9.35150E-001	-8.43558E-004	10	..........a	-327.74
	1435	1.60353	-9.42971E-001	-2.68724E-004	0.00000E+000	-9.42200E-001	-7.72129E-004	10	..........a	-327.74
	1442	1.61135	-9.49993E-001	-2.66179E-004	0.00000E+000	-9.49200E-001	-8.72129E-004	10	..........a	-327.74
	1449	1.61917	-9.57101E-001	-2.64251E-004	0.00000E+000	-9.56250E-001	-8.14986E-004	10	..........a	-327.74
	1456	1.62698	-9.64132E-001	-2.62785E-004	0.00000E+000	-9.63300E-001	-8.43558E-004	10	..........a	-327.74
	1463	1.6348	-9.71163E-001	-2.60703E-004	0.00000E+000	-9.70300E-001	-8.29272E-004	10	..........a	-327.74
	1470	1.64262	-9.78178E-001	-2.57927E-004	0.00000E+000	-9.77350E-001	-8.29272E-004	10	..........a	-327.74
	1477	1.65043	-9.85217E-001	-2.56616E-004	0.00000E+000	-9.84400E-001	-7.14986E-004	10	..........a	-327.74
	1484	1.65825	-9.92232E-001	-2.54302E-004	0.00000E+000	-9.91400E-001	-8.29272E-004	10	..........a	-327.74
	1491	1.66607	-9.99324E-001	-2.53839E-004	0.00000E+000	-9.98450E-001	-8.43558E-004	10	..........a	-327.74
	1498	1.67388	-9.94186E-001	-2.39649E-004	0.00000E+000	-9.93450E-001	-8.29272E-004	10	..........a	-327.74
	1505	1.6817	-9.87201E-001	-2.33325E-004	0.00000E+000	-9.86400E-001	-8.72129E-004	10	..........a	-327.74
	1512	1.68952	-9.80186E-001	-2.29391E-004	0.00000E+000	-9.79350E-001	-8.86415E-004	10	..........a	-327.74
	1519	1.69733	-9.73163E-001	-2.24301E-004	0.00000E+000	-9.72350E-001	-8.14986E-004	10	..........a	-327.74
	1526	1.70515	-9.66140E-001	-2.19982E-004	0.00000E+000	-9.65300E-001	-8.72129E-004	10	..........a	-327.74
	1533	1.71297	-9.59024E-001	-2.17746E-004	0.00000E+000	-9.58250E-001	-8.00701E-004	10	..........a	-327.74
	1540	1.72078	-9.52009E-001	-2.15124E-004	0.00000E+000	-9.51200E-001	-8.29272E-004	10	..........a	-327.74
	1547	1.7286	-9.45055E-001	-2.11499E-004	0.00000E+000	-9.44200E-001	-9.00701E-004	10	..........a	-327.74
	1554	1.73642	-9.37986E-001	-2.10265E-004	0.00000E+000	-9.37150E-001	-8.00701E-004	10	..........a	-327.74
	1561	1.74423	-9.30955E-001	-2.08105E-004	0.00000E+000	-9.30100E-001	-8.14986E-004	10	..........a	-327.74
	1568	1.75205	-9.23840E-001	-2.07180E-004	0.00000E+000	-9.23100E-001	-8.43558E-004	10	..........a	-327.74
	1575	1.75987	-9.16932E-001	-2.04249E-004	0.00000E+000	-9.16050E-001	-8.29272E-004	10	..........a	-327.74
	1582	1.76768	-9.09878E-001	-2.01936E-004	0.00000E+000	-9.09000E-001	-8.72129E-004	10	..........a	-327.74
	1589	1.7755	-9.02793E-001	-2.01936E-004	0.00000E+000	-9.02000E-001	-8.29272E-004	10	..........a	-327.74
	1596	1.78332	-8.95824E-001	-1.99468E-004	0.00000E+000	-8.94950E-001	-8.14986E-004	10	..........a	-327.74
	1603	1.79113	-8.88755E-001	-1.97848E-004	0.00000E+000	-8.87900E-001	-7.72129E-004	10	..........a	-327.74
	1610	1.79895	-8.81763E-001	-1.97385E-004	0.00000E+000	-8.80850E-001	-8.29272E-004	10	..........a	-327.74
	1617	1.80677	-8.74671E-001	-1.94455E-004	0.00000E+000	-8.73850E-001	-8.14986E-004	10	..........a	-327.74
	1624	1.81458	-8.67693E-001	-1.92604E-004	0.00000E+000	-8.66800E-001	-8.29272E-004	10	..........a	-327.74
	1631	1.8224	-8.60571E-001	-1.92527E-004	0.00000E+000	-8.59750E-001	-8.72129E-004	10	..........a	-327.74
	1638	1.83022	-8.53624E-001	-1.89365E-004	0.00000E+000	-8.52750E-001	-8.14986E-004	10	..........a	-327.74
	1645	1.83803	-8.46540E-001	-1.88671E-004	0.00000E+000	-8.45700E-001	-8.43558E-004	10	..........a	-327.74
	1652	1.84585	-8.39547E-001	-1.86974E-004	0.00000E+000	-8.38650E-001	-7.86415E-004	10	..........a	-327.74
	1659	1.85367	-8.32493E-001	-1.86126E-004	0.00000E+000	-8.31650E-001	-8.14986E-004	10	..........a	-327.74
	1666	1.86148	-8.25509E-001	-1.84197E-004	0.00000E+000	-8.24600E-001	-8.29272E-004	10	..........a	-327.74
	1673	1.8693	-8.18486E-001	-1.83041E-004	0.00000E+000	-8.17550E-001	-8.29272E-004	10	..........a	-327.74
	1680	1.87712	-8.11440E-001	-1.82192E-004	0.00000E+000	-8.10500E-001	-8.14986E-004	10	..........a	-327.74
	1687	1.88493	-8.04517E-001	-1.80727E-004	0.00000E+000	-8.03500E-001	-8.00701E-004	10	..........a	-327.74
	1694	1.89275	-7.97371E-001	-1.78876E-004	0.00000E+000	-7.96450E-001	-8.57844E-004	10	..........a	-327.74
	1701	1.90057	-7.90363E-001	-1.78490E-004	0.00000E+000	-7.89400E-001	-8.57844E-004	10	..........a	-327.74
	1708	1.90838	-7.83347E-001	-1.76485E-004	0.00000E+000	-7.82400E-001	-8.00701E-004	10	..........a	-327.74
	1715	1.9162	-7.76263E-001	-1.75714E-004	0.00000E+000	-7.75350E-001	-8.00701E-004	10	..........a	-327.74
	1722	1.92402	-7.69209E-001	-1.74866E-004	0.00000E+000	-7.68300E-001	-8.72129E-004	10	..........a	-327.74
	1729	1.93183	-7.62247E-001	-1.72552E-004	0.00000E+000	-7.61300E-001	-8.43558E-004	10	..........a	-327.74
	1736	1.93965	-7.55194E-001	-1.71549E-004	0.00000E+000	-7.54250E-001	-7.72129E-004	10	..........a	-327.74
	1743	1.94747	-7.48109E-001	-1.71395E-004	0.00000E+000	-7.47200E-001	-8.29272E-004	10	..........a	-327.74
	1750	1.95528	-7.41071E-001	-1.69698E-004	0.00000E+000	-7.40150E-001	-8.29272E-004	10	..........a	-327.74
	1757	1.9631	-7.34101E-001	-1.68002E-004	0.00000E+000	-7.33150E-001	-7.57844E-004	10	..........a	-327.74
	1764	1.97092	-7.27063E-001	-1.68002E-004	0.00000E+000	-7.26100E-001	-8.14986E-004	10	..........a	-327.74
	1771	1.97873	-7.20017E-001	-1.65688E-004	0.00000E+000	-7.19050E-001	-8.43558E-004	10	..........a	-327.74
	1778	1.98655	-7.13024E-001	-1.65071E-004	0.00000E+000	-7.12050E-001	-8.43558E-004	10	..........a	-327.74
	1785	1.99437	-7.05963E-001	-1.63451E-004	0.00000E+000	-7.05000E-001	-7.43558E-004	10	..........a	-327.74
	1792	2.00218	-6.98955E-001	-1.61523E-004	0.00000E+000	-6.97950E-001	-8.86415E-004	10	..........a	-327.74
	1799	2.01	-6.91863E-001	-1.60906E-004	0.00000E+000	-6.90950E-001	-8.43558E-004	10	..........a	-327.74
	1806	2.01782	-6.84832E-001	-1.57976E-004	0.00000E+000	-6.83900E-001	-8.43558E-004	10	..........a	-327.74
	1813	2.02563	-6.77801E-001	-1.57667E-004	0.00000E+000	-6.76850E-001	-8.57844E-004	10	..........a	-327.74
	1820	2.03345	-6.70771E-001	-1.55276E-004	0.00000E+000	-6.69800E-001	-8.57844E-004	10	..........a	-327.74
	1827	2.04127	-6.63855E-001	-1.52731E-004	0.00000E+000	-6.62800E-001	-7.43558E-004	10	..........a	-327.74
	1834	2.04908	-6.56655E-001	-1.50495E-004	0.00000E+000	-6.55750E-001	-7.72129E-004	10	..........a	-327.74
	1841	2.0569	-6.49747E-001	-1.48027E-004	0.00000E+000	-6.48700E-001	-7.72129E-004	10	..........a	-327.74
	1848	2.06472	-6.42640E-001	-1.46176E-004	0.00000E+000	-6.41700E-001	-8.00701E-004	10	..........a	-327.74
	1855	2.07253	-6.35632E-001	-1.42320E-004	0.00000E+000	-6.34650E-001	-8.29272E-004	10	..........a	-327.74
	1862	2.08035	-6.28640E-001	-1.36536E-004	0.00000E+000	-6.27600E-001	-8.72129E-004	10	..........a	-327.74
	1869	2.08817	-6.21617E-001	-1.31368E-004	0.00000E+000	-6.20600E-001	-8.43558E-004	10	..........a	-327.74
	1876	2.09598	-6.14524E-001	-1.25970E-004	0.00000E+000	-6.13550E-001	-8.57844E-004	10	..........a	-327.74
	1883	2.1038	-6.07501E-001	-1.18412E-004	0.00000E+000	-6.06500E-001	-8.00701E-004	10	..........a	-327.74
	1890	2.11162	-6.00470E-001	-1.09466E-004	0.00000E+000	-5.99450E-001	-8.29272E-004	10	..........a	-327.74
	1897	2.11943	-5.93494E-001	-9.94397E-005	0.00000E+000	-5.92450E-001	-8.29272E-004	10	..........a	-327.74
	1904	2.12725	-5.86401E-001	-8.49406E-005	0.00000E+000	-5.85400E-001	-8.00701E-004	10	..........a	-327.74
	1911	2.13507	-5.79355E-001	-6.78194E-005	0.00000E+000	-5.78350E-001	-8.14986E-004	10	..........a	-327.74
	1918	2.14288	-5.72324E-001	-4.64564E-005	0.00000E+000	-5.71350E-001	-9.00701E-004	10	..........a	-327.74
	1925	2.1507	-5.65324E-001	-1.61473E-005	0.00000E+000	-5.64300E-001	-8.14986E-004	10	..........a	-327.74
	1932	2.15852	-5.58324E-001	2.25683E-005	0.00000E+000	-5.57250E-001	-8.43558E-004	10	..........a	-327.74
	1939	2.16633	-5.51232E-001	6.88419E-005	0.00000E+000	-5.50250E-001	-8.57844E-004	10	..........a	-327.74
	1946	2.17415	-5.44178E-001	1.29152E-004	0.00000E+000	-5.43200E-001	-8.72129E-004	10	..........a	-327.74
	1953	2.18197	-5.37163E-001	2.00413E-004	0.00000E+000	-5.36150E-001	-8.43558E-004	10	..........a	-327.74
	1960	2.18978	-5.30132E-001	2.82394E-004	0.00000E+000	-5.29100E-001	-7.86415E-004	10	..........a	-327.74
	1967	2.1976	-5.23163E-001	3.65378E-004	0.00000E+000	-5.22100E-001	-8.72129E-004	10	..........a	-327.74
	1974	2.20542	-5.16086E-001	4.45586E-004	0.00000E+000	-5.15050E-001	-8.00701E-004	10	..........a	-327.74
	1981	2.21323	-5.09071E-001	5.16076E-004	0.00000E+000	-5.08000E-001	-8.72129E-004	10	..........a	-327.74
	1988	2.22105	-5.02024E-001	5.61424E-004	0.00000E+000	-5.01000E-001	-8.43558E-004	10	..........a	-327.74
	1995	2.22887	-4.94978E-001	5.86874E-004	0.00000E+000	-4.93950E-001	-8.72129E-004	10	..........a	-327.74
	2002	2.23668	-4.87971E-001	5.92967E-004	0.00000E+000	-4.86900E-001	-8.43558E-004	10	..........a	-327.74
	2009	2.2445	-4.81024E-001	5.80319E-004	0.00000E+000	-4.79900E-001	-8.00701E-004	10	..........a	-327.74
	2016	2.25232	-4.73917E-001	5.59650E-004	0.00000E+000	-4.72850E-001	-8.86415E-004	10	..........a	-327.74
	2023	2.26013	-4.66878E-001	5.31192E-004	0.00000E+000	-4.65800E-001	-8.43558E-004	10	..........a	-327.74
	2030	2.26795	-4.59801E-001	5.00497E-004	0.00000E+000	-4.58750E-001	-8.57844E-004	10	..........a	-327.74
	2037	2.27577	-4.52763E-001	4.70188E-004	0.00000E+000	-4.51750E-001	-7.57844E-004	10	..........a	-327.74
	2044	2.28358	-4.45832E-001	4.39647E-004	0.00000E+000	-4.44700E-001	-8.72129E-004	10	..........a	-327.74
	2051	2.2914	-4.38732E-001	4.11575E-004	0.00000E+000	-4.37650E-001	-8.00701E-004	10	..........a	-327.74
	2058	2.29922	-4.31732E-001	3.85893E-004	0.00000E+000	-4.30650E-001	-9.14986E-004	10	..........a	-327.74
	2065	2.30703	-4.24678E-001	3.62371E-004	0.00000E+000	-4.23600E-001	-9.00701E-004	10	..........a	-327.74
	2072	2.31485	-4.17632E-001	3.40930E-004	0.00000E+000	-4.16550E-001	-8.29272E-004	10	..........a	-327.74
	2079	2.32267	-4.10624E-001	3.23115E-004	0.00000E+000	-4.09550E-001	-8.14986E-004	10	..........a	-327.74
	2086	2.33048	-4.03594E-001	3.05840E-004	0.00000E+000	-4.02500E-001	-9.00701E-004	10	..........a	-327.74
	2093	2.3383	-3.96547E-001	2.91649E-004	0.00000E+000	-3.95450E-001	-8.14986E-004	10	..........a	-327.74
	2100	2.34612	-3.89447E-001	2.79078E-004	0.00000E+000	-3.88400E-001	-8.72129E-004	10	..........a	-327.74
	2107	2.35393	-3.82555E-001	2.66044E-004	0.00000E+000	-3.81400E-001	-8.86415E-004	10	..........a	-327.74
	2114	2.36175	-3.75463E-001	2.55016E-004	0.00000E+000	-3.74350E-001	-8.29272E-004	10	..........a	-327.74
	2121	2.36957	-3.68394E-001	2.44759E-004	0.00000E+000	-3.67300E-001	-8.00701E-004	10	..........a	-327.74
	2128	2.37738	-3.61432E-001	2.37123E-004	0.00000E+000	-3.60300E-001	-8.29272E-004	10	..........a	-327.74
	2135	2.3852	-3.54371E-001	2.27946E-004	0.00000E+000	-3.53250E-001	-8.29272E-004	10	..........a	-327.74
	2142	2.39302	-3.47286E-001	2.20851E-004	0.00000E+000	-3.46200E-001	-7.86415E-004	10	..........a	-327.74
	2149	2.40083	-3.40317E-001	2.12290E-004	0.00000E+000	-3.39200E-001	-8.72129E-004	10	..........a	-327.74
	2156	2.40865	-3.33263E-001	2.06429E-004	0.00000E+000	-3.32150E-001	-8.72129E-004	10	..........a	-327.74
	2163	2.41647	-3.26217E-001	1.99642E-004	0.00000E+000	-3.25100E-001	-7.86415E-004	10	..........a	-327.74
	2170	2.42428	-3.19094E-001	1.94475E-004	0.00000E+000	-3.18050E-001	-8.72129E-004	10	..........a	-327.74
	2177	2.4321	-3.12147E-001	1.89770E-004	0.00000E+000	-3.11050E-001	-8.43558E-004	10	..........a	-327.74
	2184	2.43992	-3.05171E-001	1.83292E-004	0.00000E+000	-3.04000E-001	-8.29272E-004	10	..........a	-327.74
	2191	2.44773	-2.98086E-001	1.78356E-004	0.00000E+000	-2.96950E-001	-8.43558E-004	10	..........a	-327.74
	2198	2.45555	-2.91147E-001	1.74191E-004	0.00000E+000	-2.89950E-001	-8.86415E-004	10	..........a	-327.74
	2205	2.46337	-2.83978E-001	1.70104E-004	0.00000E+000	-2.82900E-001	-8.72129E-004	10	..........a	-327.74
	2212	2.47118	-2.76994E-001	1.65862E-004	0.00000E+000	-2.75850E-001	-9.14986E-004	10	..........a	-327.74
	2219	2.479	-2.70001E-001	1.62700E-004	0.00000E+000	-2.68850E-001	-8.86415E-004	10	..........a	-327.74
	2226	2.48682	-2.62940E-001	1.57533E-004	0.00000E+000	-2.61800E-001	-8.57844E-004	10	..........a	-327.74
	2233	2.49463	-2.55963E-001	1.54062E-004	0.00000E+000	-2.54750E-001	-8.72129E-004	10	..........a	-327.74
	2240	2.50245	-2.48855E-001	1.52057E-004	0.00000E+000	-2.47700E-001	-7.86415E-004	10	..........a	-327.74
	2247	2.51027	-2.41863E-001	1.48895E-004	0.00000E+000	-2.40700E-001	-8.29272E-004	10	..........a	-327.74
	2254	2.51808	-2.34755E-001	1.44962E-004	0.00000E+000	-2.33650E-001	-8.86415E-004	10	..........a	-327.74
	2261	2.5259	-2.27701E-001	1.42417E-004	0.00000E+000	-2.26600E-001	-8.43558E-004	10	..........a	-327.74
	2268	2.53372	-2.20747E-001	1.40412E-004	0.00000E+000	-2.19600E-001	-9.43558E-004	10	..........a	-327.74
	2275	2.54153	-2.13724E-001	1.37404E-004	0.00000E+000	-2.12550E-001	-8.14986E-004	10	..........a	-327.74
	2282	2.54935	-2.06686E-001	1.35090E-004	0.00000E+000	-2.05500E-001	-8.14986E-004	10	..........a	-327.74
	2289	2.55717	-1.99647E-001	1.32005E-004	0.00000E+000	-1.98500E-001	-9.00701E-004	10	..........a	-327.74
	2296	2.56498	-1.92601E-001	1.30694E-004	0.00000E+000	-1.91450E-001	-9.00701E-004	10	..........a	-327.74
	2303	2.5728	-1.85578E-001	1.27069E-004	0.00000E+000	-1.84400E-001	-8.14986E-004	10	..........a	-327.74
	2310	2.58062	-1.78571E-001	1.24833E-004	0.00000E+000	-1.77350E-001	-9.00701E-004	10	..........a	-327.74
	2317	2.58843	-1.71547E-001	1.22596E-004	0.00000E+000	-1.70350E-001	-8.29272E-004	10	..........a	-327.74
	2324	2.59625	-1.64547E-001	1.20283E-004	0.00000E+000	-1.63300E-001	-8.86415E-004	10	..........a	-327.74
	2331	2.60407	-1.57386E-001	1.18817E-004	0.00000E+000	-1.56250E-001	-9.00701E-004	10	..........a	-327.74
	2338	2.61188	-1.50471E-001	1.17660E-004	0.00000E+000	-1.49250E-001	-8.29272E-004	10	..........a	-327.74
	2345	2.6197	-1.43371E-001	1.15578E-004	0.00000E+000	-1.42200E-001	-9.29272E-004	10	..........a	-327.74
	2352	2.62752	-1.36378E-001	1.12725E-004	0.00000E+000	-1.35150E-001	-9.00701E-004	10	..........a	-327.74
	2359	2.63533	-1.29340E-001	1.10951E-004	0.00000E+000	-1.28150E-001	-8.57844E-004	10	..........a	-327.74
	2366	2.64315	-1.22263E-001	1.10411E-004	0.00000E+000	-1.21100E-001	-9.00701E-004	10	..........a	-327.74
	2373	2.65097	-1.15301E-001	1.07326E-004	0.00000E+000	-1.14050E-001	-8.57844E-004	10	..........a	-327.74
	2380	2.65878	-1.08217E-001	1.05784E-004	0.00000E+000	-1.07000E-001	-8.72129E-004	10	..........a	-327.74
	2387	2.6666	-1.01247E-001	1.04627E-004	0.00000E+000	-1.00000E-001	-8.43558E-004	10	..........a	-327.74
	2394	2.67442	-9.41859E-002	1.03084E-004	0.00000E+000	-9.29500E-002	-9.00701E-004	10	..........a	-327.74
	2401	2.68223	-8.70551E-002	1.01542E-004	0.00000E+000	-8.59000E-002	-8.86415E-004	10	..........a	-327.74
	2408	2.69005	-8.00936E-002	1.00154E-004	0.00000E+000	-7.89000E-002	-8.29272E-004	10	..........a	-327.74
	2415	2.69787	-7.30705E-002	9.81485E-005	0.00000E+000	-7.18500E-002	-8.43558E-004	10	..........a	-327.74
	2422	2.70568	-6.59705E-002	9.76857E-005	0.00000E+000	-6.48000E-002	-8.57844E-004	10	..........a	-327.74
	2429	2.7135	-5.90398E-002	9.62204E-005	0.00000E+000	-5.78000E-002	-8.43558E-004	10	..........a	-327.74
	2436	2.72132	-5.19167E-002	9.44466E-005	0.00000E+000	-5.07500E-002	-8.00701E-004	10	..........a	-327.74
	2443	2.72913	-4.49167E-002	9.24414E-005	0.00000E+000	-4.37000E-002	-8.72129E-004	10	..........a	-327.74
	2450	2.73695	-3.79167E-002	9.22100E-005	0.00000E+000	-3.66500E-002	-8.43558E-004	10	..........a	-327.74
	2457	2.74477	-3.08398E-002	9.12074E-005	0.00000E+000	-2.96500E-002	-8.57844E-004	10	..........a	-327.74
	2464	2.75258	-2.38859E-002	8.96650E-005	0.00000E+000	-2.26000E-002	-8.14986E-004	10	..........a	-327.74
	2471	2.7604	-1.67475E-002	8.90480E-005	0.00000E+000	-1.55500E-002	-7.72129E-004	10	..........a	-327.74
	2478	2.76822	-9.82438E-003	8.85081E-005	0.00000E+000	-8.55000E-003	-8.57844E-004	10	..........a	-327.74
	2485	2.77603	-2.76284E-003	8.66572E-005	0.00000E+000	-1.50001E-003	-7.57844E-004	10	..........a	-327.74
	2492	2.78385	4.37562E-003	8.55003E-005	0.00000E+000	5.55000E-003	-8.14986E-004	10	..........a	-327.74
	2499	2.79167	1.13295E-002	8.44206E-005	0.00000E+000	1.25500E-002	-8.86415E-004	10	..........a	-327.74
	2506	2.79948	1.83602E-002	8.38036E-005	0.00000E+000	1.96000E-002	-8.86415E-004	10	..........a	-327.74
	2513	2.8073	2.54218E-002	8.38036E-005	0.00000E+000	2.66500E-002	-8.57844E-004	10	..........a	-327.74
	2520	2.81512	3.24756E-002	8.26468E-005	0.00000E+000	3.37000E-002	-8.29272E-004	10	..........a	-327.74
	2527	2.82293	3.94448E-002	8.09501E-005	0.00000E+000	4.07000E-002	-8.43558E-004	10	..........a	-327.74
	2534	2.83075	4.64602E-002	8.11044E-005	0.00000E+000	4.77500E-002	-8.29272E-004	10	..........a	-327.74
	2541	2.83857	5.35448E-002	8.04103E-005	0.00000E+000	5.48000E-002	-8.57844E-004	10	..........a	-327.74
	2548	2.84638	6.05448E-002	7.92534E-005	0.00000E+000	6.18000E-002	-9.00701E-004	10	..........a	-327.74
	2555	2.8542	6.76679E-002	7.80195E-005	0.00000E+000	6.88500E-002	-8.86415E-004	10	..........a	-327.74
	2562	2.86202	7.46679E-002	7.65541E-005	0.00000E+000	7.59000E-002	-8.72129E-004	10	..........a	-327.74
	2569	2.86983	8.16295E-002	7.64770E-005	0.00000E+000	8.29000E-002	-8.57844E-004	10	..........a	-327.74
	2576	2.87765	8.86756E-002	7.54744E-005	0.00000E+000	8.99500E-002	-9.00701E-004	10	..........a	-327.74
	2583	2.88547	9.57218E-002	7.40862E-005	0.00000E+000	9.70000E-002	-8.57844E-004	10	..........a	-327.74
	2590	2.89328	1.02822E-001	7.33150E-005	0.00000E+000	1.04050E-001	-7.86415E-004	10	..........a	-327.74
	2597	2.9011	1.09776E-001	7.18496E-005	0.00000E+000	1.11050E-001	-7.86415E-004	10	..........a	-327.74
	2604	2.90892	1.16783E-001	7.13869E-005	0.00000E+000	1.18100E-001	-8.14986E-004	10	..........a	-327.74
	2611	2.91673	1.23822E-001	7.06928E-005	0.00000E+000	1.25150E-001	-8.57844E-004	10	..........a	-327.74
	2618	2.92455	1.30899E-001	6.97673E-005	0.00000E+000	1.32150E-001	-8.43558E-004	10	..........a	-327.74
	2625	2.93237	1.37960E-001	6.92275E-005	0.00000E+000	1.39200E-001	-8.43558E-004	10	..........a	-327.74
	2632	2.94018	1.45014E-001	6.69909E-005	0.00000E+000	1.46250E-001	-8.29272E-004	10	..........a	-327.74
	2639	2.948	1.51937E-001	6.72223E-005	0.00000E+000	1.53250E-001	-8.14986E-004	10	..........a	-327.74
	2646	2.95582	1.59029E-001	6.69138E-005	0.00000E+000	1.60300E-001	-8.86415E-004	10	..........a	-327.74
	2653	2.96363	1.66068E-001	6.52171E-005	0.00000E+000	1.67350E-001	-8.72129E-004	10	..........a	-327.74
	2660	2.97145	1.73114E-001	6.32890E-005	0.00000E+000	1.74400E-001	-8.57844E-004	10	..........a	-327.74
	2667	2.97927	1.80099E-001	6.35204E-005	0.00000E+000	1.81400E-001	-8.57844E-004	10	..........a	-327.74
	2674	2.98708	1.87191E-001	6.22864E-005	0.00000E+000	1.88450E-001	-8.57844E-004	10	..........a	-327.74
	2681	2.9949	1.94176E-001	6.08982E-005	0.00000E+000	1.95500E-001	-8.86415E-004	10	..........a	-327.74
	2688	3.00272	2.01214E-001	6.10525E-005	0.00000E+000	2.02500E-001	-9.14986E-004	10	..........a	-327.74
	2695	3.01053	2.08222E-001	5.93558E-005	0.00000E+000	2.09550E-001	-8.57844E-004	10	..........a	-327.74
	2702	3.01835	2.15291E-001	5.95872E-005	0.00000E+000	2.16600E-001	-9.00701E-004	10	..........a	-327.74
	2709	3.02617	2.22276E-001	5.82761E-005	0.00000E+000	2.23600E-001	-8.29272E-004	10	..........a	-327.74
	2716	3.03398	2.29345E-001	5.78133E-005	0.00000E+000	2.30650E-001	-8.29272E-004	10	..........a	-327.74
	2723	3.0418	2.36391E-001	5.76591E-005	0.00000E+000	2.37700E-001	-8.43558E-004	10	..........a	-327.74
	2730	3.04962	2.43399E-001	5.51140E-005	0.00000E+000	2.44750E-001	-9.00701E-004	10	..........a	-327.74
	2737	3.05743	2.50414E-001	5.54996E-005	0.00000E+000	2.51750E-001	-8.14986E-004	10	..........a	-327.74
	2744	3.06525	2.57414E-001	5.49598E-005	0.00000E+000	2.58800E-001	-9.00701E-004	10	..........a	-327.74
	2751	3.07307	2.64514E-001	5.42657E-005	0.00000E+000	2.65850E-001	-8.86415E-004	10	..........a	-327.74
	2758	3.08088	2.71499E-001	5.38801E-005	0.00000E+000	2.72850E-001	-8.29272E-004	10	..........a	-327.74
	2765	3.0887	2.78483E-001	5.42657E-005	0.00000E+000	2.79900E-001	-8.43558E-004	10	..........a	-327.74
	2772	3.09652	2.85653E-001	5.21063E-005	0.00000E+000	2.86950E-001	-8.86415E-004	10	..........a	-327.74
	2779	3.10433	2.92637E-001	5.31088E-005	0.00000E+000	2.94000E-001	-9.00701E-004	10	..........a	-327.74
	2786	3.11215	2.99606E-001	5.17206E-005	0.00000E+000	3.01000E-001	-8.57844E-004	10	..........a	-327.74
	2793	3.11997	3.06683E-001	5.13350E-005	0.00000E+000	3.08050E-001	-8.29272E-004	10	..........a	-327.74
	2800	3.12778	3.13722E-001	5.11037E-005	0.00000E+000	3.15100E-001	-8.86415E-004	10	..........a	-327.74
	2807	3.1356	3.20706E-001	4.98697E-005	0.00000E+000	3.22100E-001	-8.00701E-004	10	..........a	-327.74
	2814	3.14342	3.27729E-001	5.07952E-005	0.00000E+000	3.29150E-001	-8.86415E-004	10	..........a	-327.74
	2821	3.15123	3.34768E-001	5.08723E-005	0.00000E+000	3.36200E-001	-8.00701E-004	10	..........a	-327.74
	2828	3.15905	3.41891E-001	4.93298E-005	0.00000E+000	3.43200E-001	-8.86415E-004	10	..........a	-327.74
	2835	3.16687	3.48814E-001	4.94841E-005	0.00000E+000	3.50250E-001	-8.86415E-004	10	..........a	-327.74
	2842	3.17468	3.55953E-001	4.94070E-005	0.00000E+000	3.57300E-001	-8.29272E-004	10	..........a	-327.74
	2849	3.1825	3.62953E-001	4.86357E-005	0.00000E+000	3.64350E-001	-8.72129E-004	10	..........a	-327.74
	2856	3.19032	3.69960E-001	4.88671E-005	0.00000E+000	3.71350E-001	-8.43558E-004	10	..........a	-327.74
	2863	3.19813	3.77068E-001	4.75560E-005	0.00000E+000	3.78400E-001	-8.43558E-004	10	..........a	-327.74
	2870	3.20595	3.84045E-001	4.84815E-005	0.00000E+000	3.85450E-001	-8.57844E-004	10	..........a	-327.74
	2877	3.21377	3.91014E-001	4.82501E-005	0.00000E+000	3.92450E-001	-8.72129E-004	10	..........a	-327.74
	2884	3.22158	3.98191E-001	4.75560E-005	0.00000E+000	3.99500E-001	-8.86415E-004	10	..........a	-327.74
	2891	3.2294	4.05176E-001	4.57051E-005	0.00000E+000	4.06550E-001	-8.43558E-004	10	..........a	-327.74
	2898	3.23722	4.12222E-001	4.67848E-005	0.00000E+000	4.13550E-001	-8.57844E-004	10	..........a	-327.74
	2905	3.24503	4.19153E-001	4.50881E-005	0.00000E+000	4.20600E-001	-8.00701E-004	10	..........a	-327.74
	2912	3.25285	4.26176E-001	4.50110E-005	0.00000E+000	4.27650E-001	-8.57844E-004	10	..........a	-327.74
	2919	3.26067	4.33276E-001	4.53195E-005	0.00000E+000	4.34700E-001	-9.29272E-004	10	..........a	-327.74
	2926	3.26848	4.40245E-001	4.46254E-005	0.00000E+000	4.41700E-001	-8.14986E-004	10	..........a	-327.74
	2933	3.2763	4.47345E-001	4.42398E-005	0.00000E+000	4.48750E-001	-7.86415E-004	10	..........a	-327.74
	2940	3.28412	4.54353E-001	4.42398E-005	0.00000E+000	4.55800E-001	-9.29272E-004	10	..........a	-327.74
	2947	3.29193	4.61353E-001	4.40855E-005	0.00000E+000	4.62800E-001	-9.14986E-004	10	..........a	-327.74
	2954	3.29975	4.68453E-001	4.31600E-005	0.00000E+000	4.69850E-001	-7.72129E-004	10	..........a	-327.74
	2961	3.30757	4.75399E-001	4.47796E-005	0.00000E+000	4.76900E-001	-9.14986E-004	10	..........a	-327.74
	2968	3.31538	4.82568E-001	4.36999E-005	0.00000E+000	4.83900E-001	-8.86415E-004	10	..........a	-327.74
	2975	3.3232	4.89476E-001	4.26202E-005	0.00000E+000	4.90950E-001	-8.72129E-004	10	..........a	-327.74
	2982	3.33102	4.96553E-001	4.26202E-005	0.00000E+000	4.98000E-001	-8.43558E-004	10	..........a	-327.74
	2984	3.33325	4.98591E-001	4.27744E-005	0.00000E+000	5.00000E-001	-8.86415E-004	10	..........a	-327.74
CURVE2	TABLE
	Pt	T	Vf	Im	Vu	Sig	Ach	IERange	Over	Temp
	#	s	V vs. Ref.	A	V	V	V	#	bits	deg C
	2985	3.33437	4.98591E-001	4.07692E-005	0.00000E+000	5.00000E-001	-7.72129E-004	10	..........a	-327.74