File: data/02-SI/Figures_S9_S11_RDE/18btmapaq-rde/1mkcl-18btmapaq-nitrogen-200mvpers.DTA
EXPLAIN
TAG	CV
TITLE	LABEL	Cyclic Voltammetry	Test &Identifier
DATE	LABEL	1/31/2023	Date
TIME	LABEL	15:20:25	Time
NOTES	NOTES	1	&Notes...

PSTAT	PSTAT	REF3000-21108	Potentiostat
VINIT	POTEN	5.00000E-001	F	Initial &E (V)
VLIMIT1	POTEN	-1.00000E+000	F	Scan Limit &1 (V)
VLIMIT2	POTEN	5.00000E-001	F	Scan Limit &2 (V)
VFINAL	POTEN	5.00000E-001	F	Final &E (V)
SCANRATE	QUANT	2.00000E+002	&Scan Rate (mV/s)
STEPSIZE	QUANT	1.00000E+000	St&ep Size (mV)
CYCLES	IQUANT	1	C&ycles (#)
IMODE	SELECTOR	1	I/E Range &Mode
IRANGE	QUANT	1.00000E+001	&Max Current (mA)
AREA	QUANT	1.00000E+000	Electrode &Area (cm^2)
ELECTRODETYPE	SELECTOR	0	Electrode Type
STRIPPING	TOGGLE	F	Used for Stripping
POLARITY	TOGGLE	F	Signal Polarity
CONDIT	TWOPARAM	F	1.50000E+001	0.00000E+000	Conditionin&g	Time(s)	E(V)
DELAY	TWOPARAM	F	5.00000E+000	0.00000E+000	Init. De&lay	Time(s)	Stab.(mV/s)
EQDELAY	QUANT	0.00000E+000	Equil. &Time (s)
IRCOMP	SELECTOR	0	IRCom&p
PFCOR	QUANT	5.00000E+001	PF Corr. (ohm)
SAMPLINGMODE	SELECTOR	1	Sampling &Mode
EOC	QUANT	0	Open Circuit (V)
PSTATMODEL	IQUANT	5	Pstat Model
PSTATSECTION	LABEL	REF3000-21108	Pstat Section
PSTATSERIALNO	LABEL	21108	Pstat Serial Number
CTRLMODE	IQUANT	1	Control Mode
ELECTROMETER	IQUANT	0	RE=0 or CS=1
IESTAB	IQUANT	2	I/E Stability
CASPEED	IQUANT	4	Control Amp Speed
CONVENTION	IQUANT	1	Current Convention
ICHRANGE	IQUANT	2	Ich Range
ICHRANGEMODE	TOGGLE	F	Ich Auto Range
ICHOFFSETENABLE	TOGGLE	F	Ich Offset Enable
ICHOFFSET	QUANT	0	Ich Offset (V)
ICHFILTER	IQUANT	2	Ich Filter
VCHRANGE	IQUANT	2	Vch Range
VCHRANGEMODE	TOGGLE	F	Vch Auto Range
VCHOFFSETENABLE	TOGGLE	F	Vch Offset Enable
VCHOFFSET	QUANT	0	Vch Offset (V)
VCHFILTER	IQUANT	2	Vch Filter
ACHRANGE	IQUANT	2	Ach Range
ACHOFFSETENABLE	TOGGLE	F	Ach Offset Enable
ACHOFFSET	QUANT	0	Ach Offset (V)
ACHFILTER	IQUANT	0	Ach Filter
IERANGELOWERLIMIT	IQUANT	2	I/E Range Lower Limit
IERANGEMODE	TOGGLE	F	I/E AutoRange
IERANGE	IQUANT	10	I/E Range
POSFEEDENABLE	TOGGLE	F	Positive Feedback IR Comp
POSFEEDRESISTANCE	QUANT	0	Positive Feedback Resistance (ohm)
ACHSELECT	IQUANT	0	Ach Select
SENSECABLEID	IQUANT	14	Sense Cable ID
PWRCABLEID	IQUANT	7	Power Cable ID
DCCALDATE	LABEL	11/9/2022	DC Calibration Date
ACCALDATE	LABEL	11/9/2022	AC Calibration Date
THERMOSELECT	IQUANT	1	Thermo Select
FRAMEWORKVERSION	LABEL	7.8.2	Framework Version
INSTRUMENTVERSION	LABEL	4.40	Instrument Version
COMPLIANCEVOLTAGE	IQUANT	0	Compliance Voltage
CURVE1	TABLE
	Pt	T	Vf	Im	Vu	Sig	Ach	IERange	Over	Temp
	#	s	V vs. Ref.	A	V	V	V	#	bits	deg C
	0	0.005	4.98798E-001	4.61625E-006	0.00000E+000	5.00000E-001	-7.59272E-004	10	..........a	-327.74
	7	0.04	4.91793E-001	2.19332E-006	0.00000E+000	4.93000E-001	-7.62605E-004	10	..........a	-327.74
	14	0.075	4.84814E-001	1.20743E-006	0.00000E+000	4.86000E-001	-7.62605E-004	10	..........a	-327.74
	21	0.11	4.77853E-001	4.22067E-007	0.00000E+000	4.79000E-001	-7.65939E-004	10	..........a	-327.74
	28	0.145	4.70809E-001	2.88388E-007	0.00000E+000	4.72000E-001	-7.39272E-004	10	..........a	-327.74
	35	0.18	4.63831E-001	2.10292E-008	0.00000E+000	4.65000E-001	-7.75939E-004	10	..........a	-327.74
	42	0.215	4.56906E-001	-1.29360E-007	0.00000E+000	4.58000E-001	-7.45939E-004	10	..........a	-327.74
	49	0.25	4.49824E-001	-1.29360E-007	0.00000E+000	4.51000E-001	-7.82606E-004	10	..........a	-327.74
	56	0.285	4.42816E-001	-2.63039E-007	0.00000E+000	4.44000E-001	-7.79272E-004	10	..........a	-327.74
	63	0.32	4.35849E-001	-7.14206E-007	0.00000E+000	4.37000E-001	-7.85939E-004	10	..........a	-327.74
	70	0.355	4.28796E-001	-5.97237E-007	0.00000E+000	4.30000E-001	-8.19272E-004	10	..........a	-327.74
	77	0.39	4.21838E-001	-5.80527E-007	0.00000E+000	4.23000E-001	-7.59272E-004	10	..........a	-327.74
	84	0.425	4.14811E-001	-9.31435E-007	0.00000E+000	4.16000E-001	-7.22606E-004	10	..........a	-327.74
	91	0.46	4.07818E-001	-9.48145E-007	0.00000E+000	4.09000E-001	-7.95939E-004	10	..........a	-327.74
	98	0.495	4.00869E-001	-1.08182E-006	0.00000E+000	4.02000E-001	-7.69272E-004	10	..........a	-327.74
	105	0.53	3.93853E-001	-1.36589E-006	0.00000E+000	3.95000E-001	-7.12606E-004	10	..........a	-327.74
	112	0.565	3.86823E-001	-1.38260E-006	0.00000E+000	3.88000E-001	-7.22606E-004	10	..........a	-327.74
	119	0.6	3.79833E-001	-1.53299E-006	0.00000E+000	3.81000E-001	-7.35939E-004	10	..........a	-327.74
	126	0.635	3.72816E-001	-1.58312E-006	0.00000E+000	3.74000E-001	-7.69272E-004	10	..........a	-327.74
	133	0.67	3.65873E-001	-1.68338E-006	0.00000E+000	3.67000E-001	-7.25939E-004	10	..........a	-327.74
	140	0.705	3.58821E-001	-2.10113E-006	0.00000E+000	3.60000E-001	-7.55939E-004	10	..........a	-327.74
	147	0.74	3.51789E-001	-1.76693E-006	0.00000E+000	3.53000E-001	-7.52606E-004	10	..........a	-327.74
	154	0.775	3.44876E-001	-2.28494E-006	0.00000E+000	3.46000E-001	-7.19272E-004	10	..........a	-327.74
	161	0.81	3.37878E-001	-2.38520E-006	0.00000E+000	3.39000E-001	-7.29272E-004	10	..........a	-327.74
	168	0.845	3.30871E-001	-2.23481E-006	0.00000E+000	3.32000E-001	-7.52606E-004	10	..........a	-327.74
	175	0.88	3.23816E-001	-2.21810E-006	0.00000E+000	3.25000E-001	-7.42605E-004	10	..........a	-327.74
	182	0.915	3.16871E-001	-2.03429E-006	0.00000E+000	3.18000E-001	-7.75939E-004	10	..........a	-327.74
	189	0.95	3.09891E-001	-2.56901E-006	0.00000E+000	3.11000E-001	-7.52606E-004	10	..........a	-327.74
	196	0.985	3.02881E-001	-2.48546E-006	0.00000E+000	3.04000E-001	-7.32606E-004	10	..........a	-327.74
	203	1.02	2.95764E-001	-1.96745E-006	0.00000E+000	2.97000E-001	-7.49272E-004	10	..........a	-327.74
	210	1.055	2.88941E-001	-2.26823E-006	0.00000E+000	2.90000E-001	-7.09272E-004	10	..........a	-327.74
	217	1.09	2.81876E-001	-2.25152E-006	0.00000E+000	2.83000E-001	-7.65939E-004	10	..........a	-327.74
	224	1.125	2.74873E-001	-2.28494E-006	0.00000E+000	2.76000E-001	-7.55939E-004	10	..........a	-327.74
	231	1.16	2.67904E-001	-2.40191E-006	0.00000E+000	2.69000E-001	-7.65939E-004	10	..........a	-327.74
	238	1.195	2.60888E-001	-2.01758E-006	0.00000E+000	2.62000E-001	-7.12606E-004	10	..........a	-327.74
	245	1.23	2.53883E-001	-2.36849E-006	0.00000E+000	2.55000E-001	-7.72606E-004	10	..........a	-327.74
	252	1.265	2.46876E-001	-1.93403E-006	0.00000E+000	2.48000E-001	-7.39272E-004	10	..........a	-327.74
	259	1.3	2.39908E-001	-2.43533E-006	0.00000E+000	2.41000E-001	-7.39272E-004	10	..........a	-327.74
	266	1.335	2.32931E-001	-2.28494E-006	0.00000E+000	2.34000E-001	-7.62605E-004	10	..........a	-327.74
	273	1.37	2.25881E-001	-2.35178E-006	0.00000E+000	2.27000E-001	-7.19272E-004	10	..........a	-327.74
	280	1.405	2.18848E-001	-2.21810E-006	0.00000E+000	2.20000E-001	-7.99272E-004	10	..........a	-327.74
	287	1.44	2.11899E-001	-2.41862E-006	0.00000E+000	2.13000E-001	-7.29272E-004	10	..........a	-327.74
	294	1.475	2.04936E-001	-2.43533E-006	0.00000E+000	2.06000E-001	-7.12606E-004	10	..........a	-327.74
	301	1.51	1.97934E-001	-2.71939E-006	0.00000E+000	1.99000E-001	-7.45939E-004	10	..........a	-327.74
	308	1.545	1.90926E-001	-2.73610E-006	0.00000E+000	1.92000E-001	-7.52606E-004	10	..........a	-327.74
	315	1.58	1.83926E-001	-2.61913E-006	0.00000E+000	1.85000E-001	-7.49272E-004	10	..........a	-327.74
	322	1.615	1.76986E-001	-2.40191E-006	0.00000E+000	1.78000E-001	-7.29272E-004	10	..........a	-327.74
	329	1.65	1.69951E-001	-2.71939E-006	0.00000E+000	1.71000E-001	-7.49272E-004	10	..........a	-327.74
	336	1.685	1.62918E-001	-2.91991E-006	0.00000E+000	1.64000E-001	-6.85939E-004	10	..........a	-327.74
	343	1.72	1.55951E-001	-2.80294E-006	0.00000E+000	1.57000E-001	-7.19272E-004	10	..........a	-327.74
	350	1.755	1.48933E-001	-2.41862E-006	0.00000E+000	1.50000E-001	-7.29272E-004	10	..........a	-327.74
	357	1.79	1.41883E-001	-2.45204E-006	0.00000E+000	1.43000E-001	-7.22606E-004	10	..........a	-327.74
	364	1.825	1.34924E-001	-2.68597E-006	0.00000E+000	1.36000E-001	-6.89272E-004	10	..........a	-327.74
	371	1.86	1.27934E-001	-3.03688E-006	0.00000E+000	1.29000E-001	-7.12606E-004	10	..........a	-327.74
	378	1.895	1.20978E-001	-2.63585E-006	0.00000E+000	1.22000E-001	-7.25939E-004	10	..........a	-327.74
	385	1.93	1.13979E-001	-2.66926E-006	0.00000E+000	1.15000E-001	-6.92606E-004	10	..........a	-327.74
	392	1.965	1.06929E-001	-2.35178E-006	0.00000E+000	1.08000E-001	-7.15939E-004	10	..........a	-327.74
	399	2	1.00011E-001	-2.61913E-006	0.00000E+000	1.01000E-001	-7.19272E-004	10	..........a	-327.74
	406	2.035	9.29427E-002	-2.51888E-006	0.00000E+000	9.40000E-002	-7.35939E-004	10	..........a	-327.74
	413	2.07	8.59994E-002	-2.53559E-006	0.00000E+000	8.70000E-002	-7.65939E-004	10	..........a	-327.74
	420	2.105	7.89227E-002	-2.63585E-006	0.00000E+000	8.00000E-002	-7.02605E-004	10	..........a	-327.74
	427	2.14	7.19477E-002	-2.50217E-006	0.00000E+000	7.30000E-002	-7.22606E-004	10	..........a	-327.74
	434	2.175	6.49894E-002	-2.53559E-006	0.00000E+000	6.60000E-002	-7.59272E-004	10	..........a	-327.74
	441	2.21	5.79577E-002	-2.26823E-006	0.00000E+000	5.90000E-002	-7.15939E-004	10	..........a	-327.74
	448	2.245	5.09294E-002	-2.46875E-006	0.00000E+000	5.20000E-002	-7.42605E-004	10	..........a	-327.74
	455	2.28	4.40611E-002	-2.58572E-006	0.00000E+000	4.50000E-002	-7.79272E-004	10	..........a	-327.74
	462	2.315	3.70011E-002	-2.41862E-006	0.00000E+000	3.80000E-002	-7.55939E-004	10	..........a	-327.74
	469	2.35	2.99994E-002	-2.40191E-006	0.00000E+000	3.10000E-002	-7.59272E-004	10	..........a	-327.74
	476	2.385	2.29677E-002	-2.33507E-006	0.00000E+000	2.40000E-002	-7.32606E-004	10	..........a	-327.74
	483	2.42	1.58894E-002	-2.40191E-006	0.00000E+000	1.70000E-002	-7.75939E-004	10	..........a	-327.74
	490	2.455	9.02106E-003	-2.76952E-006	0.00000E+000	9.99999E-003	-7.42605E-004	10	..........a	-327.74
	497	2.49	1.99939E-003	-2.81965E-006	0.00000E+000	2.99999E-003	-7.25939E-004	10	..........a	-327.74
	504	2.525	-5.05894E-003	-2.61913E-006	0.00000E+000	-4.00001E-003	-7.15939E-004	10	..........a	-327.74
	511	2.56	-1.19889E-002	-2.78623E-006	0.00000E+000	-1.10000E-002	-7.62605E-004	10	..........a	-327.74
	518	2.595	-1.90023E-002	-2.85307E-006	0.00000E+000	-1.80000E-002	-7.12606E-004	10	..........a	-327.74
	525	2.63	-2.59856E-002	-2.38520E-006	0.00000E+000	-2.50000E-002	-7.35939E-004	10	..........a	-327.74
	532	2.665	-3.30289E-002	-2.75281E-006	0.00000E+000	-3.20000E-002	-7.52606E-004	10	..........a	-327.74
	539	2.7	-3.99906E-002	-3.05359E-006	0.00000E+000	-3.90000E-002	-7.45939E-004	10	..........a	-327.74
	546	2.735	-4.69656E-002	-2.97004E-006	0.00000E+000	-4.60000E-002	-7.52606E-004	10	..........a	-327.74
	553	2.77	-5.39839E-002	-3.13714E-006	0.00000E+000	-5.30000E-002	-7.22606E-004	10	..........a	-327.74
	560	2.805	-6.10839E-002	-2.91991E-006	0.00000E+000	-6.00000E-002	-7.42605E-004	10	..........a	-327.74
	567	2.84	-6.79656E-002	-2.88649E-006	0.00000E+000	-6.70000E-002	-6.95939E-004	10	..........a	-327.74
	574	2.875	-7.49839E-002	-2.88649E-006	0.00000E+000	-7.40000E-002	-7.32606E-004	10	..........a	-327.74
	581	2.91	-8.19756E-002	-3.23740E-006	0.00000E+000	-8.10000E-002	-7.29272E-004	10	..........a	-327.74
	588	2.945	-8.90073E-002	-3.30424E-006	0.00000E+000	-8.80000E-002	-7.75939E-004	10	..........a	-327.74
	595	2.98	-9.59873E-002	-3.28753E-006	0.00000E+000	-9.50000E-002	-7.45939E-004	10	..........a	-327.74
	602	3.015	-1.02946E-001	-2.86978E-006	0.00000E+000	-1.02000E-001	-7.69272E-004	10	..........a	-327.74
	609	3.05	-1.09956E-001	-3.42121E-006	0.00000E+000	-1.09000E-001	-7.42605E-004	10	..........a	-327.74
	616	3.085	-1.16996E-001	-3.35437E-006	0.00000E+000	-1.16000E-001	-7.35939E-004	10	..........a	-327.74
	623	3.12	-1.23924E-001	-3.52147E-006	0.00000E+000	-1.23000E-001	-7.32606E-004	10	..........a	-327.74
	630	3.155	-1.30959E-001	-3.47134E-006	0.00000E+000	-1.30000E-001	-6.95939E-004	10	..........a	-327.74
	637	3.19	-1.38016E-001	-3.23740E-006	0.00000E+000	-1.37000E-001	-7.15939E-004	10	..........a	-327.74
	644	3.225	-1.45004E-001	-3.23740E-006	0.00000E+000	-1.44000E-001	-7.45939E-004	10	..........a	-327.74
	651	3.26	-1.51986E-001	-3.60502E-006	0.00000E+000	-1.51000E-001	-7.19272E-004	10	..........a	-327.74
	658	3.295	-1.58989E-001	-3.87238E-006	0.00000E+000	-1.58000E-001	-7.22606E-004	10	..........a	-327.74
	665	3.33	-1.65979E-001	-3.72199E-006	0.00000E+000	-1.65000E-001	-7.49272E-004	10	..........a	-327.74
	672	3.365	-1.73011E-001	-3.95593E-006	0.00000E+000	-1.72000E-001	-7.82606E-004	10	..........a	-327.74
	679	3.4	-1.79872E-001	-3.92251E-006	0.00000E+000	-1.79000E-001	-7.35939E-004	10	..........a	-327.74
	686	3.435	-1.87001E-001	-4.07290E-006	0.00000E+000	-1.86000E-001	-7.39272E-004	10	..........a	-327.74
	693	3.47	-1.93937E-001	-4.08961E-006	0.00000E+000	-1.93000E-001	-7.32606E-004	10	..........a	-327.74
	700	3.505	-2.01004E-001	-4.37367E-006	0.00000E+000	-2.00000E-001	-7.59272E-004	10	..........a	-327.74
	707	3.54	-2.07954E-001	-4.35696E-006	0.00000E+000	-2.07000E-001	-7.19272E-004	10	..........a	-327.74
	714	3.575	-2.15007E-001	-4.77471E-006	0.00000E+000	-2.14000E-001	-7.52606E-004	10	..........a	-327.74
	721	3.61	-2.21906E-001	-5.15904E-006	0.00000E+000	-2.21000E-001	-7.32606E-004	10	..........a	-327.74
	728	3.645	-2.28952E-001	-5.44311E-006	0.00000E+000	-2.28000E-001	-7.62605E-004	10	..........a	-327.74
	735	3.68	-2.35851E-001	-5.79402E-006	0.00000E+000	-2.35000E-001	-7.25939E-004	10	..........a	-327.74
	742	3.715	-2.42907E-001	-6.22847E-006	0.00000E+000	-2.42000E-001	-7.25939E-004	10	..........a	-327.74
	749	3.75	-2.49904E-001	-7.14752E-006	0.00000E+000	-2.49000E-001	-7.55939E-004	10	..........a	-327.74
	756	3.785	-2.56861E-001	-7.29791E-006	0.00000E+000	-2.56000E-001	-7.52606E-004	10	..........a	-327.74
	763	3.82	-2.63929E-001	-8.20024E-006	0.00000E+000	-2.63000E-001	-7.35939E-004	10	..........a	-327.74
	770	3.855	-2.70889E-001	-8.48431E-006	0.00000E+000	-2.70000E-001	-7.29272E-004	10	..........a	-327.74
	777	3.89	-2.77897E-001	-9.18612E-006	0.00000E+000	-2.77000E-001	-7.25939E-004	10	..........a	-327.74
	784	3.925	-2.84927E-001	-9.75426E-006	0.00000E+000	-2.84000E-001	-7.35939E-004	10	..........a	-327.74
	791	3.96	-2.91884E-001	-1.02388E-005	0.00000E+000	-2.91000E-001	-7.79272E-004	10	..........a	-327.74
	798	3.995	-2.98912E-001	-1.09741E-005	0.00000E+000	-2.98000E-001	-7.69272E-004	10	..........a	-327.74
	805	4.03	-3.05907E-001	-1.18597E-005	0.00000E+000	-3.05000E-001	-7.42605E-004	10	..........a	-327.74
	812	4.065	-3.12896E-001	-1.26451E-005	0.00000E+000	-3.12000E-001	-7.69272E-004	10	..........a	-327.74
	819	4.1	-3.19881E-001	-1.33302E-005	0.00000E+000	-3.19000E-001	-7.09272E-004	10	..........a	-327.74
	826	4.135	-3.26846E-001	-1.42994E-005	0.00000E+000	-3.26000E-001	-7.35939E-004	10	..........a	-327.74
	833	4.17	-3.33826E-001	-1.48174E-005	0.00000E+000	-3.33000E-001	-7.69272E-004	10	..........a	-327.74
	840	4.205	-3.40859E-001	-1.55359E-005	0.00000E+000	-3.40000E-001	-7.12606E-004	10	..........a	-327.74
	847	4.24	-3.47841E-001	-1.61040E-005	0.00000E+000	-3.47000E-001	-7.49272E-004	10	..........a	-327.74
	854	4.275	-3.54892E-001	-1.65051E-005	0.00000E+000	-3.54000E-001	-7.22606E-004	10	..........a	-327.74
	861	4.31	-3.61856E-001	-1.67056E-005	0.00000E+000	-3.61000E-001	-7.19272E-004	10	..........a	-327.74
	868	4.345	-3.68859E-001	-1.70398E-005	0.00000E+000	-3.68000E-001	-7.42605E-004	10	..........a	-327.74
	875	4.38	-3.75854E-001	-1.73740E-005	0.00000E+000	-3.75000E-001	-7.12606E-004	10	..........a	-327.74
	882	4.415	-3.82877E-001	-1.76079E-005	0.00000E+000	-3.82000E-001	-7.05939E-004	10	..........a	-327.74
	889	4.45	-3.89856E-001	-1.77750E-005	0.00000E+000	-3.89000E-001	-7.52606E-004	10	..........a	-327.74
	896	4.485	-3.96826E-001	-1.81259E-005	0.00000E+000	-3.96000E-001	-6.99272E-004	10	..........a	-327.74
	903	4.52	-4.03862E-001	-1.84434E-005	0.00000E+000	-4.03000E-001	-7.29272E-004	10	..........a	-327.74
	910	4.555	-4.10837E-001	-1.86105E-005	0.00000E+000	-4.10000E-001	-6.89272E-004	10	..........a	-327.74
	917	4.59	-4.17909E-001	-1.95630E-005	0.00000E+000	-4.17000E-001	-7.32606E-004	10	..........a	-327.74
	924	4.625	-4.24844E-001	-2.00141E-005	0.00000E+000	-4.24000E-001	-7.12606E-004	10	..........a	-327.74
	931	4.66	-4.31899E-001	-2.12841E-005	0.00000E+000	-4.31000E-001	-7.65939E-004	10	..........a	-327.74
	938	4.695	-4.38847E-001	-2.39243E-005	0.00000E+000	-4.38000E-001	-6.85939E-004	10	..........a	-327.74
	945	4.73	-4.45881E-001	-2.74835E-005	0.00000E+000	-4.45000E-001	-7.69272E-004	10	..........a	-327.74
	952	4.765	-4.52837E-001	-3.26635E-005	0.00000E+000	-4.52000E-001	-7.55939E-004	10	..........a	-327.74
	959	4.8	-4.59852E-001	-4.01162E-005	0.00000E+000	-4.59000E-001	-7.52606E-004	10	..........a	-327.74
	966	4.835	-4.66824E-001	-4.94737E-005	0.00000E+000	-4.66000E-001	-7.39272E-004	10	..........a	-327.74
	973	4.87	-4.73821E-001	-6.20730E-005	0.00000E+000	-4.73000E-001	-7.45939E-004	10	..........a	-327.74
	980	4.905	-4.80797E-001	-7.82481E-005	0.00000E+000	-4.80000E-001	-7.15939E-004	10	..........a	-327.74
	987	4.94	-4.87809E-001	-9.84170E-005	0.00000E+000	-4.87000E-001	-7.22606E-004	10	..........a	-327.74
	994	4.975	-4.94821E-001	-1.23248E-004	0.00000E+000	-4.94000E-001	-7.22606E-004	10	..........a	-327.74
	1001	5.01	-5.01846E-001	-1.53944E-004	0.00000E+000	-5.01000E-001	-7.49272E-004	10	..........a	-327.74
	1008	5.045	-5.08852E-001	-1.89486E-004	0.00000E+000	-5.08000E-001	-7.42605E-004	10	..........a	-327.74
	1015	5.08	-5.15827E-001	-2.28821E-004	0.00000E+000	-5.15000E-001	-7.69272E-004	10	..........a	-327.74
	1022	5.115	-5.22834E-001	-2.70780E-004	0.00000E+000	-5.22000E-001	-7.32606E-004	10	..........a	-327.74
	1029	5.15	-5.29811E-001	-3.12688E-004	0.00000E+000	-5.29000E-001	-7.15939E-004	10	..........a	-327.74
	1036	5.185	-5.36794E-001	-3.50152E-004	0.00000E+000	-5.36000E-001	-7.42605E-004	10	..........a	-327.74
	1043	5.22	-5.43829E-001	-3.80246E-004	0.00000E+000	-5.43000E-001	-7.62605E-004	10	..........a	-327.74
	1050	5.255	-5.50779E-001	-3.98794E-004	0.00000E+000	-5.50000E-001	-7.32606E-004	10	..........a	-327.74
	1057	5.29	-5.57822E-001	-4.02972E-004	0.00000E+000	-5.57000E-001	-7.62605E-004	10	..........a	-327.74
	1064	5.325	-5.64806E-001	-3.94299E-004	0.00000E+000	-5.64000E-001	-7.52606E-004	10	..........a	-327.74
	1071	5.36	-5.71817E-001	-3.75601E-004	0.00000E+000	-5.71000E-001	-7.15939E-004	10	..........a	-327.74
	1078	5.395	-5.78797E-001	-3.53410E-004	0.00000E+000	-5.78000E-001	-7.55939E-004	10	..........a	-327.74
	1085	5.43	-5.85824E-001	-3.30802E-004	0.00000E+000	-5.85000E-001	-7.62605E-004	10	..........a	-327.74
	1092	5.465	-5.92782E-001	-3.10516E-004	0.00000E+000	-5.92000E-001	-7.45939E-004	10	..........a	-327.74
	1099	5.5	-5.99851E-001	-2.92853E-004	0.00000E+000	-5.99000E-001	-7.62605E-004	10	..........a	-327.74
	1106	5.535	-6.06801E-001	-2.77514E-004	0.00000E+000	-6.06000E-001	-7.69272E-004	10	..........a	-327.74
	1113	5.57	-6.13759E-001	-2.64664E-004	0.00000E+000	-6.13000E-001	-7.39272E-004	10	..........a	-327.74
	1120	5.605	-6.20792E-001	-2.52933E-004	0.00000E+000	-6.20000E-001	-7.35939E-004	10	..........a	-327.74
	1127	5.64	-6.27777E-001	-2.43108E-004	0.00000E+000	-6.27000E-001	-7.42605E-004	10	..........a	-327.74
	1134	5.675	-6.34754E-001	-2.34118E-004	0.00000E+000	-6.34000E-001	-7.42605E-004	10	..........a	-327.74
	1141	5.71	-6.41769E-001	-2.26448E-004	0.00000E+000	-6.41000E-001	-7.49272E-004	10	..........a	-327.74
	1148	5.745	-6.48724E-001	-2.19530E-004	0.00000E+000	-6.48000E-001	-7.25939E-004	10	..........a	-327.74
	1155	5.78	-6.55752E-001	-2.13214E-004	0.00000E+000	-6.55000E-001	-7.35939E-004	10	..........a	-327.74
	1162	5.815	-6.62736E-001	-2.07783E-004	0.00000E+000	-6.62000E-001	-7.02605E-004	10	..........a	-327.74
	1169	5.85	-6.69786E-001	-2.02135E-004	0.00000E+000	-6.69000E-001	-7.59272E-004	10	..........a	-327.74
	1176	5.885	-6.76857E-001	-1.96989E-004	0.00000E+000	-6.76000E-001	-7.65939E-004	10	..........a	-327.74
	1183	5.92	-6.83729E-001	-1.92527E-004	0.00000E+000	-6.83000E-001	-7.75939E-004	10	..........a	-327.74
	1190	5.955	-6.90776E-001	-1.88233E-004	0.00000E+000	-6.90000E-001	-7.52606E-004	10	..........a	-327.74
	1197	5.99	-6.97734E-001	-1.84724E-004	0.00000E+000	-6.97000E-001	-7.35939E-004	10	..........a	-327.74
	1204	6.025	-7.04707E-001	-1.80797E-004	0.00000E+000	-7.04000E-001	-7.45939E-004	10	..........a	-327.74
	1211	6.06	-7.11742E-001	-1.76970E-004	0.00000E+000	-7.11000E-001	-7.55939E-004	10	..........a	-327.74
	1218	6.095	-7.18719E-001	-1.73662E-004	0.00000E+000	-7.18000E-001	-7.42605E-004	10	..........a	-327.74
	1225	6.13	-7.25771E-001	-1.70320E-004	0.00000E+000	-7.25000E-001	-7.19272E-004	10	..........a	-327.74
	1232	6.165	-7.32744E-001	-1.68214E-004	0.00000E+000	-7.32000E-001	-7.12606E-004	10	..........a	-327.74
	1239	6.2	-7.39764E-001	-1.65123E-004	0.00000E+000	-7.39000E-001	-7.65939E-004	10	..........a	-327.74
	1246	6.235	-7.46744E-001	-1.62984E-004	0.00000E+000	-7.46000E-001	-7.42605E-004	10	..........a	-327.74
	1253	6.27	-7.53696E-001	-1.60344E-004	0.00000E+000	-7.53000E-001	-7.15939E-004	10	..........a	-327.74
	1260	6.305	-7.60676E-001	-1.58004E-004	0.00000E+000	-7.60000E-001	-7.52606E-004	10	..........a	-327.74
	1267	6.34	-7.67746E-001	-1.55481E-004	0.00000E+000	-7.67000E-001	-7.09272E-004	10	..........a	-327.74
	1274	6.375	-7.74699E-001	-1.53610E-004	0.00000E+000	-7.74000E-001	-7.25939E-004	10	..........a	-327.74
	1281	6.41	-7.81696E-001	-1.51705E-004	0.00000E+000	-7.81000E-001	-7.25939E-004	10	..........a	-327.74
	1288	6.445	-7.88734E-001	-1.49399E-004	0.00000E+000	-7.88000E-001	-7.19272E-004	10	..........a	-327.74
	1295	6.48	-7.95669E-001	-1.47928E-004	0.00000E+000	-7.95000E-001	-7.09272E-004	10	..........a	-327.74
	1302	6.515	-8.02672E-001	-1.45673E-004	0.00000E+000	-8.02000E-001	-7.25939E-004	10	..........a	-327.74
	1309	6.55	-8.09682E-001	-1.44252E-004	0.00000E+000	-8.09000E-001	-7.69272E-004	10	..........a	-327.74
	1316	6.585	-8.16631E-001	-1.42798E-004	0.00000E+000	-8.16000E-001	-7.55939E-004	10	..........a	-327.74
	1323	6.62	-8.23682E-001	-1.41178E-004	0.00000E+000	-8.23000E-001	-7.19272E-004	10	..........a	-327.74
	1330	6.655	-8.30717E-001	-1.39557E-004	0.00000E+000	-8.30000E-001	-7.65939E-004	10	..........a	-327.74
	1337	6.69	-8.37622E-001	-1.37852E-004	0.00000E+000	-8.37000E-001	-6.89272E-004	10	..........a	-327.74
	1344	6.725	-8.44662E-001	-1.36983E-004	0.00000E+000	-8.44000E-001	-7.59272E-004	10	..........a	-327.74
	1351	6.76	-8.51687E-001	-1.35463E-004	0.00000E+000	-8.51000E-001	-7.12606E-004	10	..........a	-327.74
	1358	6.795	-8.58627E-001	-1.33641E-004	0.00000E+000	-8.58000E-001	-7.09272E-004	10	..........a	-327.74
	1365	6.83	-8.65641E-001	-1.32806E-004	0.00000E+000	-8.65000E-001	-7.39272E-004	10	..........a	-327.74
	1372	6.865	-8.72587E-001	-1.31670E-004	0.00000E+000	-8.72000E-001	-7.22606E-004	10	..........a	-327.74
	1379	6.9	-8.79647E-001	-1.30199E-004	0.00000E+000	-8.79000E-001	-7.19272E-004	10	..........a	-327.74
	1386	6.935	-8.86636E-001	-1.28846E-004	0.00000E+000	-8.86000E-001	-7.52606E-004	10	..........a	-327.74
	1393	6.97	-8.93577E-001	-1.27776E-004	0.00000E+000	-8.93000E-001	-7.49272E-004	10	..........a	-327.74
	1400	7.005	-9.00596E-001	-1.26740E-004	0.00000E+000	-9.00000E-001	-7.39272E-004	10	..........a	-327.74
	1407	7.04	-9.07654E-001	-1.25571E-004	0.00000E+000	-9.07000E-001	-7.42605E-004	10	..........a	-327.74
	1414	7.075	-9.14649E-001	-1.24501E-004	0.00000E+000	-9.14000E-001	-7.55939E-004	10	..........a	-327.74
	1421	7.11	-9.21589E-001	-1.23816E-004	0.00000E+000	-9.21000E-001	-7.35939E-004	10	..........a	-327.74
	1428	7.145	-9.28601E-001	-1.22529E-004	0.00000E+000	-9.28000E-001	-7.12606E-004	10	..........a	-327.74
	1435	7.18	-9.35586E-001	-1.21777E-004	0.00000E+000	-9.35000E-001	-7.42605E-004	10	..........a	-327.74
	1442	7.215	-9.42602E-001	-1.21142E-004	0.00000E+000	-9.42000E-001	-7.42605E-004	10	..........a	-327.74
	1449	7.25	-9.49534E-001	-1.20040E-004	0.00000E+000	-9.49000E-001	-7.22606E-004	10	..........a	-327.74
	1456	7.285	-9.56674E-001	-1.19839E-004	0.00000E+000	-9.56000E-001	-7.52606E-004	10	..........a	-327.74
	1463	7.32	-9.63579E-001	-1.18720E-004	0.00000E+000	-9.63000E-001	-7.32606E-004	10	..........a	-327.74
	1470	7.355	-9.70631E-001	-1.17968E-004	0.00000E+000	-9.70000E-001	-7.05939E-004	10	..........a	-327.74
	1477	7.39	-9.77567E-001	-1.17282E-004	0.00000E+000	-9.77000E-001	-7.19272E-004	10	..........a	-327.74
	1484	7.425	-9.84612E-001	-1.16347E-004	0.00000E+000	-9.84000E-001	-7.32606E-004	10	..........a	-327.74
	1491	7.46	-9.91597E-001	-1.15962E-004	0.00000E+000	-9.91000E-001	-7.25939E-004	10	..........a	-327.74
	1498	7.495	-9.98639E-001	-1.15261E-004	0.00000E+000	-9.98000E-001	-7.39272E-004	10	..........a	-327.74
	1505	7.53	-9.95566E-001	-1.11952E-004	0.00000E+000	-9.95000E-001	-7.22606E-004	10	..........a	-327.74
	1512	7.565	-9.88602E-001	-1.10131E-004	0.00000E+000	-9.88000E-001	-7.75939E-004	10	..........a	-327.74
	1519	7.6	-9.81566E-001	-1.08242E-004	0.00000E+000	-9.81000E-001	-7.55939E-004	10	..........a	-327.74
	1526	7.635	-9.74641E-001	-1.06939E-004	0.00000E+000	-9.74000E-001	-7.92605E-004	10	..........a	-327.74
	1533	7.67	-9.67586E-001	-1.05853E-004	0.00000E+000	-9.67000E-001	-7.42605E-004	10	..........a	-327.74
	1540	7.705	-9.60596E-001	-1.04951E-004	0.00000E+000	-9.60000E-001	-7.55939E-004	10	..........a	-327.74
	1547	7.74	-9.53622E-001	-1.04215E-004	0.00000E+000	-9.53000E-001	-7.55939E-004	10	..........a	-327.74
	1554	7.775	-9.46622E-001	-1.03697E-004	0.00000E+000	-9.46000E-001	-7.45939E-004	10	..........a	-327.74
	1561	7.81	-9.39587E-001	-1.02411E-004	0.00000E+000	-9.39000E-001	-7.32606E-004	10	..........a	-327.74
	1568	7.845	-9.32707E-001	-1.01291E-004	0.00000E+000	-9.32000E-001	-6.85939E-004	10	..........a	-327.74
	1575	7.88	-9.25604E-001	-1.00690E-004	0.00000E+000	-9.25000E-001	-7.65939E-004	10	..........a	-327.74
	1582	7.915	-9.18652E-001	-9.99376E-005	0.00000E+000	-9.18000E-001	-7.62605E-004	10	..........a	-327.74
	1589	7.95	-9.11619E-001	-9.98039E-005	0.00000E+000	-9.11000E-001	-7.19272E-004	10	..........a	-327.74
	1596	7.985	-9.04587E-001	-9.87178E-005	0.00000E+000	-9.04000E-001	-7.25939E-004	10	..........a	-327.74
	1603	8.02	-8.97599E-001	-9.79825E-005	0.00000E+000	-8.97000E-001	-7.82606E-004	10	..........a	-327.74
	1610	8.055	-8.90604E-001	-9.69465E-005	0.00000E+000	-8.90000E-001	-7.72606E-004	10	..........a	-327.74
	1617	8.09	-8.83621E-001	-9.64954E-005	0.00000E+000	-8.83000E-001	-7.95939E-004	10	..........a	-327.74
	1624	8.125	-8.76614E-001	-9.60275E-005	0.00000E+000	-8.76000E-001	-7.45939E-004	10	..........a	-327.74
	1631	8.16	-8.69581E-001	-9.54259E-005	0.00000E+000	-8.69000E-001	-7.49272E-004	10	..........a	-327.74
	1638	8.195	-8.62662E-001	-9.48244E-005	0.00000E+000	-8.62000E-001	-7.35939E-004	10	..........a	-327.74
	1645	8.23	-8.55621E-001	-9.44066E-005	0.00000E+000	-8.55000E-001	-7.02605E-004	10	..........a	-327.74
	1652	8.265	-8.48596E-001	-9.38385E-005	0.00000E+000	-8.48000E-001	-7.39272E-004	10	..........a	-327.74
	1659	8.3	-8.41654E-001	-9.36714E-005	0.00000E+000	-8.41000E-001	-7.29272E-004	10	..........a	-327.74
	1666	8.335	-8.34649E-001	-9.32202E-005	0.00000E+000	-8.34000E-001	-7.79272E-004	10	..........a	-327.74
	1673	8.37	-8.27691E-001	-9.25351E-005	0.00000E+000	-8.27000E-001	-7.49272E-004	10	..........a	-327.74
	1680	8.405	-8.20667E-001	-9.20505E-005	0.00000E+000	-8.20000E-001	-7.85939E-004	10	..........a	-327.74
	1687	8.44	-8.13716E-001	-9.17163E-005	0.00000E+000	-8.13000E-001	-7.49272E-004	10	..........a	-327.74
	1694	8.475	-8.06706E-001	-9.14155E-005	0.00000E+000	-8.06000E-001	-7.85939E-004	10	..........a	-327.74
	1701	8.51	-7.99726E-001	-9.10145E-005	0.00000E+000	-7.99000E-001	-7.69272E-004	10	..........a	-327.74
	1708	8.545	-7.92679E-001	-9.06302E-005	0.00000E+000	-7.92000E-001	-7.32606E-004	10	..........a	-327.74
	1715	8.58	-7.85742E-001	-9.00286E-005	0.00000E+000	-7.85000E-001	-7.32606E-004	10	..........a	-327.74
	1722	8.615	-7.78752E-001	-8.95775E-005	0.00000E+000	-7.78000E-001	-7.32606E-004	10	..........a	-327.74
	1729	8.65	-7.71741E-001	-8.93602E-005	0.00000E+000	-7.71000E-001	-7.25939E-004	10	..........a	-327.74
	1736	8.685	-7.64729E-001	-8.87754E-005	0.00000E+000	-7.64000E-001	-7.22606E-004	10	..........a	-327.74
	1743	8.72	-7.57704E-001	-8.85414E-005	0.00000E+000	-7.57000E-001	-7.32606E-004	10	..........a	-327.74
	1750	8.755	-7.50814E-001	-8.79733E-005	0.00000E+000	-7.50000E-001	-7.49272E-004	10	..........a	-327.74
	1757	8.79	-7.43744E-001	-8.81905E-005	0.00000E+000	-7.43000E-001	-7.52606E-004	10	..........a	-327.74
	1764	8.825	-7.36717E-001	-8.75389E-005	0.00000E+000	-7.36000E-001	-7.12606E-004	10	..........a	-327.74
	1771	8.86	-7.29709E-001	-8.73717E-005	0.00000E+000	-7.29000E-001	-7.55939E-004	10	..........a	-327.74
	1778	8.895	-7.22702E-001	-8.69707E-005	0.00000E+000	-7.22000E-001	-7.22606E-004	10	..........a	-327.74
	1785	8.93	-7.15756E-001	-8.66198E-005	0.00000E+000	-7.15000E-001	-7.65939E-004	10	..........a	-327.74
	1792	8.965	-7.08716E-001	-8.62188E-005	0.00000E+000	-7.08000E-001	-7.15939E-004	10	..........a	-327.74
	1799	9	-7.01701E-001	-8.60851E-005	0.00000E+000	-7.01000E-001	-7.22606E-004	10	..........a	-327.74
	1806	9.035	-6.94727E-001	-8.57843E-005	0.00000E+000	-6.94000E-001	-7.29272E-004	10	..........a	-327.74
	1813	9.07	-6.87782E-001	-8.58344E-005	0.00000E+000	-6.87000E-001	-7.49272E-004	10	..........a	-327.74
	1820	9.105	-6.80737E-001	-8.52496E-005	0.00000E+000	-6.80000E-001	-7.15939E-004	10	..........a	-327.74
	1827	9.14	-6.73766E-001	-8.49989E-005	0.00000E+000	-6.73000E-001	-7.55939E-004	10	..........a	-327.74
	1834	9.175	-6.66719E-001	-8.44642E-005	0.00000E+000	-6.66000E-001	-7.45939E-004	10	..........a	-327.74
	1841	9.21	-6.59784E-001	-8.39462E-005	0.00000E+000	-6.59000E-001	-7.29272E-004	10	..........a	-327.74
	1848	9.245	-6.52727E-001	-8.28768E-005	0.00000E+000	-6.52000E-001	-7.19272E-004	10	..........a	-327.74
	1855	9.28	-6.45766E-001	-8.20079E-005	0.00000E+000	-6.45000E-001	-7.32606E-004	10	..........a	-327.74
	1862	9.315	-6.38766E-001	-8.14899E-005	0.00000E+000	-6.38000E-001	-7.32606E-004	10	..........a	-327.74
	1869	9.35	-6.31754E-001	-8.06042E-005	0.00000E+000	-6.31000E-001	-6.95939E-004	10	..........a	-327.74
	1876	9.385	-6.24687E-001	-7.95014E-005	0.00000E+000	-6.24000E-001	-7.25939E-004	10	..........a	-327.74
	1883	9.42	-6.17751E-001	-7.80643E-005	0.00000E+000	-6.17000E-001	-7.45939E-004	10	..........a	-327.74
	1890	9.455	-6.10789E-001	-7.63933E-005	0.00000E+000	-6.10000E-001	-7.25939E-004	10	..........a	-327.74
	1897	9.49	-6.03761E-001	-7.36696E-005	0.00000E+000	-6.03000E-001	-7.45939E-004	10	..........a	-327.74
	1904	9.525	-5.96771E-001	-7.03444E-005	0.00000E+000	-5.96000E-001	-7.32606E-004	10	..........a	-327.74
	1911	9.56	-5.89836E-001	-6.64175E-005	0.00000E+000	-5.89000E-001	-7.29272E-004	10	..........a	-327.74
	1918	9.595	-5.82809E-001	-6.09868E-005	0.00000E+000	-5.82000E-001	-7.75939E-004	10	..........a	-327.74
	1925	9.63	-5.75824E-001	-5.35342E-005	0.00000E+000	-5.75000E-001	-7.25939E-004	10	..........a	-327.74
	1932	9.665	-5.68781E-001	-4.31741E-005	0.00000E+000	-5.68000E-001	-7.19272E-004	10	..........a	-327.74
	1939	9.7	-5.61866E-001	-2.82688E-005	0.00000E+000	-5.61000E-001	-7.62605E-004	10	..........a	-327.74
	1946	9.735	-5.54804E-001	-7.74907E-006	0.00000E+000	-5.54000E-001	-7.82606E-004	10	..........a	-327.74
	1953	9.77	-5.47841E-001	2.06578E-005	0.00000E+000	-5.47000E-001	-7.45939E-004	10	..........a	-327.74
	1960	9.805	-5.40836E-001	5.62331E-005	0.00000E+000	-5.40000E-001	-7.25939E-004	10	..........a	-327.74
	1967	9.84	-5.33841E-001	9.97457E-005	0.00000E+000	-5.33000E-001	-7.12606E-004	10	..........a	-327.74
	1974	9.875	-5.26797E-001	1.44745E-004	0.00000E+000	-5.26000E-001	-7.39272E-004	10	..........a	-327.74
	1981	9.91	-5.19862E-001	1.86102E-004	0.00000E+000	-5.19000E-001	-7.65939E-004	10	..........a	-327.74
	1988	9.945	-5.12787E-001	2.17417E-004	0.00000E+000	-5.12000E-001	-8.22606E-004	10	..........a	-327.74
	1995	9.98	-5.05877E-001	2.37135E-004	0.00000E+000	-5.05000E-001	-7.52606E-004	10	..........a	-327.74
	2002	10.015	-4.98887E-001	2.46392E-004	0.00000E+000	-4.98000E-001	-7.42605E-004	10	..........a	-327.74
	2009	10.05	-4.91836E-001	2.46325E-004	0.00000E+000	-4.91000E-001	-7.69272E-004	10	..........a	-327.74
	2016	10.085	-4.84871E-001	2.39808E-004	0.00000E+000	-4.84000E-001	-7.82606E-004	10	..........a	-327.74
	2023	10.12	-4.77846E-001	2.30267E-004	0.00000E+000	-4.77000E-001	-7.72606E-004	10	..........a	-327.74
	2030	10.155	-4.70939E-001	2.18770E-004	0.00000E+000	-4.70000E-001	-7.79272E-004	10	..........a	-327.74
	2037	10.19	-4.63879E-001	2.05737E-004	0.00000E+000	-4.63000E-001	-7.62605E-004	10	..........a	-327.74
	2044	10.225	-4.56829E-001	1.92954E-004	0.00000E+000	-4.56000E-001	-7.65939E-004	10	..........a	-327.74
	2051	10.26	-4.49867E-001	1.80471E-004	0.00000E+000	-4.49000E-001	-7.19272E-004	10	..........a	-327.74
	2058	10.295	-4.42831E-001	1.68841E-004	0.00000E+000	-4.42000E-001	-7.89272E-004	10	..........a	-327.74
	2065	10.33	-4.35816E-001	1.58164E-004	0.00000E+000	-4.35000E-001	-7.75939E-004	10	..........a	-327.74
	2072	10.365	-4.28886E-001	1.48054E-004	0.00000E+000	-4.28000E-001	-7.72606E-004	10	..........a	-327.74
	2079	10.4	-4.21839E-001	1.38830E-004	0.00000E+000	-4.21000E-001	-7.49272E-004	10	..........a	-327.74
	2086	10.435	-4.14837E-001	1.30442E-004	0.00000E+000	-4.14000E-001	-7.72606E-004	10	..........a	-327.74
	2093	10.47	-4.07909E-001	1.22739E-004	0.00000E+000	-4.07000E-001	-7.32606E-004	10	..........a	-327.74
	2100	10.505	-4.00881E-001	1.15837E-004	0.00000E+000	-4.00000E-001	-7.59272E-004	10	..........a	-327.74
	2107	10.54	-3.93886E-001	1.09204E-004	0.00000E+000	-3.93000E-001	-7.59272E-004	10	..........a	-327.74
	2114	10.575	-3.86882E-001	1.03221E-004	0.00000E+000	-3.86000E-001	-7.85939E-004	10	..........a	-327.74
	2121	10.61	-3.79837E-001	9.87097E-005	0.00000E+000	-3.79000E-001	-7.89272E-004	10	..........a	-327.74
	2128	10.645	-3.72857E-001	9.34461E-005	0.00000E+000	-3.72000E-001	-7.52606E-004	10	..........a	-327.74
	2135	10.68	-3.65836E-001	8.91851E-005	0.00000E+000	-3.65000E-001	-7.62605E-004	10	..........a	-327.74
	2142	10.715	-3.58896E-001	8.61271E-005	0.00000E+000	-3.58000E-001	-7.29272E-004	10	..........a	-327.74
	2149	10.75	-3.51926E-001	8.22337E-005	0.00000E+000	-3.51000E-001	-7.69272E-004	10	..........a	-327.74
	2156	10.785	-3.44841E-001	7.86244E-005	0.00000E+000	-3.44000E-001	-7.29272E-004	10	..........a	-327.74
	2163	10.82	-3.37901E-001	7.58338E-005	0.00000E+000	-3.37000E-001	-8.09272E-004	10	..........a	-327.74
	2170	10.855	-3.30917E-001	7.27258E-005	0.00000E+000	-3.30000E-001	-7.55939E-004	10	..........a	-327.74
	2177	10.89	-3.23876E-001	7.02527E-005	0.00000E+000	-3.23000E-001	-7.72606E-004	10	..........a	-327.74
	2184	10.925	-3.17004E-001	6.76627E-005	0.00000E+000	-3.16000E-001	-7.62605E-004	10	..........a	-327.74
	2191	10.96	-3.09869E-001	6.49724E-005	0.00000E+000	-3.09000E-001	-7.02605E-004	10	..........a	-327.74
	2198	10.995	-3.02854E-001	6.29338E-005	0.00000E+000	-3.02000E-001	-7.52606E-004	10	..........a	-327.74
	2205	11.03	-2.95921E-001	6.05443E-005	0.00000E+000	-2.95000E-001	-7.65939E-004	10	..........a	-327.74
	2212	11.065	-2.88891E-001	5.88065E-005	0.00000E+000	-2.88000E-001	-7.49272E-004	10	..........a	-327.74
	2219	11.1	-2.81866E-001	5.64504E-005	0.00000E+000	-2.81000E-001	-7.35939E-004	10	..........a	-327.74
	2226	11.135	-2.74911E-001	5.48963E-005	0.00000E+000	-2.74000E-001	-7.49272E-004	10	..........a	-327.74
	2233	11.17	-2.67944E-001	5.32254E-005	0.00000E+000	-2.67000E-001	-7.45939E-004	10	..........a	-327.74
	2240	11.205	-2.60999E-001	5.16546E-005	0.00000E+000	-2.60000E-001	-7.22606E-004	10	..........a	-327.74
	2247	11.24	-2.53931E-001	5.01841E-005	0.00000E+000	-2.53000E-001	-7.69272E-004	10	..........a	-327.74
	2254	11.275	-2.46891E-001	4.86468E-005	0.00000E+000	-2.46000E-001	-7.65939E-004	10	..........a	-327.74
	2261	11.31	-2.39949E-001	4.73936E-005	0.00000E+000	-2.39000E-001	-7.62605E-004	10	..........a	-327.74
	2268	11.345	-2.32916E-001	4.61738E-005	0.00000E+000	-2.32000E-001	-7.55939E-004	10	..........a	-327.74
	2275	11.38	-2.25917E-001	4.43524E-005	0.00000E+000	-2.25000E-001	-7.52606E-004	10	..........a	-327.74
	2282	11.415	-2.18914E-001	4.33999E-005	0.00000E+000	-2.18000E-001	-7.55939E-004	10	..........a	-327.74
	2289	11.45	-2.11897E-001	4.25979E-005	0.00000E+000	-2.11000E-001	-7.85939E-004	10	..........a	-327.74
	2296	11.485	-2.04909E-001	4.13112E-005	0.00000E+000	-2.04000E-001	-7.45939E-004	10	..........a	-327.74
	2303	11.52	-1.97972E-001	4.02083E-005	0.00000E+000	-1.97000E-001	-7.39272E-004	10	..........a	-327.74
	2310	11.555	-1.91006E-001	3.92559E-005	0.00000E+000	-1.90000E-001	-7.55939E-004	10	..........a	-327.74
	2317	11.59	-1.83971E-001	3.84371E-005	0.00000E+000	-1.83000E-001	-7.25939E-004	10	..........a	-327.74
	2324	11.625	-1.76996E-001	3.74345E-005	0.00000E+000	-1.76000E-001	-7.42605E-004	10	..........a	-327.74
	2331	11.66	-1.69957E-001	3.66491E-005	0.00000E+000	-1.69000E-001	-7.75939E-004	10	..........a	-327.74
	2338	11.695	-1.62989E-001	3.59807E-005	0.00000E+000	-1.62000E-001	-7.89272E-004	10	..........a	-327.74
	2345	11.73	-1.55907E-001	3.51452E-005	0.00000E+000	-1.55000E-001	-7.79272E-004	10	..........a	-327.74
	2352	11.765	-1.48964E-001	3.43599E-005	0.00000E+000	-1.48000E-001	-7.72606E-004	10	..........a	-327.74
	2359	11.8	-1.41942E-001	3.35745E-005	0.00000E+000	-1.41000E-001	-7.49272E-004	10	..........a	-327.74
	2366	11.835	-1.34936E-001	3.29061E-005	0.00000E+000	-1.34000E-001	-7.89272E-004	10	..........a	-327.74
	2373	11.87	-1.27956E-001	3.21542E-005	0.00000E+000	-1.27000E-001	-7.79272E-004	10	..........a	-327.74
	2380	11.905	-1.20976E-001	3.16027E-005	0.00000E+000	-1.20000E-001	-7.69272E-004	10	..........a	-327.74
	2387	11.94	-1.14031E-001	3.13354E-005	0.00000E+000	-1.13000E-001	-7.89272E-004	10	..........a	-327.74
	2394	11.975	-1.06967E-001	3.09343E-005	0.00000E+000	-1.06000E-001	-7.32606E-004	10	..........a	-327.74
	2401	12.01	-9.99456E-002	3.05166E-005	0.00000E+000	-9.90000E-002	-7.32606E-004	10	..........a	-327.74
	2408	12.045	-9.30256E-002	2.98983E-005	0.00000E+000	-9.20000E-002	-7.39272E-004	10	..........a	-327.74
	2415	12.08	-8.59689E-002	2.95307E-005	0.00000E+000	-8.50000E-002	-7.62605E-004	10	..........a	-327.74
	2422	12.115	-7.89523E-002	2.93636E-005	0.00000E+000	-7.80000E-002	-7.59272E-004	10	..........a	-327.74
	2429	12.15	-7.20006E-002	2.91464E-005	0.00000E+000	-7.10000E-002	-7.59272E-004	10	..........a	-327.74
	2436	12.185	-6.50206E-002	2.85281E-005	0.00000E+000	-6.40000E-002	-7.72606E-004	10	..........a	-327.74
	2443	12.22	-5.80639E-002	2.86284E-005	0.00000E+000	-5.70000E-002	-7.55939E-004	10	..........a	-327.74
	2450	12.255	-5.10289E-002	2.81271E-005	0.00000E+000	-5.00000E-002	-7.55939E-004	10	..........a	-327.74
	2457	12.29	-4.40056E-002	2.84279E-005	0.00000E+000	-4.30000E-002	-7.92605E-004	10	..........a	-327.74
	2464	12.325	-3.71056E-002	2.81104E-005	0.00000E+000	-3.60000E-002	-7.82606E-004	10	..........a	-327.74
	2471	12.36	-2.99756E-002	2.86117E-005	0.00000E+000	-2.90000E-002	-7.39272E-004	10	..........a	-327.74
	2478	12.395	-2.30289E-002	2.84947E-005	0.00000E+000	-2.20000E-002	-7.22606E-004	10	..........a	-327.74
	2485	12.43	-1.60339E-002	2.83109E-005	0.00000E+000	-1.50000E-002	-7.75939E-004	10	..........a	-327.74
	2492	12.465	-9.07394E-003	2.83109E-005	0.00000E+000	-8.00000E-003	-7.39272E-004	10	..........a	-327.74
	2499	12.5	-2.08560E-003	2.85448E-005	0.00000E+000	-1.00000E-003	-7.89272E-004	10	..........a	-327.74
	2506	12.535	4.97106E-003	2.83610E-005	0.00000E+000	5.99998E-003	-7.59272E-004	10	..........a	-327.74
	2513	12.57	1.19961E-002	2.87453E-005	0.00000E+000	1.30000E-002	-8.02606E-004	10	..........a	-327.74
	2520	12.605	1.89161E-002	2.85281E-005	0.00000E+000	2.00000E-002	-7.52606E-004	10	..........a	-327.74
	2527	12.64	2.59461E-002	2.81939E-005	0.00000E+000	2.70000E-002	-7.92605E-004	10	..........a	-327.74
	2534	12.675	3.29911E-002	2.79600E-005	0.00000E+000	3.40000E-002	-7.45939E-004	10	..........a	-327.74
	2541	12.71	3.98444E-002	2.75422E-005	0.00000E+000	4.10000E-002	-7.22606E-004	10	..........a	-327.74
	2548	12.745	4.69394E-002	2.71913E-005	0.00000E+000	4.80000E-002	-7.69272E-004	10	..........a	-327.74
	2555	12.78	5.39361E-002	2.63725E-005	0.00000E+000	5.50000E-002	-7.59272E-004	10	..........a	-327.74
	2562	12.815	6.09477E-002	2.60216E-005	0.00000E+000	6.20000E-002	-7.82606E-004	10	..........a	-327.74
	2569	12.85	6.80811E-002	2.48185E-005	0.00000E+000	6.90000E-002	-7.12606E-004	10	..........a	-327.74
	2576	12.885	7.50361E-002	2.42337E-005	0.00000E+000	7.60000E-002	-7.75939E-004	10	..........a	-327.74
	2583	12.92	8.19561E-002	2.36990E-005	0.00000E+000	8.30000E-002	-8.09272E-004	10	..........a	-327.74
	2590	12.955	8.89694E-002	2.27799E-005	0.00000E+000	9.00000E-002	-7.19272E-004	10	..........a	-327.74
	2597	12.99	9.59294E-002	2.23455E-005	0.00000E+000	9.70000E-002	-7.49272E-004	10	..........a	-327.74
	2604	13.025	1.02886E-001	2.18442E-005	0.00000E+000	1.04000E-001	-7.35939E-004	10	..........a	-327.74
	2611	13.06	1.09941E-001	2.09752E-005	0.00000E+000	1.11000E-001	-7.32606E-004	10	..........a	-327.74
	2618	13.095	1.16879E-001	2.06243E-005	0.00000E+000	1.18000E-001	-7.75939E-004	10	..........a	-327.74
	2625	13.13	1.23921E-001	1.98724E-005	0.00000E+000	1.25000E-001	-8.09272E-004	10	..........a	-327.74
	2632	13.165	1.30904E-001	1.94714E-005	0.00000E+000	1.32000E-001	-8.02606E-004	10	..........a	-327.74
	2639	13.2	1.37941E-001	1.87528E-005	0.00000E+000	1.39000E-001	-7.79272E-004	10	..........a	-327.74
	2646	13.235	1.44974E-001	1.83017E-005	0.00000E+000	1.46000E-001	-7.32606E-004	10	..........a	-327.74
	2653	13.27	1.51946E-001	1.72155E-005	0.00000E+000	1.53000E-001	-7.82606E-004	10	..........a	-327.74
	2660	13.305	1.58953E-001	1.72322E-005	0.00000E+000	1.60000E-001	-7.35939E-004	10	..........a	-327.74
	2667	13.34	1.65948E-001	1.64636E-005	0.00000E+000	1.67000E-001	-8.25939E-004	10	..........a	-327.74
	2674	13.375	1.72913E-001	1.60625E-005	0.00000E+000	1.74000E-001	-7.45939E-004	10	..........a	-327.74
	2681	13.41	1.79936E-001	1.56615E-005	0.00000E+000	1.81000E-001	-7.95939E-004	10	..........a	-327.74
	2688	13.445	1.86923E-001	1.50265E-005	0.00000E+000	1.88000E-001	-7.39272E-004	10	..........a	-327.74
	2695	13.48	1.93903E-001	1.48260E-005	0.00000E+000	1.95000E-001	-7.79272E-004	10	..........a	-327.74
	2702	13.515	2.00978E-001	1.46589E-005	0.00000E+000	2.02000E-001	-7.69272E-004	10	..........a	-327.74
	2709	13.55	2.07851E-001	1.40573E-005	0.00000E+000	2.09000E-001	-7.39272E-004	10	..........a	-327.74
	2716	13.585	2.14891E-001	1.38067E-005	0.00000E+000	2.16000E-001	-7.75939E-004	10	..........a	-327.74
	2723	13.62	2.21843E-001	1.32553E-005	0.00000E+000	2.23000E-001	-7.22606E-004	10	..........a	-327.74
	2730	13.655	2.28898E-001	1.30882E-005	0.00000E+000	2.30000E-001	-7.05939E-004	10	..........a	-327.74
	2737	13.69	2.35843E-001	1.28709E-005	0.00000E+000	2.37000E-001	-7.29272E-004	10	..........a	-327.74
	2744	13.725	2.42899E-001	1.22025E-005	0.00000E+000	2.44000E-001	-7.69272E-004	10	..........a	-327.74
	2751	13.76	2.49891E-001	1.21691E-005	0.00000E+000	2.51000E-001	-7.65939E-004	10	..........a	-327.74
	2758	13.795	2.56921E-001	1.19686E-005	0.00000E+000	2.58000E-001	-7.79272E-004	10	..........a	-327.74
	2765	13.83	2.63836E-001	1.19018E-005	0.00000E+000	2.65000E-001	-7.82606E-004	10	..........a	-327.74
	2772	13.865	2.70824E-001	1.15843E-005	0.00000E+000	2.72000E-001	-7.39272E-004	10	..........a	-327.74
	2779	13.9	2.77826E-001	1.12835E-005	0.00000E+000	2.79000E-001	-8.02606E-004	10	..........a	-327.74
	2786	13.935	2.84839E-001	1.10997E-005	0.00000E+000	2.86000E-001	-7.99272E-004	10	..........a	-327.74
	2793	13.97	2.91848E-001	1.09827E-005	0.00000E+000	2.93000E-001	-7.29272E-004	10	..........a	-327.74
	2800	14.005	2.98784E-001	1.07321E-005	0.00000E+000	3.00000E-001	-7.79272E-004	10	..........a	-327.74
	2807	14.04	3.05838E-001	1.06819E-005	0.00000E+000	3.07000E-001	-7.55939E-004	10	..........a	-327.74
	2814	14.075	3.12903E-001	1.04647E-005	0.00000E+000	3.14000E-001	-7.22606E-004	10	..........a	-327.74
	2821	14.11	3.19879E-001	1.02976E-005	0.00000E+000	3.21000E-001	-7.62605E-004	10	..........a	-327.74
	2828	14.145	3.26883E-001	1.04313E-005	0.00000E+000	3.28000E-001	-7.69272E-004	10	..........a	-327.74
	2835	14.18	3.33808E-001	1.02308E-005	0.00000E+000	3.35000E-001	-7.35939E-004	10	..........a	-327.74
	2842	14.215	3.40824E-001	9.96342E-006	0.00000E+000	3.42000E-001	-7.49272E-004	10	..........a	-327.74
	2849	14.25	3.47894E-001	1.03143E-005	0.00000E+000	3.49000E-001	-7.42605E-004	10	..........a	-327.74
	2856	14.285	3.54856E-001	1.01639E-005	0.00000E+000	3.56000E-001	-7.69272E-004	10	..........a	-327.74
	2863	14.32	3.61804E-001	9.96342E-006	0.00000E+000	3.63000E-001	-7.35939E-004	10	..........a	-327.74
	2870	14.355	3.68889E-001	9.61251E-006	0.00000E+000	3.70000E-001	-7.09272E-004	10	..........a	-327.74
	2877	14.39	3.75854E-001	9.74619E-006	0.00000E+000	3.77000E-001	-7.39272E-004	10	..........a	-327.74
	2884	14.425	3.82879E-001	9.41199E-006	0.00000E+000	3.84000E-001	-7.55939E-004	10	..........a	-327.74
	2891	14.46	3.89806E-001	9.14463E-006	0.00000E+000	3.91000E-001	-7.62605E-004	10	..........a	-327.74
	2898	14.495	3.96851E-001	9.07779E-006	0.00000E+000	3.98000E-001	-7.15939E-004	10	..........a	-327.74
	2905	14.53	4.03898E-001	9.01096E-006	0.00000E+000	4.05000E-001	-7.62605E-004	10	..........a	-327.74
	2912	14.565	4.10851E-001	8.76031E-006	0.00000E+000	4.12000E-001	-7.45939E-004	10	..........a	-327.74
	2919	14.6	4.17821E-001	8.62663E-006	0.00000E+000	4.19000E-001	-7.45939E-004	10	..........a	-327.74
	2926	14.635	4.24904E-001	8.72689E-006	0.00000E+000	4.26000E-001	-7.55939E-004	10	..........a	-327.74
	2933	14.67	4.31869E-001	8.45953E-006	0.00000E+000	4.33000E-001	-7.79272E-004	10	..........a	-327.74
	2940	14.705	4.38791E-001	8.94412E-006	0.00000E+000	4.40000E-001	-7.19272E-004	10	..........a	-327.74
	2947	14.74	4.45824E-001	8.09191E-006	0.00000E+000	4.47000E-001	-7.35939E-004	10	..........a	-327.74
	2954	14.775	4.52803E-001	8.45953E-006	0.00000E+000	4.54000E-001	-7.52606E-004	10	..........a	-327.74
	2961	14.81	4.59861E-001	8.25901E-006	0.00000E+000	4.61000E-001	-7.32606E-004	10	..........a	-327.74
	2968	14.845	4.66786E-001	7.95823E-006	0.00000E+000	4.68000E-001	-7.62605E-004	10	..........a	-327.74
	2975	14.88	4.73771E-001	7.84126E-006	0.00000E+000	4.75000E-001	-7.59272E-004	10	..........a	-327.74
	2982	14.915	4.80848E-001	7.40681E-006	0.00000E+000	4.82000E-001	-7.45939E-004	10	..........a	-327.74
	2989	14.95	4.87809E-001	7.49035E-006	0.00000E+000	4.89000E-001	-7.75939E-004	10	..........a	-327.74
	2996	14.985	4.94801E-001	7.33997E-006	0.00000E+000	4.96000E-001	-7.75939E-004	10	..........a	-327.74
	3000	15.005	4.98794E-001	7.30655E-006	0.00000E+000	5.00000E-001	-7.35939E-004	10	..........a	-327.74
CURVE2	TABLE
	Pt	T	Vf	Im	Vu	Sig	Ach	IERange	Over	Temp
	#	s	V vs. Ref.	A	V	V	V	#	bits	deg C
	3001	15.01	4.98784E-001	7.12274E-006	0.00000E+000	5.00000E-001	-7.45939E-004	10	..........a	-327.74