File: data/02-SI/Figures_S9_S11_RDE/18btmapaq-rde/1mkcl-5mmolar18btmapaq-nitrogen-rde-600mvpers-50mvpers.DTA
EXPLAIN
TAG	LSV
TITLE	LABEL	Linear Sweep Voltammetry	Test &Identifier
DATE	LABEL	1/31/2023	Date
TIME	LABEL	15:27:42	Time
NOTES	NOTES	1	&Notes...

PSTAT	PSTAT	REF3000-21108	Potentiostat
VINIT	POTEN	5.00000E-001	F	&Initial E (V)
VFINAL	POTEN	-1.00000E+000	F	&Final E (V)
SCANRATE	QUANT	4.99999E+001	&Scan Rate (mV/s)
STEPSIZE	QUANT	1.00000E-001	St&ep Size (mV)
IMODE	SELECTOR	0	I/E Range &Mode
IRANGE	QUANT	1.00000E+002	&Max Current (mA)
AREA	QUANT	1.00000E+000	Electrode &Area (cm^2)
ELECTRODETYPE	SELECTOR	0	Electrode Type
STRIPPING	TOGGLE	F	Used for Stripping
POLARITY	TOGGLE	F	Signal Polarity
CONDIT	TWOPARAM	F	1.50000E+001	0.00000E+000	Conditionin&g	Time(s)	E(V)
DELAY	TWOPARAM	F	3.00000E+001	0.00000E+000	Init. De&lay	Time(s)	Stab.(mV/s)
EQDELAY	QUANT	0.00000E+000	Equil. &Time (s)
IRCOMP	SELECTOR	0	IRCom&p
PFCOR	QUANT	5.00000E+001	PF Corr. (ohm)
SAMPLINGMODE	SELECTOR	1	Sampling &Mode
EOC	QUANT	0	Open Circuit (V)
PSTATMODEL	IQUANT	5	Pstat Model
PSTATSECTION	LABEL	REF3000-21108	Pstat Section
PSTATSERIALNO	LABEL	21108	Pstat Serial Number
CTRLMODE	IQUANT	1	Control Mode
ELECTROMETER	IQUANT	0	RE=0 or CS=1
IESTAB	IQUANT	2	I/E Stability
CASPEED	IQUANT	4	Control Amp Speed
CONVENTION	IQUANT	1	Current Convention
ICHRANGE	IQUANT	2	Ich Range
ICHRANGEMODE	TOGGLE	F	Ich Auto Range
ICHOFFSETENABLE	TOGGLE	F	Ich Offset Enable
ICHOFFSET	QUANT	0	Ich Offset (V)
ICHFILTER	IQUANT	2	Ich Filter
VCHRANGE	IQUANT	2	Vch Range
VCHRANGEMODE	TOGGLE	T	Vch Auto Range
VCHOFFSETENABLE	TOGGLE	F	Vch Offset Enable
VCHOFFSET	QUANT	0	Vch Offset (V)
VCHFILTER	IQUANT	2	Vch Filter
ACHRANGE	IQUANT	2	Ach Range
ACHOFFSETENABLE	TOGGLE	F	Ach Offset Enable
ACHOFFSET	QUANT	0	Ach Offset (V)
ACHFILTER	IQUANT	0	Ach Filter
IERANGELOWERLIMIT	IQUANT	2	I/E Range Lower Limit
IERANGEMODE	TOGGLE	T	I/E AutoRange
IERANGE	IQUANT	11	I/E Range
POSFEEDENABLE	TOGGLE	F	Positive Feedback IR Comp
POSFEEDRESISTANCE	QUANT	0	Positive Feedback Resistance (ohm)
ACHSELECT	IQUANT	0	Ach Select
SENSECABLEID	IQUANT	14	Sense Cable ID
PWRCABLEID	IQUANT	7	Power Cable ID
DCCALDATE	LABEL	11/9/2022	DC Calibration Date
ACCALDATE	LABEL	11/9/2022	AC Calibration Date
THERMOSELECT	IQUANT	1	Thermo Select
FRAMEWORKVERSION	LABEL	7.8.2	Framework Version
INSTRUMENTVERSION	LABEL	4.40	Instrument Version
COMPLIANCEVOLTAGE	IQUANT	0	Compliance Voltage
CURVE	TABLE	15001
	Pt	T	Vf	Im	Vu	Sig	Ach	IERange	Over	Cycle	Temp
	#	s	V vs. Ref.	A	V	V	V	#	bits	#	deg C
	0	0.002	4.99633E-001	-3.79654E-005	0.00000E+000	5.00000E-001	-8.70939E-004	11	..........a	0	-327.74
	32	0.066	4.95547E-001	8.91374E-006	0.00000E+000	4.96800E-001	-8.29272E-004	8	..........a	0	-327.74
	64	0.13	4.92310E-001	6.42186E-006	0.00000E+000	4.93600E-001	-8.04272E-004	8	..........a	0	-327.74
	96	0.194	4.89152E-001	5.18613E-006	0.00000E+000	4.90400E-001	-8.20939E-004	8	..........a	0	-327.74
	128	0.258	4.85931E-001	4.28412E-006	0.00000E+000	4.87200E-001	-8.62605E-004	8	..........a	0	-327.74
	160	0.322	4.82722E-001	3.64208E-006	0.00000E+000	4.84000E-001	-8.12605E-004	8	..........a	0	-327.74
	192	0.386	4.79535E-001	3.42002E-006	0.00000E+000	4.80800E-001	-8.70939E-004	8	..........a	0	-327.74
	224	0.45	4.76335E-001	3.18129E-006	0.00000E+000	4.77600E-001	-8.20939E-004	8	..........a	0	-327.74
	256	0.514	4.73181E-001	2.92214E-006	0.00000E+000	4.74400E-001	-8.29272E-004	8	..........a	0	-327.74
	288	0.578	4.69943E-001	2.63716E-006	0.00000E+000	4.71200E-001	-8.70939E-004	8	..........a	0	-327.74
	320	0.642	4.66760E-001	2.46093E-006	0.00000E+000	4.68000E-001	-8.45939E-004	8	..........a	0	-327.74
	352	0.706	4.63510E-001	2.39260E-006	0.00000E+000	4.64800E-001	-8.54272E-004	8	..........a	0	-327.74
	384	0.77	4.60397E-001	2.39635E-006	0.00000E+000	4.61600E-001	-8.54272E-004	8	..........a	0	-327.74
	416	0.834	4.57156E-001	2.24970E-006	0.00000E+000	4.58400E-001	-8.45939E-004	8	..........a	0	-327.74
	448	0.898	4.53952E-001	2.22136E-006	0.00000E+000	4.55200E-001	-8.87605E-004	8	..........a	0	-327.74
	480	0.962	4.50718E-001	2.15512E-006	0.00000E+000	4.52000E-001	-8.12605E-004	8	..........a	0	-327.74
	512	1.026	4.47572E-001	2.11304E-006	0.00000E+000	4.48800E-001	-8.62605E-004	8	..........a	0	-327.74
	544	1.09	4.44356E-001	1.86973E-006	0.00000E+000	4.45600E-001	-8.12605E-004	8	..........a	0	-327.74
	576	1.154	4.41160E-001	1.91931E-006	0.00000E+000	4.42400E-001	-8.12605E-004	8	..........a	0	-327.74
	608	1.218	4.37952E-001	1.58558E-006	0.00000E+000	4.39200E-001	-7.87605E-004	8	..........a	0	-327.74
	640	1.282	4.34802E-001	1.72599E-006	0.00000E+000	4.36000E-001	-8.62605E-004	8	..........a	0	-327.74
	672	1.346	4.31602E-001	1.67933E-006	0.00000E+000	4.32800E-001	-8.54272E-004	8	..........a	0	-327.74
	704	1.41	4.28377E-001	1.41726E-006	0.00000E+000	4.29600E-001	-8.87605E-004	8	..........a	0	-327.74
	736	1.474	4.25152E-001	1.42935E-006	0.00000E+000	4.26400E-001	-8.29272E-004	8	..........a	0	-327.74
	768	1.538	4.21977E-001	1.60350E-006	0.00000E+000	4.23200E-001	-8.37606E-004	8	..........a	0	-327.74
	800	1.602	4.18764E-001	1.36935E-006	0.00000E+000	4.20000E-001	-8.29272E-004	8	..........a	0	-327.74
	832	1.666	4.15552E-001	1.28061E-006	0.00000E+000	4.16800E-001	-8.37606E-004	8	..........a	0	-327.74
	864	1.73	4.12364E-001	1.63516E-006	0.00000E+000	4.13600E-001	-8.70939E-004	8	..........a	0	-327.74
	896	1.794	4.09189E-001	1.10187E-006	0.00000E+000	4.10400E-001	-8.20939E-004	8	..........a	0	-327.74
	928	1.858	4.05968E-001	1.16103E-006	0.00000E+000	4.07200E-001	-8.79272E-004	8	..........a	0	-327.74
	960	1.922	4.02760E-001	1.32685E-006	0.00000E+000	4.04000E-001	-8.12605E-004	8	..........a	0	-327.74
	992	1.986	3.99535E-001	1.16812E-006	0.00000E+000	4.00800E-001	-8.37606E-004	8	..........a	0	-327.74
	1024	2.05	3.96339E-001	1.15812E-006	0.00000E+000	3.97600E-001	-8.95939E-004	8	..........a	0	-327.74
	1056	2.114	3.93164E-001	8.49392E-007	0.00000E+000	3.94400E-001	-8.87605E-004	8	..........a	0	-327.74
	1088	2.178	3.89985E-001	8.38976E-007	0.00000E+000	3.91200E-001	-8.62605E-004	8	..........a	0	-327.74
	1120	2.242	3.86802E-001	9.13553E-007	0.00000E+000	3.88000E-001	-8.45939E-004	8	..........a	0	-327.74
	1152	2.306	3.83585E-001	8.43559E-007	0.00000E+000	3.84800E-001	-8.87605E-004	8	..........a	0	-327.74
	1184	2.37	3.80406E-001	8.81056E-007	0.00000E+000	3.81600E-001	-8.45939E-004	8	..........a	0	-327.74
	1216	2.434	3.77193E-001	6.66073E-007	0.00000E+000	3.78400E-001	-7.95939E-004	8	..........a	0	-327.74
	1248	2.498	3.73989E-001	7.66482E-007	0.00000E+000	3.75200E-001	-8.54272E-004	8	..........a	0	-327.74
	1280	2.562	3.70818E-001	6.14827E-007	0.00000E+000	3.72000E-001	-8.37606E-004	8	..........a	0	-327.74
	1312	2.626	3.67572E-001	6.13577E-007	0.00000E+000	3.68800E-001	-8.37606E-004	8	..........a	0	-327.74
	1344	2.69	3.64385E-001	5.66081E-007	0.00000E+000	3.65600E-001	-8.70939E-004	8	..........a	0	-327.74
	1376	2.754	3.61147E-001	5.01920E-007	0.00000E+000	3.62400E-001	-8.37606E-004	8	..........a	0	-327.74
	1408	2.818	3.57997E-001	4.55257E-007	0.00000E+000	3.59200E-001	-8.70939E-004	8	..........a	0	-327.74
	1440	2.882	3.54789E-001	5.28584E-007	0.00000E+000	3.56000E-001	-8.37606E-004	8	..........a	0	-327.74
	1472	2.946	3.51531E-001	5.13585E-007	0.00000E+000	3.52800E-001	-8.29272E-004	8	..........a	0	-327.74
	1504	3.01	3.48402E-001	2.99853E-007	0.00000E+000	3.49600E-001	-8.79272E-004	8	..........a	0	-327.74
	1536	3.074	3.45210E-001	3.52348E-007	0.00000E+000	3.46400E-001	-8.29272E-004	8	..........a	0	-327.74
	1568	3.138	3.41977E-001	2.49023E-007	0.00000E+000	3.43200E-001	-8.29272E-004	8	..........a	0	-327.74
	1600	3.202	3.38818E-001	3.45266E-007	0.00000E+000	3.40000E-001	-8.29272E-004	8	..........a	0	-327.74
	1632	3.266	3.35568E-001	2.94436E-007	0.00000E+000	3.36800E-001	-7.62605E-004	8	..........a	0	-327.74
	1664	3.33	3.32431E-001	2.71105E-007	0.00000E+000	3.33600E-001	-8.12605E-004	8	..........a	0	-327.74
	1696	3.394	3.29185E-001	2.38191E-007	0.00000E+000	3.30400E-001	-8.54272E-004	8	..........a	0	-327.74
	1728	3.458	3.26018E-001	2.44857E-007	0.00000E+000	3.27200E-001	-8.62605E-004	8	..........a	0	-327.74
	1760	3.522	3.22810E-001	2.56523E-007	0.00000E+000	3.24000E-001	-8.45939E-004	8	..........a	0	-327.74
	1792	3.586	3.19631E-001	7.15375E-008	0.00000E+000	3.20800E-001	-8.54272E-004	8	..........a	0	-327.74
	1824	3.65	3.16406E-001	1.85278E-007	0.00000E+000	3.17600E-001	-8.29272E-004	8	..........a	0	-327.74
	1856	3.714	3.13193E-001	1.70696E-007	0.00000E+000	3.14400E-001	-8.54272E-004	8	..........a	0	-327.74
	1888	3.778	3.10006E-001	2.02777E-007	0.00000E+000	3.11200E-001	-8.04272E-004	8	..........a	0	-327.74
	1920	3.842	3.06843E-001	6.57046E-008	0.00000E+000	3.08000E-001	-8.29272E-004	8	..........a	0	-327.74
	1952	3.906	3.03652E-001	1.62364E-007	0.00000E+000	3.04800E-001	-8.29272E-004	8	..........a	0	-327.74
	1984	3.97	3.00422E-001	1.50281E-007	0.00000E+000	3.01600E-001	-8.45939E-004	8	..........a	0	-327.74
	2016	4.034	2.97210E-001	7.40373E-008	0.00000E+000	2.98400E-001	-9.20939E-004	8	..........a	0	-327.74
	2048	4.098	2.94068E-001	1.09451E-007	0.00000E+000	2.95200E-001	-8.12605E-004	8	..........a	0	-327.74
	2080	4.162	2.90847E-001	5.90385E-008	0.00000E+000	2.92000E-001	-7.70939E-004	8	..........a	0	-327.74
	2112	4.226	2.87606E-001	1.38615E-007	0.00000E+000	2.88800E-001	-8.37606E-004	8	..........a	0	-327.74
	2144	4.29	2.84427E-001	1.57087E-008	0.00000E+000	2.85600E-001	-8.20939E-004	8	..........a	0	-327.74
	2176	4.354	2.81247E-001	1.97361E-007	0.00000E+000	2.82400E-001	-8.70939E-004	8	..........a	0	-327.74
	2208	4.418	2.78039E-001	1.37366E-007	0.00000E+000	2.79200E-001	-8.45939E-004	8	..........a	0	-327.74
	2240	4.482	2.74827E-001	5.65387E-008	0.00000E+000	2.76000E-001	-8.20939E-004	8	..........a	0	-327.74
	2272	4.546	2.71577E-001	4.45956E-009	0.00000E+000	2.72800E-001	-8.12605E-004	8	..........a	0	-327.74
	2304	4.61	2.68439E-001	-3.38707E-008	0.00000E+000	2.69600E-001	-8.70939E-004	8	..........a	0	-327.74
	2336	4.674	2.65214E-001	-7.62280E-009	0.00000E+000	2.66400E-001	-8.62605E-004	8	..........a	0	-327.74
	2368	4.738	2.62039E-001	-4.51198E-008	0.00000E+000	2.63200E-001	-8.20939E-004	8	..........a	0	-327.74
	2400	4.802	2.58814E-001	4.86227E-008	0.00000E+000	2.60000E-001	-7.79272E-004	8	..........a	0	-327.74
	2432	4.866	2.55635E-001	6.95936E-009	0.00000E+000	2.56800E-001	-7.95939E-004	8	..........a	0	-327.74
	2464	4.93	2.52464E-001	-7.13677E-008	0.00000E+000	2.53600E-001	-8.29272E-004	8	..........a	0	-327.74
	2496	4.994	2.49231E-001	-1.76220E-008	0.00000E+000	2.50400E-001	-7.79272E-004	8	..........a	0	-327.74
	2528	5.058	2.46060E-001	-1.55388E-008	0.00000E+000	2.47200E-001	-8.45939E-004	8	..........a	0	-327.74
	2560	5.122	2.42751E-001	-2.88711E-008	0.00000E+000	2.44000E-001	-8.54272E-004	8	......s...a	0	-327.74
	2592	5.186	2.39554E-001	2.02916E-008	0.00000E+000	2.40800E-001	-8.45939E-004	8	..........a	0	-327.74
	2624	5.25	2.36349E-001	-1.23863E-007	0.00000E+000	2.37600E-001	-7.87605E-004	8	..........a	0	-327.74
	2656	5.314	2.33166E-001	-8.09503E-008	0.00000E+000	2.34400E-001	-8.04272E-004	8	..........a	0	-327.74
	2688	5.378	2.29956E-001	-1.64694E-007	0.00000E+000	2.31200E-001	-8.54272E-004	8	..........a	0	-327.74
	2720	5.442	2.26763E-001	-1.24280E-007	0.00000E+000	2.28000E-001	-8.04272E-004	8	..........a	0	-327.74
	2752	5.506	2.23576E-001	4.07066E-008	0.00000E+000	2.24800E-001	-8.37606E-004	8	..........a	0	-327.74
	2784	5.57	2.20351E-001	-7.72005E-008	0.00000E+000	2.21600E-001	-8.87605E-004	8	..........a	0	-327.74
	2816	5.634	2.17161E-001	1.23200E-007	0.00000E+000	2.18400E-001	-8.79272E-004	8	..........a	0	-327.74
	2848	5.698	2.13965E-001	2.10693E-007	0.00000E+000	2.15200E-001	-8.04272E-004	8	..........a	0	-327.74
	2880	5.762	2.10776E-001	-4.59531E-008	0.00000E+000	2.12000E-001	-8.87605E-004	8	..........a	0	-327.74
	2912	5.826	2.07581E-001	-1.01782E-007	0.00000E+000	2.08800E-001	-8.37606E-004	8	..........a	0	-327.74
	2944	5.89	2.04373E-001	-3.09543E-008	0.00000E+000	2.05600E-001	-8.87605E-004	8	..........a	0	-327.74
	2976	5.954	2.01173E-001	6.07050E-008	0.00000E+000	2.02400E-001	-8.62605E-004	8	..........a	0	-327.74
	3008	6.018	1.97971E-001	-1.00115E-007	0.00000E+000	1.99200E-001	-8.45939E-004	8	..........a	0	-327.74
	3040	6.082	1.94776E-001	1.02368E-007	0.00000E+000	1.96000E-001	-8.79272E-004	8	..........a	0	-327.74
	3072	6.146	1.91571E-001	-2.70518E-007	0.00000E+000	1.92800E-001	-7.95939E-004	8	..........a	0	-327.74
	3104	6.21	1.88373E-001	-1.66777E-007	0.00000E+000	1.89600E-001	-8.54272E-004	8	..........a	0	-327.74
	3136	6.274	1.85184E-001	-2.03440E-007	0.00000E+000	1.86400E-001	-8.62605E-004	8	..........a	0	-327.74
	3168	6.338	1.81986E-001	-4.30366E-008	0.00000E+000	1.83200E-001	-8.12605E-004	8	..........a	0	-327.74
	3200	6.402	1.78793E-001	-9.84488E-008	0.00000E+000	1.80000E-001	-8.37606E-004	8	..........a	0	-327.74
	3232	6.466	1.75588E-001	1.57087E-008	0.00000E+000	1.76800E-001	-8.20939E-004	8	..........a	0	-327.74
	3264	6.53	1.72405E-001	-1.14698E-007	0.00000E+000	1.73600E-001	-8.37606E-004	8	..........a	0	-327.74
	3296	6.594	1.69188E-001	-1.08865E-007	0.00000E+000	1.70400E-001	-7.87605E-004	8	..........a	0	-327.74
	3328	6.658	1.65993E-001	7.79263E-009	0.00000E+000	1.67200E-001	-8.87605E-004	8	..........a	0	-327.74
	3360	6.722	1.62783E-001	-1.85109E-007	0.00000E+000	1.64000E-001	-8.45939E-004	8	..........a	0	-327.74
	3392	6.786	1.59593E-001	-1.03865E-007	0.00000E+000	1.60800E-001	-8.87605E-004	8	..........a	0	-327.74
	3424	6.85	1.56383E-001	-9.63657E-008	0.00000E+000	1.57600E-001	-7.95939E-004	8	..........a	0	-327.74
	3456	6.914	1.53188E-001	-1.47056E-008	0.00000E+000	1.54400E-001	-8.70939E-004	8	..........a	0	-327.74
	3488	6.978	1.49989E-001	-2.11773E-007	0.00000E+000	1.51200E-001	-8.12605E-004	8	..........a	0	-327.74
	3520	7.042	1.46806E-001	-1.74693E-007	0.00000E+000	1.48000E-001	-8.54272E-004	8	..........a	0	-327.74
	3552	7.106	1.43604E-001	-1.03865E-007	0.00000E+000	1.44800E-001	-8.20939E-004	8	..........a	0	-327.74
	3584	7.17	1.40405E-001	-3.84537E-008	0.00000E+000	1.41600E-001	-8.20939E-004	8	..........a	0	-327.74
	3616	7.234	1.37205E-001	-3.17875E-008	0.00000E+000	1.38400E-001	-8.04272E-004	8	..........a	0	-327.74
	3648	7.298	1.34011E-001	7.27874E-008	0.00000E+000	1.35200E-001	-8.12605E-004	8	..........a	0	-327.74
	3680	7.362	1.30825E-001	-1.76359E-007	0.00000E+000	1.32000E-001	-7.62605E-004	8	..........a	0	-327.74
	3712	7.426	1.27613E-001	-1.68443E-007	0.00000E+000	1.28800E-001	-8.29272E-004	8	..........a	0	-327.74
	3744	7.49	1.24413E-001	4.36231E-008	0.00000E+000	1.25600E-001	-8.79272E-004	8	..........a	0	-327.74
	3776	7.554	1.21213E-001	-2.42187E-007	0.00000E+000	1.22400E-001	-8.04272E-004	8	..........a	0	-327.74
	3808	7.618	1.18010E-001	-8.38667E-008	0.00000E+000	1.19200E-001	-8.54272E-004	8	..........a	0	-327.74
	3840	7.682	1.14815E-001	-3.12182E-007	0.00000E+000	1.16000E-001	-7.79272E-004	8	..........a	0	-327.74
	3872	7.746	1.11606E-001	-2.24689E-007	0.00000E+000	1.12800E-001	-8.87605E-004	8	..........a	0	-327.74
	3904	7.81	1.08433E-001	-2.06773E-007	0.00000E+000	1.09600E-001	-8.37606E-004	8	..........a	0	-327.74
	3936	7.874	1.05217E-001	-1.88858E-007	0.00000E+000	1.06400E-001	-8.04272E-004	8	..........a	0	-327.74
	3968	7.938	1.02027E-001	-2.00524E-007	0.00000E+000	1.03200E-001	-8.79272E-004	8	..........a	0	-327.74
	4000	8.002	9.88347E-002	2.65411E-008	0.00000E+000	1.00000E-001	-8.79272E-004	8	..........a	0	-327.74
	4032	8.066	9.56264E-002	-9.59490E-008	0.00000E+000	9.68000E-002	-8.62605E-004	8	..........a	0	-327.74
	4064	8.13	9.24268E-002	-5.84521E-008	0.00000E+000	9.36000E-002	-8.20939E-004	8	..........a	0	-327.74
	4096	8.194	8.92389E-002	-1.92608E-007	0.00000E+000	9.04000E-002	-8.45939E-004	8	..........a	0	-327.74
	4128	8.258	8.60401E-002	-1.15947E-007	0.00000E+000	8.72000E-002	-9.12605E-004	8	..........a	0	-327.74
	4160	8.322	8.28293E-002	-1.35529E-007	0.00000E+000	8.40000E-002	-8.12605E-004	8	..........a	0	-327.74
	4192	8.386	7.96406E-002	-1.45112E-007	0.00000E+000	8.08000E-002	-8.04272E-004	8	..........a	0	-327.74
	4224	8.45	7.64539E-002	-2.12190E-007	0.00000E+000	7.76000E-002	-8.62605E-004	8	..........a	0	-327.74
	4256	8.514	7.32456E-002	-6.01186E-008	0.00000E+000	7.44000E-002	-8.04272E-004	8	..........a	0	-327.74
	4288	8.578	7.00418E-002	-2.23022E-007	0.00000E+000	7.12000E-002	-8.62605E-004	8	..........a	0	-327.74
	4320	8.642	6.68510E-002	-1.33863E-007	0.00000E+000	6.80000E-002	-7.79272E-004	8	..........a	0	-327.74
	4352	8.706	6.36601E-002	-1.92191E-007	0.00000E+000	6.48000E-002	-8.29272E-004	8	..........a	0	-327.74
	4384	8.77	6.04526E-002	-1.26363E-007	0.00000E+000	6.16000E-002	-8.20939E-004	8	..........a	0	-327.74
	4416	8.834	5.72572E-002	-2.10107E-007	0.00000E+000	5.84000E-002	-8.29272E-004	8	..........a	0	-327.74
	4448	8.898	5.40489E-002	-1.24280E-007	0.00000E+000	5.52000E-002	-8.70939E-004	8	..........a	0	-327.74
	4480	8.962	5.08556E-002	-6.84513E-008	0.00000E+000	5.20000E-002	-9.04272E-004	8	..........a	0	-327.74
	4512	9.026	4.76651E-002	-1.41779E-007	0.00000E+000	4.88000E-002	-8.37606E-004	8	..........a	0	-327.74
	4544	9.09	4.44635E-002	-4.51198E-008	0.00000E+000	4.56000E-002	-8.37606E-004	8	..........a	0	-327.74
	4576	9.154	4.12506E-002	-7.22009E-008	0.00000E+000	4.24000E-002	-9.04272E-004	8	..........a	0	-327.74
	4608	9.218	3.80618E-002	-2.01774E-007	0.00000E+000	3.92000E-002	-8.62605E-004	8	..........a	0	-327.74
	4640	9.282	3.48656E-002	-2.40937E-007	0.00000E+000	3.60000E-002	-8.79272E-004	8	..........a	0	-327.74
	4672	9.346	3.16518E-002	-2.21356E-007	0.00000E+000	3.28000E-002	-8.29272E-004	8	..........a	0	-327.74
	4704	9.41	2.84685E-002	-2.40104E-007	0.00000E+000	2.96000E-002	-8.54272E-004	8	..........a	0	-327.74
	4736	9.474	2.52585E-002	-2.02607E-007	0.00000E+000	2.64000E-002	-8.20939E-004	8	..........a	0	-327.74
	4768	9.538	2.20683E-002	-1.28030E-007	0.00000E+000	2.32000E-002	-8.29272E-004	8	..........a	0	-327.74
	4800	9.602	1.88633E-002	-8.13669E-008	0.00000E+000	2.00000E-002	-8.37606E-004	8	..........a	0	-327.74
	4832	9.666	1.56492E-002	-2.16356E-007	0.00000E+000	1.68000E-002	-8.37606E-004	8	..........a	0	-327.74
	4864	9.73	1.24549E-002	-1.44695E-007	0.00000E+000	1.36000E-002	-8.45939E-004	8	..........a	0	-327.74
	4896	9.794	9.26006E-003	-3.31347E-007	0.00000E+000	1.04000E-002	-8.20939E-004	8	..........a	0	-327.74
	4928	9.858	6.05722E-003	-2.37188E-007	0.00000E+000	7.20000E-003	-8.04272E-004	8	..........a	0	-327.74
	4960	9.922	2.87139E-003	-1.12198E-007	0.00000E+000	4.00001E-003	-8.12605E-004	8	..........a	0	-327.74
	4992	9.986	-3.08443E-004	-1.21780E-007	0.00000E+000	7.99984E-004	-8.20939E-004	8	..........a	0	-327.74
	5024	10.05	-3.52661E-003	-9.55324E-008	0.00000E+000	-2.40001E-003	-8.37606E-004	8	..........a	0	-327.74
	5056	10.114	-6.72757E-003	-2.55520E-007	0.00000E+000	-5.60001E-003	-8.70939E-004	8	..........a	0	-327.74
	5088	10.178	-9.92419E-003	-2.53853E-007	0.00000E+000	-8.80000E-003	-8.37606E-004	8	..........a	0	-327.74
	5120	10.242	-1.31098E-002	-8.34500E-008	0.00000E+000	-1.20000E-002	-8.29272E-004	8	..........a	0	-327.74
	5152	10.306	-1.63275E-002	-4.02591E-007	0.00000E+000	-1.52000E-002	-8.62605E-004	8	..........a	0	-327.74
	5184	10.37	-1.95089E-002	-8.67831E-008	0.00000E+000	-1.84000E-002	-8.95939E-004	8	..........a	0	-327.74
	5216	10.434	-2.26978E-002	-1.06781E-007	0.00000E+000	-2.16000E-002	-8.04272E-004	8	..........a	0	-327.74
	5248	10.498	-2.58981E-002	-2.07607E-007	0.00000E+000	-2.48000E-002	-9.04272E-004	8	..........a	0	-327.74
	5280	10.562	-2.91153E-002	-3.23431E-007	0.00000E+000	-2.80000E-002	-7.62605E-004	8	..........a	0	-327.74
	5312	10.626	-3.23203E-002	-3.43013E-007	0.00000E+000	-3.12000E-002	-8.20939E-004	8	..........a	0	-327.74
	5344	10.69	-3.55157E-002	-3.58428E-007	0.00000E+000	-3.44000E-002	-8.37606E-004	8	..........a	0	-327.74
	5376	10.754	-3.87157E-002	-2.71768E-007	0.00000E+000	-3.76000E-002	-7.62605E-004	8	..........a	0	-327.74
	5408	10.818	-4.19157E-002	-2.63852E-007	0.00000E+000	-4.08000E-002	-8.45939E-004	8	..........a	0	-327.74
	5440	10.882	-4.51015E-002	-1.44695E-007	0.00000E+000	-4.40000E-002	-7.87605E-004	8	..........a	0	-327.74
	5472	10.946	-4.83119E-002	-2.46770E-007	0.00000E+000	-4.72000E-002	-8.29272E-004	8	..........a	0	-327.74
	5504	11.01	-5.15007E-002	-1.27613E-007	0.00000E+000	-5.04000E-002	-9.12605E-004	8	..........a	0	-327.74
	5536	11.074	-5.47044E-002	-2.11773E-007	0.00000E+000	-5.36000E-002	-8.79272E-004	8	..........a	0	-327.74
	5568	11.138	-5.79103E-002	-2.00524E-007	0.00000E+000	-5.68000E-002	-8.12605E-004	8	..........a	0	-327.74
	5600	11.202	-6.11015E-002	-1.47612E-007	0.00000E+000	-6.00000E-002	-7.95939E-004	8	..........a	0	-327.74
	5632	11.266	-6.42936E-002	-1.93025E-007	0.00000E+000	-6.32000E-002	-8.12605E-004	8	..........a	0	-327.74
	5664	11.33	-6.74936E-002	-2.71768E-007	0.00000E+000	-6.64000E-002	-8.45939E-004	8	..........a	0	-327.74
	5696	11.394	-7.07069E-002	-2.95516E-007	0.00000E+000	-6.96000E-002	-7.95939E-004	8	..........a	0	-327.74
	5728	11.458	-7.39028E-002	-3.32597E-007	0.00000E+000	-7.28000E-002	-8.95939E-004	8	..........a	0	-327.74
	5760	11.522	-7.70828E-002	-2.68019E-007	0.00000E+000	-7.60000E-002	-8.54272E-004	8	..........a	0	-327.74
	5792	11.586	-8.02999E-002	-2.41771E-007	0.00000E+000	-7.92000E-002	-8.20939E-004	8	..........a	0	-327.74
	5824	11.65	-8.34936E-002	-2.65519E-007	0.00000E+000	-8.24000E-002	-8.12605E-004	8	..........a	0	-327.74
	5856	11.714	-8.66878E-002	-2.25522E-007	0.00000E+000	-8.56000E-002	-8.45939E-004	8	..........a	0	-327.74
	5888	11.778	-8.98915E-002	-3.67594E-007	0.00000E+000	-8.88000E-002	-8.45939E-004	8	..........a	0	-327.74
	5920	11.842	-9.30799E-002	-3.06765E-007	0.00000E+000	-9.20000E-002	-8.79272E-004	8	..........a	0	-327.74
	5952	11.906	-9.62811E-002	-2.39687E-007	0.00000E+000	-9.52000E-002	-7.95939E-004	8	..........a	0	-327.74
	5984	11.97	-9.94799E-002	-4.73835E-007	0.00000E+000	-9.84000E-002	-7.95939E-004	8	..........a	0	-327.74
	6016	12.034	-1.02678E-001	-3.39679E-007	0.00000E+000	-1.01600E-001	-8.37606E-004	8	..........a	0	-327.74
	6048	12.098	-1.05870E-001	-2.12190E-007	0.00000E+000	-1.04800E-001	-8.04272E-004	8	..........a	0	-327.74
	6080	12.162	-1.09080E-001	-3.62178E-007	0.00000E+000	-1.08000E-001	-8.12605E-004	8	..........a	0	-327.74
	6112	12.226	-1.12276E-001	-2.20106E-007	0.00000E+000	-1.11200E-001	-9.20939E-004	8	..........a	0	-327.74
	6144	12.29	-1.15468E-001	-2.01774E-007	0.00000E+000	-1.14400E-001	-8.79272E-004	8	..........a	0	-327.74
	6176	12.354	-1.18672E-001	-2.95516E-007	0.00000E+000	-1.17600E-001	-8.45939E-004	8	..........a	0	-327.74
	6208	12.418	-1.21868E-001	-3.45929E-007	0.00000E+000	-1.20800E-001	-8.54272E-004	8	..........a	0	-327.74
	6240	12.482	-1.25069E-001	-2.04274E-007	0.00000E+000	-1.24000E-001	-8.37606E-004	8	..........a	0	-327.74
	6272	12.546	-1.28254E-001	-2.83434E-007	0.00000E+000	-1.27200E-001	-8.62605E-004	8	..........a	0	-327.74
	6304	12.61	-1.31454E-001	-3.34263E-007	0.00000E+000	-1.30400E-001	-7.37606E-004	8	..........a	0	-327.74
	6336	12.674	-1.34663E-001	-3.67177E-007	0.00000E+000	-1.33600E-001	-7.95939E-004	8	..........a	0	-327.74
	6368	12.738	-1.37848E-001	-3.19264E-007	0.00000E+000	-1.36800E-001	-8.37606E-004	8	..........a	0	-327.74
	6400	12.802	-1.41039E-001	-3.52178E-007	0.00000E+000	-1.40000E-001	-8.29272E-004	8	..........a	0	-327.74
	6432	12.866	-1.44259E-001	-3.27597E-007	0.00000E+000	-1.43200E-001	-8.04272E-004	8	..........a	0	-327.74
	6464	12.93	-1.47456E-001	-5.21332E-007	0.00000E+000	-1.46400E-001	-7.79272E-004	8	..........a	0	-327.74
	6496	12.994	-1.50654E-001	-4.39255E-007	0.00000E+000	-1.49600E-001	-7.87605E-004	8	..........a	0	-327.74
	6528	13.058	-1.53862E-001	-4.31755E-007	0.00000E+000	-1.52800E-001	-7.95939E-004	8	..........a	0	-327.74
	6560	13.122	-1.57060E-001	-4.60920E-007	0.00000E+000	-1.56000E-001	-8.45939E-004	8	..........a	0	-327.74
	6592	13.186	-1.60247E-001	-4.29672E-007	0.00000E+000	-1.59200E-001	-8.37606E-004	8	..........a	0	-327.74
	6624	13.25	-1.63467E-001	-5.00917E-007	0.00000E+000	-1.62400E-001	-8.37606E-004	8	..........a	0	-327.74
	6656	13.314	-1.66656E-001	-4.20923E-007	0.00000E+000	-1.65600E-001	-8.04272E-004	8	..........a	0	-327.74
	6688	13.378	-1.69851E-001	-4.95500E-007	0.00000E+000	-1.68800E-001	-7.87605E-004	8	..........a	0	-327.74
	6720	13.442	-1.73045E-001	-5.52996E-007	0.00000E+000	-1.72000E-001	-8.62605E-004	8	..........a	0	-327.74
	6752	13.506	-1.76239E-001	-5.32164E-007	0.00000E+000	-1.75200E-001	-8.45939E-004	8	..........a	0	-327.74
	6784	13.57	-1.79439E-001	-5.12166E-007	0.00000E+000	-1.78400E-001	-8.54272E-004	8	..........a	0	-327.74
	6816	13.634	-1.82632E-001	-4.49254E-007	0.00000E+000	-1.81600E-001	-8.45939E-004	8	..........a	0	-327.74
	6848	13.698	-1.85845E-001	-6.38405E-007	0.00000E+000	-1.84800E-001	-7.87605E-004	8	..........a	0	-327.74
	6880	13.762	-1.89028E-001	-6.00492E-007	0.00000E+000	-1.88000E-001	-7.79272E-004	8	..........a	0	-327.74
	6912	13.826	-1.92229E-001	-6.02575E-007	0.00000E+000	-1.91200E-001	-8.70939E-004	8	..........a	0	-327.74
	6944	13.89	-1.95437E-001	-5.93826E-007	0.00000E+000	-1.94400E-001	-8.37606E-004	8	..........a	0	-327.74
	6976	13.954	-1.98629E-001	-6.45488E-007	0.00000E+000	-1.97600E-001	-7.45939E-004	8	..........a	0	-327.74
	7008	14.018	-2.01817E-001	-6.56737E-007	0.00000E+000	-2.00800E-001	-7.95939E-004	8	..........a	0	-327.74
	7040	14.082	-2.05013E-001	-5.00917E-007	0.00000E+000	-2.04000E-001	-8.20939E-004	8	..........a	0	-327.74
	7072	14.146	-2.08223E-001	-6.63820E-007	0.00000E+000	-2.07200E-001	-8.12605E-004	8	..........a	0	-327.74
	7104	14.21	-2.11426E-001	-6.07158E-007	0.00000E+000	-2.10400E-001	-7.45939E-004	8	..........a	0	-327.74
	7136	14.274	-2.14628E-001	-6.84235E-007	0.00000E+000	-2.13600E-001	-7.70939E-004	8	..........a	0	-327.74
	7168	14.338	-2.17836E-001	-8.37140E-007	0.00000E+000	-2.16800E-001	-8.20939E-004	8	..........a	0	-327.74
	7200	14.402	-2.21017E-001	-6.62570E-007	0.00000E+000	-2.20000E-001	-8.29272E-004	8	..........a	0	-327.74
	7232	14.466	-2.24218E-001	-6.97567E-007	0.00000E+000	-2.23200E-001	-7.62605E-004	8	..........a	0	-327.74
	7264	14.53	-2.27410E-001	-6.85902E-007	0.00000E+000	-2.26400E-001	-7.95939E-004	8	..........a	0	-327.74
	7296	14.594	-2.30600E-001	-7.87144E-007	0.00000E+000	-2.29600E-001	-7.79272E-004	8	..........a	0	-327.74
	7328	14.658	-2.33808E-001	-9.47547E-007	0.00000E+000	-2.32800E-001	-8.20939E-004	8	..........a	0	-327.74
	7360	14.722	-2.37012E-001	-8.07142E-007	0.00000E+000	-2.36000E-001	-7.95939E-004	8	..........a	0	-327.74
	7392	14.786	-2.40211E-001	-9.90461E-007	0.00000E+000	-2.39200E-001	-8.37606E-004	8	..........a	0	-327.74
	7424	14.85	-2.43420E-001	-9.12550E-007	0.00000E+000	-2.42400E-001	-8.04272E-004	8	..........a	0	-327.74
	7456	14.914	-2.46631E-001	-1.13837E-006	0.00000E+000	-2.45600E-001	-7.79272E-004	8	..........a	0	-327.74
	7488	14.978	-2.49804E-001	-1.15628E-006	0.00000E+000	-2.48800E-001	-7.54272E-004	8	..........a	0	-327.74
	7520	15.042	-2.53000E-001	-9.22966E-007	0.00000E+000	-2.52000E-001	-8.45939E-004	8	..........a	0	-327.74
	7552	15.106	-2.56217E-001	-1.25669E-006	0.00000E+000	-2.55200E-001	-8.29272E-004	8	..........a	0	-327.74
	7584	15.17	-2.59402E-001	-1.33710E-006	0.00000E+000	-2.58400E-001	-8.37606E-004	8	..........a	0	-327.74
	7616	15.234	-2.62591E-001	-1.30835E-006	0.00000E+000	-2.61600E-001	-8.45939E-004	8	..........a	0	-327.74
	7648	15.298	-2.65799E-001	-1.48334E-006	0.00000E+000	-2.64800E-001	-8.37606E-004	8	..........a	0	-327.74
	7680	15.362	-2.68948E-001	-1.44001E-006	0.00000E+000	-2.68000E-001	-7.95939E-004	8	..........a	0	-327.74
	7712	15.426	-2.72169E-001	-1.32210E-006	0.00000E+000	-2.71200E-001	-7.95939E-004	8	..........a	0	-327.74
	7744	15.49	-2.75365E-001	-1.42626E-006	0.00000E+000	-2.74400E-001	-8.37606E-004	8	..........a	0	-327.74
	7776	15.554	-2.78573E-001	-1.50959E-006	0.00000E+000	-2.77600E-001	-8.12605E-004	8	..........a	0	-327.74
	7808	15.618	-2.81761E-001	-1.60583E-006	0.00000E+000	-2.80800E-001	-8.54272E-004	8	..........a	0	-327.74
	7840	15.682	-2.84961E-001	-1.66791E-006	0.00000E+000	-2.84000E-001	-8.29272E-004	8	..........a	0	-327.74
	7872	15.746	-2.88190E-001	-1.76165E-006	0.00000E+000	-2.87200E-001	-8.45939E-004	8	..........a	0	-327.74
	7904	15.81	-2.91415E-001	-1.78581E-006	0.00000E+000	-2.90400E-001	-8.45939E-004	8	..........a	0	-327.74
	7936	15.874	-2.94582E-001	-1.93038E-006	0.00000E+000	-2.93600E-001	-7.95939E-004	8	..........a	0	-327.74
	7968	15.938	-2.97757E-001	-1.77206E-006	0.00000E+000	-2.96800E-001	-8.20939E-004	8	..........a	0	-327.74
	8000	16.002	-3.00965E-001	-1.91122E-006	0.00000E+000	-3.00000E-001	-8.87605E-004	8	..........a	0	-327.74
	8032	16.066	-3.04211E-001	-2.07829E-006	0.00000E+000	-3.03200E-001	-8.37606E-004	8	..........a	0	-327.74
	8064	16.13	-3.07373E-001	-2.07996E-006	0.00000E+000	-3.06400E-001	-8.45939E-004	8	..........a	0	-327.74
	8096	16.194	-3.10611E-001	-2.16912E-006	0.00000E+000	-3.09600E-001	-8.12605E-004	8	..........a	0	-327.74
	8128	16.258	-3.13769E-001	-2.22619E-006	0.00000E+000	-3.12800E-001	-7.87605E-004	8	..........a	0	-327.74
	8160	16.322	-3.16973E-001	-2.21161E-006	0.00000E+000	-3.16000E-001	-7.95939E-004	8	..........a	0	-327.74
	8192	16.386	-3.20107E-001	-2.20495E-006	0.00000E+000	-3.19200E-001	-7.95939E-004	8	..........a	0	-327.74
	8224	16.45	-3.23332E-001	-2.39368E-006	0.00000E+000	-3.22400E-001	-7.70939E-004	8	..........a	0	-327.74
	8256	16.514	-3.26544E-001	-2.52200E-006	0.00000E+000	-3.25600E-001	-8.04272E-004	8	..........a	0	-327.74
	8288	16.578	-3.29753E-001	-2.63575E-006	0.00000E+000	-3.28800E-001	-7.87605E-004	8	..........a	0	-327.74
	8320	16.642	-3.32932E-001	-2.58325E-006	0.00000E+000	-3.32000E-001	-7.62605E-004	8	..........a	0	-327.74
	8352	16.706	-3.36136E-001	-2.72032E-006	0.00000E+000	-3.35200E-001	-7.79272E-004	8	..........a	0	-327.74
	8384	16.77	-3.39340E-001	-2.89906E-006	0.00000E+000	-3.38400E-001	-7.87605E-004	8	..........a	0	-327.74
	8416	16.834	-3.42594E-001	-2.87823E-006	0.00000E+000	-3.41600E-001	-8.45939E-004	8	..........a	0	-327.74
	8448	16.898	-3.45723E-001	-2.90697E-006	0.00000E+000	-3.44800E-001	-8.20939E-004	8	..........a	0	-327.74
	8480	16.962	-3.48936E-001	-3.08946E-006	0.00000E+000	-3.48000E-001	-7.70939E-004	8	..........a	0	-327.74
	8512	17.026	-3.52165E-001	-3.23070E-006	0.00000E+000	-3.51200E-001	-7.87605E-004	8	..........a	0	-327.74
	8544	17.09	-3.55365E-001	-3.14279E-006	0.00000E+000	-3.54400E-001	-7.70939E-004	8	..........a	0	-327.74
	8576	17.154	-3.58503E-001	-3.31902E-006	0.00000E+000	-3.57600E-001	-7.87605E-004	8	..........a	0	-327.74
	8608	17.218	-3.61728E-001	-3.63816E-006	0.00000E+000	-3.60800E-001	-8.62605E-004	8	..........a	0	-327.74
	8640	17.282	-3.64957E-001	-3.64316E-006	0.00000E+000	-3.64000E-001	-7.79272E-004	8	..........a	0	-327.74
	8672	17.346	-3.68169E-001	-3.72482E-006	0.00000E+000	-3.67200E-001	-7.70939E-004	8	..........a	0	-327.74
	8704	17.41	-3.71294E-001	-3.86315E-006	0.00000E+000	-3.70400E-001	-8.29272E-004	8	..........a	0	-327.74
	8736	17.474	-3.74540E-001	-4.02688E-006	0.00000E+000	-3.73600E-001	-8.45939E-004	8	..........a	0	-327.74
	8768	17.538	-3.77732E-001	-4.06813E-006	0.00000E+000	-3.76800E-001	-8.62605E-004	8	..........a	0	-327.74
	8800	17.602	-3.80923E-001	-4.20937E-006	0.00000E+000	-3.80000E-001	-7.95939E-004	8	..........a	0	-327.74
	8832	17.666	-3.84128E-001	-4.51851E-006	0.00000E+000	-3.83200E-001	-8.37606E-004	8	..........a	0	-327.74
	8864	17.73	-3.87348E-001	-4.54351E-006	0.00000E+000	-3.86400E-001	-8.04272E-004	8	..........a	0	-327.74
	8896	17.794	-3.90507E-001	-5.00514E-006	0.00000E+000	-3.89600E-001	-8.37606E-004	8	..........a	0	-327.74
	8928	17.858	-3.93778E-001	-5.11221E-006	0.00000E+000	-3.92800E-001	-8.37606E-004	8	..........a	0	-327.74
	8960	17.922	-3.96907E-001	-5.38052E-006	0.00000E+000	-3.96000E-001	-8.04272E-004	8	..........a	0	-327.74
	8992	17.986	-4.00103E-001	-5.91215E-006	0.00000E+000	-3.99200E-001	-7.87605E-004	8	..........a	0	-327.74
	9024	18.05	-4.03357E-001	-6.17296E-006	0.00000E+000	-4.02400E-001	-8.29272E-004	8	..........a	0	-327.74
	9056	18.114	-4.06482E-001	-6.69334E-006	0.00000E+000	-4.05600E-001	-8.29272E-004	8	..........a	0	-327.74
	9088	18.178	-4.09732E-001	-7.12997E-006	0.00000E+000	-4.08800E-001	-8.37606E-004	8	..........a	0	-327.74
	9120	18.242	-4.12923E-001	-7.81450E-006	0.00000E+000	-4.12000E-001	-7.70939E-004	8	..........a	0	-327.74
	9152	18.306	-4.16090E-001	-8.37653E-006	0.00000E+000	-4.15200E-001	-8.04272E-004	8	..........a	0	-327.74
	9184	18.37	-4.19332E-001	-9.19897E-006	0.00000E+000	-4.18400E-001	-8.45939E-004	8	..........a	0	-327.74
	9216	18.434	-4.22469E-001	-9.72018E-006	0.00000E+000	-4.21600E-001	-8.12605E-004	8	..........a	0	-327.74
	9248	18.498	-4.25690E-001	-1.05864E-005	0.00000E+000	-4.24800E-001	-7.95939E-004	8	..........a	0	-327.74
	9280	18.562	-4.28890E-001	-1.15888E-005	0.00000E+000	-4.28000E-001	-8.04272E-004	8	..........a	0	-327.74
	9312	18.626	-4.32111E-001	-1.25758E-005	0.00000E+000	-4.31200E-001	-8.20939E-004	8	..........a	0	-327.74
	9344	18.69	-4.35253E-001	-1.39653E-005	0.00000E+000	-4.34400E-001	-7.62605E-004	8	..........a	0	-327.74
	9376	18.754	-4.38486E-001	-1.52047E-005	0.00000E+000	-4.37600E-001	-8.45939E-004	8	..........a	0	-327.74
	9408	18.818	-4.41682E-001	-1.66221E-005	0.00000E+000	-4.40800E-001	-8.45939E-004	8	..........a	0	-327.74
	9440	18.882	-4.44944E-001	-1.82945E-005	0.00000E+000	-4.44000E-001	-8.37606E-004	8	..........a	0	-327.74
	9472	18.946	-4.48078E-001	-2.00081E-005	0.00000E+000	-4.47200E-001	-8.45939E-004	8	..........a	0	-327.74
	9504	19.01	-4.51303E-001	-2.21188E-005	0.00000E+000	-4.50400E-001	-8.04272E-004	8	..........a	0	-327.74
	9536	19.074	-4.54498E-001	-2.46181E-005	0.00000E+000	-4.53600E-001	-8.54272E-004	8	..........a	0	-327.74
	9568	19.138	-4.57682E-001	-2.70388E-005	0.00000E+000	-4.56800E-001	-8.29272E-004	8	..........a	0	-327.74
	9600	19.202	-4.60857E-001	-2.95940E-005	0.00000E+000	-4.60000E-001	-7.95939E-004	8	..........a	0	-327.74
	9632	19.266	-4.64057E-001	-3.29300E-005	0.00000E+000	-4.63200E-001	-8.62605E-004	8	..........a	0	-327.74
	9664	19.33	-4.67248E-001	-3.63660E-005	0.00000E+000	-4.66400E-001	-7.54272E-004	8	..........a	0	-327.74
	9696	19.394	-4.70515E-001	-4.05235E-005	0.00000E+000	-4.69600E-001	-8.20939E-004	8	..........a	0	-327.74
	9728	19.458	-4.73632E-001	-4.49032E-005	0.00000E+000	-4.72800E-001	-8.87605E-004	8	..........a	0	-327.74
	9760	19.522	-4.76840E-001	-4.97353E-005	0.00000E+000	-4.76000E-001	-8.29272E-004	8	..........a	0	-327.74
	9792	19.586	-4.80015E-001	-5.54573E-005	0.00000E+000	-4.79200E-001	-8.20939E-004	8	..........a	0	-327.74
	9824	19.65	-4.83219E-001	-6.17464E-005	0.00000E+000	-4.82400E-001	-8.54272E-004	8	..........a	0	-327.74
	9856	19.714	-4.86382E-001	-6.83909E-005	0.00000E+000	-4.85600E-001	-8.04272E-004	8	..........a	0	-327.74
	9888	19.778	-4.89607E-001	-7.58336E-005	0.00000E+000	-4.88800E-001	-7.95939E-004	8	..........a	0	-327.74
	9920	19.842	-4.92807E-001	-8.38038E-005	0.00000E+000	-4.92000E-001	-8.37606E-004	8	..........a	0	-327.74
	9952	19.906	-4.96003E-001	-9.28493E-005	0.00000E+000	-4.95200E-001	-8.20939E-004	8	..........a	0	-327.74
	9984	19.97	-4.99140E-001	-1.02734E-004	0.00000E+000	-4.98400E-001	-7.95939E-004	8	..........a	0	-327.74
	10016	20.034	-5.02369E-001	-1.13734E-004	0.00000E+000	-5.01600E-001	-8.29272E-004	8	..........a	0	-327.74
	10048	20.098	-5.05532E-001	-1.24717E-004	0.00000E+000	-5.04800E-001	-8.62605E-004	8	..........a	0	-327.74
	10080	20.162	-5.08686E-001	-1.37095E-004	0.00000E+000	-5.08000E-001	-8.37606E-004	8	..........a	0	-327.74
	10112	20.226	-5.11944E-001	-1.49970E-004	0.00000E+000	-5.11200E-001	-8.70939E-004	8	..........a	0	-327.74
	10144	20.29	-5.15094E-001	-1.63925E-004	0.00000E+000	-5.14400E-001	-7.95939E-004	8	..........a	0	-327.74
	10176	20.354	-5.18319E-001	-1.78481E-004	0.00000E+000	-5.17600E-001	-8.45939E-004	8	..........a	0	-327.74
	10208	20.418	-5.21503E-001	-1.93068E-004	0.00000E+000	-5.20800E-001	-7.87605E-004	8	..........a	0	-327.74
	10240	20.482	-5.24544E-001	-2.07481E-004	0.00000E+000	-5.24000E-001	-8.20939E-004	8	..........a	0	-327.74
	10272	20.546	-5.27803E-001	-2.22516E-004	0.00000E+000	-5.27200E-001	-8.45939E-004	8	..........a	0	-327.74
	10304	20.61	-5.31003E-001	-2.36160E-004	0.00000E+000	-5.30400E-001	-8.37606E-004	8	..........a	0	-327.74
	10336	20.674	-5.34153E-001	-2.49371E-004	0.00000E+000	-5.33600E-001	-8.45939E-004	8	..........a	0	-327.74
	10368	20.738	-5.37344E-001	-2.61193E-004	0.00000E+000	-5.36800E-001	-8.54272E-004	8	..........a	0	-327.74
	10400	20.802	-5.40817E-001	-2.73659E-004	0.00000E+000	-5.40000E-001	-8.12605E-004	9	..........a	0	-327.74
	10432	20.866	-5.43962E-001	-2.82693E-004	0.00000E+000	-5.43200E-001	-8.04272E-004	9	..........a	0	-327.74
	10464	20.93	-5.47242E-001	-2.90265E-004	0.00000E+000	-5.46400E-001	-8.45939E-004	9	..........a	0	-327.74
	10496	20.994	-5.50392E-001	-2.96036E-004	0.00000E+000	-5.49600E-001	-8.04272E-004	9	..........a	0	-327.74
	10528	21.058	-5.53596E-001	-3.00269E-004	0.00000E+000	-5.52800E-001	-8.29272E-004	9	..........a	0	-327.74
	10560	21.122	-5.56792E-001	-3.02563E-004	0.00000E+000	-5.56000E-001	-8.20939E-004	9	..........a	0	-327.74
	10592	21.186	-5.59987E-001	-3.04310E-004	0.00000E+000	-5.59200E-001	-8.37606E-004	9	..........a	0	-327.74
	10624	21.25	-5.63196E-001	-3.04995E-004	0.00000E+000	-5.62400E-001	-8.12605E-004	9	..........a	0	-327.74
	10656	21.314	-5.66367E-001	-3.05296E-004	0.00000E+000	-5.65600E-001	-8.20939E-004	9	..........a	0	-327.74
	10688	21.378	-5.69525E-001	-3.05827E-004	0.00000E+000	-5.68800E-001	-8.54272E-004	9	..........a	0	-327.74
	10720	21.442	-5.72817E-001	-3.06107E-004	0.00000E+000	-5.72000E-001	-8.70939E-004	9	..........a	0	-327.74
	10752	21.506	-5.75983E-001	-3.05726E-004	0.00000E+000	-5.75200E-001	-8.04272E-004	9	..........a	0	-327.74
	10784	21.57	-5.79167E-001	-3.05451E-004	0.00000E+000	-5.78400E-001	-8.12605E-004	9	..........a	0	-327.74
	10816	21.634	-5.82396E-001	-3.05104E-004	0.00000E+000	-5.81600E-001	-8.04272E-004	9	..........a	0	-327.74
	10848	21.698	-5.85583E-001	-3.05313E-004	0.00000E+000	-5.84800E-001	-8.45939E-004	9	..........a	0	-327.74
	10880	21.762	-5.88758E-001	-3.05605E-004	0.00000E+000	-5.88000E-001	-7.87605E-004	9	..........a	0	-327.74
	10912	21.826	-5.91992E-001	-3.06453E-004	0.00000E+000	-5.91200E-001	-8.37606E-004	9	..........a	0	-327.74
	10944	21.89	-5.95171E-001	-3.06495E-004	0.00000E+000	-5.94400E-001	-8.12605E-004	9	..........a	0	-327.74
	10976	21.954	-5.98442E-001	-3.06997E-004	0.00000E+000	-5.97600E-001	-8.45939E-004	9	..........a	0	-327.74
	11008	22.018	-6.01558E-001	-3.06387E-004	0.00000E+000	-6.00800E-001	-8.29272E-004	9	..........a	0	-327.74
	11040	22.082	-6.04767E-001	-3.06545E-004	0.00000E+000	-6.04000E-001	-7.95939E-004	9	..........a	0	-327.74
	11072	22.146	-6.07971E-001	-3.06704E-004	0.00000E+000	-6.07200E-001	-8.54272E-004	9	..........a	0	-327.74
	11104	22.21	-6.11200E-001	-3.06303E-004	0.00000E+000	-6.10400E-001	-8.87605E-004	9	..........a	0	-327.74
	11136	22.274	-6.14329E-001	-3.05601E-004	0.00000E+000	-6.13600E-001	-8.20939E-004	9	..........a	0	-327.74
	11168	22.338	-6.17571E-001	-3.05488E-004	0.00000E+000	-6.16800E-001	-8.62605E-004	9	..........a	0	-327.74
	11200	22.402	-6.20779E-001	-3.05258E-004	0.00000E+000	-6.20000E-001	-8.29272E-004	9	..........a	0	-327.74
	11232	22.466	-6.23942E-001	-3.05258E-004	0.00000E+000	-6.23200E-001	-7.87605E-004	9	..........a	0	-327.74
	11264	22.53	-6.27133E-001	-3.05363E-004	0.00000E+000	-6.26400E-001	-8.20939E-004	9	..........a	0	-327.74
	11296	22.594	-6.30342E-001	-3.04724E-004	0.00000E+000	-6.29600E-001	-8.12605E-004	9	..........a	0	-327.74
	11328	22.658	-6.33546E-001	-3.04251E-004	0.00000E+000	-6.32800E-001	-8.95939E-004	9	..........a	0	-327.74
	11360	22.722	-6.36746E-001	-3.04013E-004	0.00000E+000	-6.36000E-001	-8.04272E-004	9	..........a	0	-327.74
	11392	22.786	-6.39921E-001	-3.04197E-004	0.00000E+000	-6.39200E-001	-8.70939E-004	9	..........a	0	-327.74
	11424	22.85	-6.43150E-001	-3.04389E-004	0.00000E+000	-6.42400E-001	-8.45939E-004	9	..........a	0	-327.74
	11456	22.914	-6.46354E-001	-3.04640E-004	0.00000E+000	-6.45600E-001	-8.70939E-004	9	..........a	0	-327.74
	11488	22.978	-6.49542E-001	-3.04084E-004	0.00000E+000	-6.48800E-001	-8.95939E-004	9	..........a	0	-327.74
	11520	23.042	-6.52733E-001	-3.03888E-004	0.00000E+000	-6.52000E-001	-8.20939E-004	9	..........a	0	-327.74
	11552	23.106	-6.55904E-001	-3.03867E-004	0.00000E+000	-6.55200E-001	-8.37606E-004	9	..........a	0	-327.74
	11584	23.17	-6.59129E-001	-3.03633E-004	0.00000E+000	-6.58400E-001	-7.79272E-004	9	..........a	0	-327.74
	11616	23.234	-6.62342E-001	-3.03457E-004	0.00000E+000	-6.61600E-001	-8.37606E-004	9	..........a	0	-327.74
	11648	23.298	-6.65525E-001	-3.03098E-004	0.00000E+000	-6.64800E-001	-8.20939E-004	9	..........a	0	-327.74
	11680	23.362	-6.68729E-001	-3.02701E-004	0.00000E+000	-6.68000E-001	-7.87605E-004	9	..........a	0	-327.74
	11712	23.426	-6.71933E-001	-3.02496E-004	0.00000E+000	-6.71200E-001	-8.12605E-004	9	..........a	0	-327.74
	11744	23.49	-6.75167E-001	-3.02429E-004	0.00000E+000	-6.74400E-001	-8.37606E-004	9	..........a	0	-327.74
	11776	23.554	-6.78296E-001	-3.02672E-004	0.00000E+000	-6.77600E-001	-8.20939E-004	9	..........a	0	-327.74
	11808	23.618	-6.81542E-001	-3.02718E-004	0.00000E+000	-6.80800E-001	-8.45939E-004	9	..........a	0	-327.74
	11840	23.682	-6.84762E-001	-3.02371E-004	0.00000E+000	-6.84000E-001	-7.95939E-004	9	..........a	0	-327.74
	11872	23.746	-6.87917E-001	-3.01903E-004	0.00000E+000	-6.87200E-001	-8.62605E-004	9	..........a	0	-327.74
	11904	23.81	-6.91142E-001	-3.01882E-004	0.00000E+000	-6.90400E-001	-8.12605E-004	9	..........a	0	-327.74
	11936	23.874	-6.94392E-001	-3.02292E-004	0.00000E+000	-6.93600E-001	-7.79272E-004	9	..........a	0	-327.74
	11968	23.938	-6.97525E-001	-3.02789E-004	0.00000E+000	-6.96800E-001	-8.04272E-004	9	..........a	0	-327.74
	12000	24.002	-7.00729E-001	-3.03441E-004	0.00000E+000	-7.00000E-001	-8.04272E-004	9	..........a	0	-327.74
	12032	24.066	-7.03904E-001	-3.03303E-004	0.00000E+000	-7.03200E-001	-8.04272E-004	9	..........a	0	-327.74
	12064	24.13	-7.07096E-001	-3.03470E-004	0.00000E+000	-7.06400E-001	-8.54272E-004	9	..........a	0	-327.74
	12096	24.194	-7.10325E-001	-3.03566E-004	0.00000E+000	-7.09600E-001	-7.79272E-004	9	..........a	0	-327.74
	12128	24.258	-7.13508E-001	-3.03562E-004	0.00000E+000	-7.12800E-001	-8.12605E-004	9	..........a	0	-327.74
	12160	24.322	-7.16729E-001	-3.03390E-004	0.00000E+000	-7.16000E-001	-8.54272E-004	9	..........a	0	-327.74
	12192	24.386	-7.19929E-001	-3.03261E-004	0.00000E+000	-7.19200E-001	-8.45939E-004	9	..........a	0	-327.74
	12224	24.45	-7.23104E-001	-3.03194E-004	0.00000E+000	-7.22400E-001	-8.70939E-004	9	..........a	0	-327.74
	12256	24.514	-7.26308E-001	-3.02643E-004	0.00000E+000	-7.25600E-001	-8.20939E-004	9	..........a	0	-327.74
	12288	24.578	-7.29512E-001	-3.01711E-004	0.00000E+000	-7.28800E-001	-8.70939E-004	9	..........a	0	-327.74
	12320	24.642	-7.32679E-001	-3.01627E-004	0.00000E+000	-7.32000E-001	-7.95939E-004	9	..........a	0	-327.74
	12352	24.706	-7.35925E-001	-3.01640E-004	0.00000E+000	-7.35200E-001	-8.62605E-004	9	..........a	0	-327.74
	12384	24.77	-7.39117E-001	-3.02012E-004	0.00000E+000	-7.38400E-001	-7.79272E-004	9	..........a	0	-327.74
	12416	24.834	-7.42275E-001	-3.02714E-004	0.00000E+000	-7.41600E-001	-8.20939E-004	9	..........a	0	-327.74
	12448	24.898	-7.45504E-001	-3.03466E-004	0.00000E+000	-7.44800E-001	-8.12605E-004	9	..........a	0	-327.74
	12480	24.962	-7.48696E-001	-3.03524E-004	0.00000E+000	-7.48000E-001	-8.29272E-004	9	..........a	0	-327.74
	12512	25.026	-7.51908E-001	-3.03382E-004	0.00000E+000	-7.51200E-001	-8.20939E-004	9	..........a	0	-327.74
	12544	25.09	-7.55087E-001	-3.03182E-004	0.00000E+000	-7.54400E-001	-8.37606E-004	9	..........a	0	-327.74
	12576	25.154	-7.58296E-001	-3.03065E-004	0.00000E+000	-7.57600E-001	-8.54272E-004	9	..........a	0	-327.74
	12608	25.218	-7.61504E-001	-3.03211E-004	0.00000E+000	-7.60800E-001	-8.45939E-004	9	..........a	0	-327.74
	12640	25.282	-7.64692E-001	-3.03085E-004	0.00000E+000	-7.64000E-001	-8.87605E-004	9	..........a	0	-327.74
	12672	25.346	-7.67867E-001	-3.03336E-004	0.00000E+000	-7.67200E-001	-8.29272E-004	9	..........a	0	-327.74
	12704	25.41	-7.71117E-001	-3.03228E-004	0.00000E+000	-7.70400E-001	-7.95939E-004	9	..........a	0	-327.74
	12736	25.474	-7.74321E-001	-3.02643E-004	0.00000E+000	-7.73600E-001	-8.70939E-004	9	..........a	0	-327.74
	12768	25.538	-7.77521E-001	-3.02592E-004	0.00000E+000	-7.76800E-001	-8.12605E-004	9	..........a	0	-327.74
	12800	25.602	-7.80646E-001	-3.02801E-004	0.00000E+000	-7.80000E-001	-8.04272E-004	9	..........a	0	-327.74
	12832	25.666	-7.83900E-001	-3.03136E-004	0.00000E+000	-7.83200E-001	-8.20939E-004	9	..........a	0	-327.74
	12864	25.73	-7.87104E-001	-3.03453E-004	0.00000E+000	-7.86400E-001	-8.12605E-004	9	..........a	0	-327.74
	12896	25.794	-7.90300E-001	-3.03767E-004	0.00000E+000	-7.89600E-001	-8.45939E-004	9	..........a	0	-327.74
	12928	25.858	-7.93512E-001	-3.03825E-004	0.00000E+000	-7.92800E-001	-8.12605E-004	9	..........a	0	-327.74
	12960	25.922	-7.96717E-001	-3.04105E-004	0.00000E+000	-7.96000E-001	-8.29272E-004	9	..........a	0	-327.74
	12992	25.986	-7.99900E-001	-3.04197E-004	0.00000E+000	-7.99200E-001	-8.04272E-004	9	..........a	0	-327.74
	13024	26.05	-8.03096E-001	-3.04372E-004	0.00000E+000	-8.02400E-001	-7.95939E-004	9	..........a	0	-327.74
	13056	26.114	-8.06271E-001	-3.04393E-004	0.00000E+000	-8.05600E-001	-8.12605E-004	9	..........a	0	-327.74
	13088	26.178	-8.09475E-001	-3.04126E-004	0.00000E+000	-8.08800E-001	-8.45939E-004	9	..........a	0	-327.74
	13120	26.242	-8.12679E-001	-3.04047E-004	0.00000E+000	-8.12000E-001	-8.79272E-004	9	..........a	0	-327.74
	13152	26.306	-8.15917E-001	-3.03508E-004	0.00000E+000	-8.15200E-001	-8.04272E-004	9	..........a	0	-327.74
	13184	26.37	-8.19067E-001	-3.03629E-004	0.00000E+000	-8.18400E-001	-8.54272E-004	9	..........a	0	-327.74
	13216	26.434	-8.22233E-001	-3.03775E-004	0.00000E+000	-8.21600E-001	-8.54272E-004	9	..........a	0	-327.74
	13248	26.498	-8.25483E-001	-3.03583E-004	0.00000E+000	-8.24800E-001	-8.37606E-004	9	..........a	0	-327.74
	13280	26.562	-8.28625E-001	-3.02989E-004	0.00000E+000	-8.28000E-001	-7.87605E-004	9	..........a	0	-327.74
	13312	26.626	-8.31825E-001	-3.02513E-004	0.00000E+000	-8.31200E-001	-8.12605E-004	9	..........a	0	-327.74
	13344	26.69	-8.35025E-001	-3.02643E-004	0.00000E+000	-8.34400E-001	-8.20939E-004	9	..........a	0	-327.74
	13376	26.754	-8.38225E-001	-3.03010E-004	0.00000E+000	-8.37600E-001	-8.04272E-004	9	..........a	0	-327.74
	13408	26.818	-8.41446E-001	-3.03808E-004	0.00000E+000	-8.40800E-001	-8.79272E-004	9	..........a	0	-327.74
	13440	26.882	-8.44617E-001	-3.04690E-004	0.00000E+000	-8.44000E-001	-8.62605E-004	9	..........a	0	-327.74
	13472	26.946	-8.47821E-001	-3.04970E-004	0.00000E+000	-8.47200E-001	-8.54272E-004	9	..........a	0	-327.74
	13504	27.01	-8.51054E-001	-3.04561E-004	0.00000E+000	-8.50400E-001	-7.87605E-004	9	..........a	0	-327.74
	13536	27.074	-8.54308E-001	-3.04327E-004	0.00000E+000	-8.53600E-001	-8.45939E-004	9	..........a	0	-327.74
	13568	27.138	-8.57383E-001	-3.03813E-004	0.00000E+000	-8.56800E-001	-8.62605E-004	9	..........a	0	-327.74
	13600	27.202	-8.60579E-001	-3.03027E-004	0.00000E+000	-8.60000E-001	-8.54272E-004	9	..........a	0	-327.74
	13632	27.266	-8.63808E-001	-3.02530E-004	0.00000E+000	-8.63200E-001	-8.54272E-004	9	..........a	0	-327.74
	13664	27.33	-8.66992E-001	-3.02350E-004	0.00000E+000	-8.66400E-001	-8.20939E-004	9	..........a	0	-327.74
	13696	27.394	-8.70233E-001	-3.02463E-004	0.00000E+000	-8.69600E-001	-8.29272E-004	9	..........a	0	-327.74
	13728	27.458	-8.73442E-001	-3.02551E-004	0.00000E+000	-8.72800E-001	-7.87605E-004	9	..........a	0	-327.74
	13760	27.522	-8.76629E-001	-3.01840E-004	0.00000E+000	-8.76000E-001	-8.45939E-004	9	..........a	0	-327.74
	13792	27.586	-8.79850E-001	-3.01335E-004	0.00000E+000	-8.79200E-001	-8.45939E-004	9	..........a	0	-327.74
	13824	27.65	-8.82971E-001	-3.02012E-004	0.00000E+000	-8.82400E-001	-8.04272E-004	9	..........a	0	-327.74
	13856	27.714	-8.86212E-001	-3.02868E-004	0.00000E+000	-8.85600E-001	-8.29272E-004	9	..........a	0	-327.74
	13888	27.778	-8.89421E-001	-3.03608E-004	0.00000E+000	-8.88800E-001	-9.04272E-004	9	..........a	0	-327.74
	13920	27.842	-8.92604E-001	-3.04272E-004	0.00000E+000	-8.92000E-001	-8.12605E-004	9	..........a	0	-327.74
	13952	27.906	-8.95829E-001	-3.04707E-004	0.00000E+000	-8.95200E-001	-8.54272E-004	9	..........a	0	-327.74
	13984	27.97	-8.99012E-001	-3.05154E-004	0.00000E+000	-8.98400E-001	-8.20939E-004	9	..........a	0	-327.74
	14016	28.034	-9.02192E-001	-3.05346E-004	0.00000E+000	-9.01600E-001	-8.62605E-004	9	..........a	0	-327.74
	14048	28.098	-9.05450E-001	-3.05246E-004	0.00000E+000	-9.04800E-001	-8.62605E-004	9	..........a	0	-327.74
	14080	28.162	-9.08617E-001	-3.04590E-004	0.00000E+000	-9.08000E-001	-7.79272E-004	9	..........a	0	-327.74
	14112	28.226	-9.11762E-001	-3.04193E-004	0.00000E+000	-9.11200E-001	-8.54272E-004	9	..........a	0	-327.74
	14144	28.29	-9.15025E-001	-3.04151E-004	0.00000E+000	-9.14400E-001	-7.95939E-004	9	..........a	0	-327.74
	14176	28.354	-9.18246E-001	-3.03758E-004	0.00000E+000	-9.17600E-001	-8.20939E-004	9	..........a	0	-327.74
	14208	28.418	-9.21412E-001	-3.03804E-004	0.00000E+000	-9.20800E-001	-7.62605E-004	9	..........a	0	-327.74
	14240	28.482	-9.24650E-001	-3.03971E-004	0.00000E+000	-9.24000E-001	-8.37606E-004	9	..........a	0	-327.74
	14272	28.546	-9.27846E-001	-3.04097E-004	0.00000E+000	-9.27200E-001	-8.29272E-004	9	..........a	0	-327.74
	14304	28.61	-9.31062E-001	-3.03867E-004	0.00000E+000	-9.30400E-001	-8.62605E-004	9	..........a	0	-327.74
	14336	28.674	-9.34179E-001	-3.03716E-004	0.00000E+000	-9.33600E-001	-8.45939E-004	9	..........a	0	-327.74
	14368	28.738	-9.37375E-001	-3.03508E-004	0.00000E+000	-9.36800E-001	-8.29272E-004	9	..........a	0	-327.74
	14400	28.802	-9.40587E-001	-3.03516E-004	0.00000E+000	-9.40000E-001	-8.95939E-004	9	..........a	0	-327.74
	14432	28.866	-9.43817E-001	-3.03570E-004	0.00000E+000	-9.43200E-001	-8.87605E-004	9	..........a	0	-327.74
	14464	28.93	-9.47012E-001	-3.03641E-004	0.00000E+000	-9.46400E-001	-8.20939E-004	9	..........a	0	-327.74
	14496	28.994	-9.50200E-001	-3.03604E-004	0.00000E+000	-9.49600E-001	-8.45939E-004	9	..........a	0	-327.74
	14528	29.058	-9.53425E-001	-3.03453E-004	0.00000E+000	-9.52800E-001	-8.04272E-004	9	..........a	0	-327.74
	14560	29.122	-9.56600E-001	-3.03599E-004	0.00000E+000	-9.56000E-001	-7.95939E-004	9	..........a	0	-327.74
	14592	29.186	-9.59737E-001	-3.03917E-004	0.00000E+000	-9.59200E-001	-8.29272E-004	9	..........a	0	-327.74
	14624	29.25	-9.62996E-001	-3.04510E-004	0.00000E+000	-9.62400E-001	-8.54272E-004	9	..........a	0	-327.74
	14656	29.314	-9.66171E-001	-3.04176E-004	0.00000E+000	-9.65600E-001	-8.37606E-004	9	..........a	0	-327.74
	14688	29.378	-9.69408E-001	-3.04038E-004	0.00000E+000	-9.68800E-001	-8.54272E-004	9	..........a	0	-327.74
	14720	29.442	-9.72587E-001	-3.03721E-004	0.00000E+000	-9.72000E-001	-8.29272E-004	9	..........a	0	-327.74
	14752	29.506	-9.75779E-001	-3.02998E-004	0.00000E+000	-9.75200E-001	-8.37606E-004	9	..........a	0	-327.74
	14784	29.57	-9.78983E-001	-3.02183E-004	0.00000E+000	-9.78400E-001	-8.12605E-004	9	..........a	0	-327.74
	14816	29.634	-9.82200E-001	-3.01823E-004	0.00000E+000	-9.81600E-001	-8.54272E-004	9	..........a	0	-327.74
	14848	29.698	-9.85362E-001	-3.01539E-004	0.00000E+000	-9.84800E-001	-7.70939E-004	9	..........a	0	-327.74
	14880	29.762	-9.88583E-001	-3.01284E-004	0.00000E+000	-9.88000E-001	-8.04272E-004	9	..........a	0	-327.74
	14912	29.826	-9.91771E-001	-3.00858E-004	0.00000E+000	-9.91200E-001	-8.62605E-004	9	..........a	0	-327.74
	14944	29.89	-9.94983E-001	-3.00737E-004	0.00000E+000	-9.94400E-001	-8.37606E-004	9	..........a	0	-327.74
	14976	29.954	-9.98187E-001	-3.00520E-004	0.00000E+000	-9.97600E-001	-8.70939E-004	9	..........a	0	-327.74
	15000	30.002	-1.00054E+000	-3.00269E-004	0.00000E+000	-1.00000E+000	-8.37606E-004	9	..........a	0	-327.74