File: data/02-SI/Figures_S9_S11_RDE/18btmapaq-rde/1mkcl-5mmolar18btmapaq-nitrogen-rde-1200mvpers-50mvpers.DTA
EXPLAIN
TAG	LSV
TITLE	LABEL	Linear Sweep Voltammetry	Test &Identifier
DATE	LABEL	1/31/2023	Date
TIME	LABEL	15:29:45	Time
NOTES	NOTES	1	&Notes...

PSTAT	PSTAT	REF3000-21108	Potentiostat
VINIT	POTEN	5.00000E-001	F	&Initial E (V)
VFINAL	POTEN	-1.00000E+000	F	&Final E (V)
SCANRATE	QUANT	4.99999E+001	&Scan Rate (mV/s)
STEPSIZE	QUANT	1.00000E-001	St&ep Size (mV)
IMODE	SELECTOR	0	I/E Range &Mode
IRANGE	QUANT	1.00000E+002	&Max Current (mA)
AREA	QUANT	1.00000E+000	Electrode &Area (cm^2)
ELECTRODETYPE	SELECTOR	0	Electrode Type
STRIPPING	TOGGLE	F	Used for Stripping
POLARITY	TOGGLE	F	Signal Polarity
CONDIT	TWOPARAM	F	1.50000E+001	0.00000E+000	Conditionin&g	Time(s)	E(V)
DELAY	TWOPARAM	F	3.00000E+001	0.00000E+000	Init. De&lay	Time(s)	Stab.(mV/s)
EQDELAY	QUANT	0.00000E+000	Equil. &Time (s)
IRCOMP	SELECTOR	0	IRCom&p
PFCOR	QUANT	5.00000E+001	PF Corr. (ohm)
SAMPLINGMODE	SELECTOR	1	Sampling &Mode
EOC	QUANT	0	Open Circuit (V)
PSTATMODEL	IQUANT	5	Pstat Model
PSTATSECTION	LABEL	REF3000-21108	Pstat Section
PSTATSERIALNO	LABEL	21108	Pstat Serial Number
CTRLMODE	IQUANT	1	Control Mode
ELECTROMETER	IQUANT	0	RE=0 or CS=1
IESTAB	IQUANT	2	I/E Stability
CASPEED	IQUANT	4	Control Amp Speed
CONVENTION	IQUANT	1	Current Convention
ICHRANGE	IQUANT	2	Ich Range
ICHRANGEMODE	TOGGLE	F	Ich Auto Range
ICHOFFSETENABLE	TOGGLE	F	Ich Offset Enable
ICHOFFSET	QUANT	0	Ich Offset (V)
ICHFILTER	IQUANT	2	Ich Filter
VCHRANGE	IQUANT	2	Vch Range
VCHRANGEMODE	TOGGLE	T	Vch Auto Range
VCHOFFSETENABLE	TOGGLE	F	Vch Offset Enable
VCHOFFSET	QUANT	0	Vch Offset (V)
VCHFILTER	IQUANT	2	Vch Filter
ACHRANGE	IQUANT	2	Ach Range
ACHOFFSETENABLE	TOGGLE	F	Ach Offset Enable
ACHOFFSET	QUANT	0	Ach Offset (V)
ACHFILTER	IQUANT	0	Ach Filter
IERANGELOWERLIMIT	IQUANT	2	I/E Range Lower Limit
IERANGEMODE	TOGGLE	T	I/E AutoRange
IERANGE	IQUANT	11	I/E Range
POSFEEDENABLE	TOGGLE	F	Positive Feedback IR Comp
POSFEEDRESISTANCE	QUANT	0	Positive Feedback Resistance (ohm)
ACHSELECT	IQUANT	0	Ach Select
SENSECABLEID	IQUANT	14	Sense Cable ID
PWRCABLEID	IQUANT	7	Power Cable ID
DCCALDATE	LABEL	11/9/2022	DC Calibration Date
ACCALDATE	LABEL	11/9/2022	AC Calibration Date
THERMOSELECT	IQUANT	1	Thermo Select
FRAMEWORKVERSION	LABEL	7.8.2	Framework Version
INSTRUMENTVERSION	LABEL	4.40	Instrument Version
COMPLIANCEVOLTAGE	IQUANT	0	Compliance Voltage
CURVE	TABLE	15001
	Pt	T	Vf	Im	Vu	Sig	Ach	IERange	Over	Cycle	Temp
	#	s	V vs. Ref.	A	V	V	V	#	bits	#	deg C
	0	0.002	4.99754E-001	-3.92172E-005	0.00000E+000	5.00000E-001	-8.62605E-004	11	..........a	0	-327.74
	32	0.066	4.95560E-001	1.01024E-005	0.00000E+000	4.96800E-001	-9.70939E-004	8	..........a	0	-327.74
	64	0.13	4.92385E-001	7.38428E-006	0.00000E+000	4.93600E-001	-9.37606E-004	8	..........a	0	-327.74
	96	0.194	4.89189E-001	6.40228E-006	0.00000E+000	4.90400E-001	-9.95939E-004	8	..........a	0	-327.74
	128	0.258	4.86081E-001	5.42028E-006	0.00000E+000	4.87200E-001	-9.54272E-004	8	..........a	0	-327.74
	160	0.322	4.82906E-001	4.64700E-006	0.00000E+000	4.84000E-001	-9.12605E-004	8	..........a	0	-327.74
	192	0.386	4.79643E-001	4.16621E-006	0.00000E+000	4.80800E-001	-9.29272E-004	8	..........a	0	-327.74
	224	0.45	4.76506E-001	4.03914E-006	0.00000E+000	4.77600E-001	-9.70939E-004	8	..........a	0	-327.74
	256	0.514	4.73193E-001	3.64417E-006	0.00000E+000	4.74400E-001	-9.70939E-004	8	..........a	0	-327.74
	288	0.578	4.69993E-001	3.49043E-006	0.00000E+000	4.71200E-001	-9.37606E-004	8	..........a	0	-327.74
	320	0.642	4.66835E-001	3.50501E-006	0.00000E+000	4.68000E-001	-9.79272E-004	8	..........a	0	-327.74
	352	0.706	4.63647E-001	3.25545E-006	0.00000E+000	4.64800E-001	-9.54272E-004	8	..........a	0	-327.74
	384	0.77	4.60477E-001	2.94131E-006	0.00000E+000	4.61600E-001	-9.20939E-004	8	..........a	0	-327.74
	416	0.834	4.57222E-001	2.90798E-006	0.00000E+000	4.58400E-001	-9.87605E-004	8	..........a	0	-327.74
	448	0.898	4.54060E-001	2.81715E-006	0.00000E+000	4.55200E-001	-9.12605E-004	8	..........a	0	-327.74
	480	0.962	4.50843E-001	2.64800E-006	0.00000E+000	4.52000E-001	-9.29272E-004	8	..........a	0	-327.74
	512	1.026	4.47581E-001	2.78382E-006	0.00000E+000	4.48800E-001	-9.95939E-004	8	..........a	0	-327.74
	544	1.09	4.44377E-001	2.60300E-006	0.00000E+000	4.45600E-001	-9.12605E-004	8	..........a	0	-327.74
	576	1.154	4.41210E-001	2.41468E-006	0.00000E+000	4.42400E-001	-9.79272E-004	8	..........a	0	-327.74
	608	1.218	4.38064E-001	2.40593E-006	0.00000E+000	4.39200E-001	-9.95939E-004	8	..........a	0	-327.74
	640	1.282	4.34902E-001	2.14012E-006	0.00000E+000	4.36000E-001	-9.87605E-004	8	..........a	0	-327.74
	672	1.346	4.31735E-001	2.29553E-006	0.00000E+000	4.32800E-001	-9.79272E-004	8	..........a	0	-327.74
	704	1.41	4.28464E-001	2.07013E-006	0.00000E+000	4.29600E-001	-9.62605E-004	8	..........a	0	-327.74
	736	1.474	4.25247E-001	1.98513E-006	0.00000E+000	4.26400E-001	-9.70939E-004	8	..........a	0	-327.74
	768	1.538	4.22010E-001	2.04221E-006	0.00000E+000	4.23200E-001	-1.00427E-003	8	..........a	0	-327.74
	800	1.602	4.18797E-001	1.78015E-006	0.00000E+000	4.20000E-001	-9.70939E-004	8	..........a	0	-327.74
	832	1.666	4.15602E-001	1.80098E-006	0.00000E+000	4.16800E-001	-9.62605E-004	8	..........a	0	-327.74
	864	1.73	4.12427E-001	1.92389E-006	0.00000E+000	4.13600E-001	-9.54272E-004	8	..........a	0	-327.74
	896	1.794	4.09302E-001	1.76473E-006	0.00000E+000	4.10400E-001	-9.54272E-004	8	..........a	0	-327.74
	928	1.858	4.06077E-001	1.72890E-006	0.00000E+000	4.07200E-001	-9.70939E-004	8	..........a	0	-327.74
	960	1.922	4.02802E-001	1.62141E-006	0.00000E+000	4.04000E-001	-9.70939E-004	8	..........a	0	-327.74
	992	1.986	3.99639E-001	1.61558E-006	0.00000E+000	4.00800E-001	-9.87605E-004	8	..........a	0	-327.74
	1024	2.05	3.96406E-001	1.45059E-006	0.00000E+000	3.97600E-001	-9.45939E-004	8	..........a	0	-327.74
	1056	2.114	3.93206E-001	1.45226E-006	0.00000E+000	3.94400E-001	-9.37606E-004	8	..........a	0	-327.74
	1088	2.178	3.90035E-001	1.43976E-006	0.00000E+000	3.91200E-001	-9.79272E-004	8	..........a	0	-327.74
	1120	2.242	3.86877E-001	1.45268E-006	0.00000E+000	3.88000E-001	-9.45939E-004	8	..........a	0	-327.74
	1152	2.306	3.83714E-001	1.28936E-006	0.00000E+000	3.84800E-001	-9.70939E-004	8	..........a	0	-327.74
	1184	2.37	3.80535E-001	1.20395E-006	0.00000E+000	3.81600E-001	-9.37606E-004	8	..........a	0	-327.74
	1216	2.434	3.77293E-001	1.23769E-006	0.00000E+000	3.78400E-001	-9.62605E-004	8	..........a	0	-327.74
	1248	2.498	3.74056E-001	1.16228E-006	0.00000E+000	3.75200E-001	-1.01261E-003	8	..........a	0	-327.74
	1280	2.562	3.70814E-001	1.14812E-006	0.00000E+000	3.72000E-001	-9.04272E-004	8	..........a	0	-327.74
	1312	2.626	3.67614E-001	8.33143E-007	0.00000E+000	3.68800E-001	-1.02094E-003	8	..........a	0	-327.74
	1344	2.69	3.64406E-001	7.97313E-007	0.00000E+000	3.65600E-001	-1.02927E-003	8	..........a	0	-327.74
	1376	2.754	3.61277E-001	7.01487E-007	0.00000E+000	3.62400E-001	-9.95939E-004	8	..........a	0	-327.74
	1408	2.818	3.58131E-001	7.91896E-007	0.00000E+000	3.59200E-001	-9.04272E-004	8	..........a	0	-327.74
	1440	2.882	3.54906E-001	7.66482E-007	0.00000E+000	3.56000E-001	-8.87605E-004	8	..........a	0	-327.74
	1472	2.946	3.51693E-001	6.03995E-007	0.00000E+000	3.52800E-001	-9.45939E-004	8	..........a	0	-327.74
	1504	3.01	3.48547E-001	7.02737E-007	0.00000E+000	3.49600E-001	-9.29272E-004	8	..........a	0	-327.74
	1536	3.074	3.45214E-001	6.14827E-007	0.00000E+000	3.46400E-001	-1.01261E-003	8	..........a	0	-327.74
	1568	3.138	3.41997E-001	4.57340E-007	0.00000E+000	3.43200E-001	-9.37606E-004	8	..........a	0	-327.74
	1600	3.202	3.38881E-001	4.16510E-007	0.00000E+000	3.40000E-001	-9.37606E-004	8	..........a	0	-327.74
	1632	3.266	3.35697E-001	5.85663E-007	0.00000E+000	3.36800E-001	-9.37606E-004	8	..........a	0	-327.74
	1664	3.33	3.32531E-001	4.75255E-007	0.00000E+000	3.33600E-001	-9.37606E-004	8	..........a	0	-327.74
	1696	3.394	3.29356E-001	3.52348E-007	0.00000E+000	3.30400E-001	-9.95939E-004	8	..........a	0	-327.74
	1728	3.458	3.26114E-001	4.16926E-007	0.00000E+000	3.27200E-001	-9.37606E-004	8	..........a	0	-327.74
	1760	3.522	3.22981E-001	4.49007E-007	0.00000E+000	3.24000E-001	-9.54272E-004	8	..........a	0	-327.74
	1792	3.586	3.19622E-001	3.44432E-007	0.00000E+000	3.20800E-001	-1.00427E-003	8	..........a	0	-327.74
	1824	3.65	3.16464E-001	3.19018E-007	0.00000E+000	3.17600E-001	-9.87605E-004	8	..........a	0	-327.74
	1856	3.714	3.13260E-001	2.57773E-007	0.00000E+000	3.14400E-001	-9.87605E-004	8	..........a	0	-327.74
	1888	3.778	3.10081E-001	2.82771E-007	0.00000E+000	3.11200E-001	-9.37606E-004	8	..........a	0	-327.74
	1920	3.842	3.06910E-001	1.94028E-007	0.00000E+000	3.08000E-001	-9.45939E-004	8	..........a	0	-327.74
	1952	3.906	3.03718E-001	3.16934E-007	0.00000E+000	3.04800E-001	-1.02094E-003	8	..........a	0	-327.74
	1984	3.97	3.00547E-001	2.24025E-007	0.00000E+000	3.01600E-001	-9.20939E-004	8	..........a	0	-327.74
	2016	4.034	2.97314E-001	2.34441E-007	0.00000E+000	2.98400E-001	-1.01261E-003	8	..........a	0	-327.74
	2048	4.098	2.94052E-001	5.77886E-008	0.00000E+000	2.95200E-001	-9.70939E-004	8	..........a	0	-327.74
	2080	4.162	2.90860E-001	1.55281E-007	0.00000E+000	2.92000E-001	-1.01261E-003	8	..........a	0	-327.74
	2112	4.226	2.87677E-001	1.10701E-007	0.00000E+000	2.88800E-001	-9.45939E-004	8	..........a	0	-327.74
	2144	4.29	2.84518E-001	3.73736E-008	0.00000E+000	2.85600E-001	-9.95939E-004	8	..........a	0	-327.74
	2176	4.354	2.81335E-001	2.24442E-007	0.00000E+000	2.82400E-001	-9.87605E-004	8	..........a	0	-327.74
	2208	4.418	2.78152E-001	1.57364E-007	0.00000E+000	2.79200E-001	-9.54272E-004	8	..........a	0	-327.74
	2240	4.482	2.74968E-001	2.03610E-007	0.00000E+000	2.76000E-001	-9.20939E-004	8	..........a	0	-327.74
	2272	4.546	2.71752E-001	2.41940E-007	0.00000E+000	2.72800E-001	-9.29272E-004	8	..........a	0	-327.74
	2304	4.61	2.68464E-001	9.86187E-008	0.00000E+000	2.69600E-001	-9.70939E-004	8	..........a	0	-327.74
	2336	4.674	2.65281E-001	3.19574E-008	0.00000E+000	2.66400E-001	-1.02094E-003	8	..........a	0	-327.74
	2368	4.738	2.62114E-001	9.02860E-008	0.00000E+000	2.63200E-001	-9.45939E-004	8	..........a	0	-327.74
	2400	4.802	2.58943E-001	1.21533E-007	0.00000E+000	2.60000E-001	-9.70939E-004	8	..........a	0	-327.74
	2432	4.866	2.55764E-001	5.65387E-008	0.00000E+000	2.56800E-001	-9.87605E-004	8	..........a	0	-327.74
	2464	4.93	2.52568E-001	1.76112E-007	0.00000E+000	2.53600E-001	-9.54272E-004	8	..........a	0	-327.74
	2496	4.994	2.49331E-001	-2.21772E-007	0.00000E+000	2.50400E-001	-9.37606E-004	8	..........a	0	-327.74
	2528	5.058	2.46164E-001	1.71113E-007	0.00000E+000	2.47200E-001	-1.00427E-003	8	..........a	0	-327.74
	2560	5.122	2.42753E-001	9.02860E-008	0.00000E+000	2.44000E-001	-9.20939E-004	8	......s...a	0	-327.74
	2592	5.186	2.39566E-001	5.11225E-008	0.00000E+000	2.40800E-001	-9.79272E-004	8	..........a	0	-327.74
	2624	5.25	2.36346E-001	1.09034E-007	0.00000E+000	2.37600E-001	-9.20939E-004	8	..........a	0	-327.74
	2656	5.314	2.33169E-001	5.15391E-008	0.00000E+000	2.34400E-001	-9.87605E-004	8	..........a	0	-327.74
	2688	5.378	2.29970E-001	1.39032E-007	0.00000E+000	2.31200E-001	-9.29272E-004	8	..........a	0	-327.74
	2720	5.442	2.26768E-001	-8.45607E-009	0.00000E+000	2.28000E-001	-9.79272E-004	8	..........a	0	-327.74
	2752	5.506	2.23576E-001	5.23724E-008	0.00000E+000	2.24800E-001	-9.04272E-004	8	..........a	0	-327.74
	2784	5.57	2.20358E-001	-4.17867E-008	0.00000E+000	2.21600E-001	-9.54272E-004	8	..........a	0	-327.74
	2816	5.634	2.17185E-001	5.82052E-008	0.00000E+000	2.18400E-001	-1.02094E-003	8	..........a	0	-327.74
	2848	5.698	2.13982E-001	6.52880E-008	0.00000E+000	2.15200E-001	-8.62605E-004	8	..........a	0	-327.74
	2880	5.762	2.10764E-001	2.61245E-008	0.00000E+000	2.12000E-001	-9.79272E-004	8	..........a	0	-327.74
	2912	5.826	2.07581E-001	-3.80370E-008	0.00000E+000	2.08800E-001	-9.37606E-004	8	..........a	0	-327.74
	2944	5.89	2.04392E-001	8.32032E-008	0.00000E+000	2.05600E-001	-9.87605E-004	8	..........a	0	-327.74
	2976	5.954	2.01176E-001	-1.84553E-008	0.00000E+000	2.02400E-001	-1.01261E-003	8	..........a	0	-327.74
	3008	6.018	1.97989E-001	1.07368E-007	0.00000E+000	1.99200E-001	-9.70939E-004	8	..........a	0	-327.74
	3040	6.082	1.94780E-001	-1.03448E-007	0.00000E+000	1.96000E-001	-9.95939E-004	8	..........a	0	-327.74
	3072	6.146	1.91598E-001	1.52920E-008	0.00000E+000	1.92800E-001	-9.62605E-004	8	..........a	0	-327.74
	3104	6.21	1.88370E-001	6.86211E-008	0.00000E+000	1.89600E-001	-9.12605E-004	8	..........a	0	-327.74
	3136	6.274	1.85197E-001	7.82036E-008	0.00000E+000	1.86400E-001	-9.45939E-004	8	..........a	0	-327.74
	3168	6.338	1.82013E-001	-1.72054E-008	0.00000E+000	1.83200E-001	-9.45939E-004	8	..........a	0	-327.74
	3200	6.402	1.78811E-001	-9.70597E-009	0.00000E+000	1.80000E-001	-1.02094E-003	8	..........a	0	-327.74
	3232	6.466	1.75590E-001	-2.19272E-007	0.00000E+000	1.76800E-001	-9.45939E-004	8	..........a	0	-327.74
	3264	6.53	1.72400E-001	-8.46999E-008	0.00000E+000	1.73600E-001	-9.62605E-004	8	..........a	0	-327.74
	3296	6.594	1.69203E-001	-1.62610E-007	0.00000E+000	1.70400E-001	-9.79272E-004	8	..........a	0	-327.74
	3328	6.658	1.66026E-001	-1.21780E-007	0.00000E+000	1.67200E-001	-8.79272E-004	8	..........a	0	-327.74
	3360	6.722	1.62813E-001	-1.22614E-007	0.00000E+000	1.64000E-001	-9.70939E-004	8	..........a	0	-327.74
	3392	6.786	1.59603E-001	-8.45607E-009	0.00000E+000	1.60800E-001	-8.95939E-004	8	..........a	0	-327.74
	3424	6.85	1.56436E-001	-1.01365E-007	0.00000E+000	1.57600E-001	-9.45939E-004	8	..........a	0	-327.74
	3456	6.914	1.53219E-001	-3.59539E-008	0.00000E+000	1.54400E-001	-9.70939E-004	8	..........a	0	-327.74
	3488	6.978	1.50006E-001	-9.80322E-008	0.00000E+000	1.51200E-001	-9.20939E-004	8	..........a	0	-327.74
	3520	7.042	1.46799E-001	-2.26355E-007	0.00000E+000	1.48000E-001	-9.70939E-004	8	..........a	0	-327.74
	3552	7.106	1.43602E-001	-3.22042E-008	0.00000E+000	1.44800E-001	-1.01261E-003	8	..........a	0	-327.74
	3584	7.17	1.40424E-001	-3.01210E-008	0.00000E+000	1.41600E-001	-1.00427E-003	8	..........a	0	-327.74
	3616	7.234	1.37213E-001	-2.01218E-008	0.00000E+000	1.38400E-001	-9.45939E-004	8	..........a	0	-327.74
	3648	7.298	1.34016E-001	-2.42881E-008	0.00000E+000	1.35200E-001	-1.01261E-003	8	..........a	0	-327.74
	3680	7.362	1.30808E-001	-1.21780E-007	0.00000E+000	1.32000E-001	-1.00427E-003	8	..........a	0	-327.74
	3712	7.426	1.27629E-001	5.70946E-009	0.00000E+000	1.28800E-001	-9.95939E-004	8	..........a	0	-327.74
	3744	7.49	1.24425E-001	1.12649E-009	0.00000E+000	1.25600E-001	-9.54272E-004	8	..........a	0	-327.74
	3776	7.554	1.21226E-001	-3.01210E-008	0.00000E+000	1.22400E-001	-9.37606E-004	8	..........a	0	-327.74
	3808	7.618	1.18023E-001	-4.17867E-008	0.00000E+000	1.19200E-001	-9.70939E-004	8	..........a	0	-327.74
	3840	7.682	1.14833E-001	-1.47056E-008	0.00000E+000	1.16000E-001	-9.45939E-004	8	..........a	0	-327.74
	3872	7.746	1.11615E-001	-9.80322E-008	0.00000E+000	1.12800E-001	-1.02094E-003	8	..........a	0	-327.74
	3904	7.81	1.08438E-001	-4.59531E-008	0.00000E+000	1.09600E-001	-9.79272E-004	8	..........a	0	-327.74
	3936	7.874	1.05238E-001	2.82077E-008	0.00000E+000	1.06400E-001	-9.87605E-004	8	..........a	0	-327.74
	3968	7.938	1.02051E-001	-1.09559E-008	0.00000E+000	1.03200E-001	-9.29272E-004	8	..........a	0	-327.74
	4000	8.002	9.88547E-002	-1.08031E-007	0.00000E+000	1.00000E-001	-9.37606E-004	8	..........a	0	-327.74
	4032	8.066	9.56489E-002	-1.46362E-007	0.00000E+000	9.68000E-002	-9.87605E-004	8	..........a	0	-327.74
	4064	8.13	9.24464E-002	1.02368E-007	0.00000E+000	9.36000E-002	-9.37606E-004	8	..........a	0	-327.74
	4096	8.194	8.92668E-002	-1.51361E-007	0.00000E+000	9.04000E-002	-9.20939E-004	8	..........a	0	-327.74
	4128	8.258	8.60489E-002	-1.38029E-007	0.00000E+000	8.72000E-002	-1.02094E-003	8	..........a	0	-327.74
	4160	8.322	8.28414E-002	-1.18031E-007	0.00000E+000	8.40000E-002	-9.87605E-004	8	..........a	0	-327.74
	4192	8.386	7.96601E-002	-1.18447E-007	0.00000E+000	8.08000E-002	-9.29272E-004	8	..........a	0	-327.74
	4224	8.45	7.64668E-002	-1.45945E-007	0.00000E+000	7.76000E-002	-8.37606E-004	8	..........a	0	-327.74
	4256	8.514	7.32585E-002	-1.09281E-007	0.00000E+000	7.44000E-002	-1.01261E-003	8	..........a	0	-327.74
	4288	8.578	7.00410E-002	-6.97012E-008	0.00000E+000	7.12000E-002	-9.87605E-004	8	..........a	0	-327.74
	4320	8.642	6.68535E-002	-7.42841E-008	0.00000E+000	6.80000E-002	-9.95939E-004	8	..........a	0	-327.74
	4352	8.706	6.36526E-002	-1.07198E-007	0.00000E+000	6.48000E-002	-9.79272E-004	8	..........a	0	-327.74
	4384	8.77	6.04651E-002	-1.25530E-007	0.00000E+000	6.16000E-002	-1.00427E-003	8	..........a	0	-327.74
	4416	8.834	5.72476E-002	-1.03448E-007	0.00000E+000	5.84000E-002	-8.95939E-004	8	..........a	0	-327.74
	4448	8.898	5.40635E-002	4.90393E-008	0.00000E+000	5.52000E-002	-9.70939E-004	8	..........a	0	-327.74
	4480	8.962	5.08735E-002	-7.13677E-008	0.00000E+000	5.20000E-002	-9.70939E-004	8	..........a	0	-327.74
	4512	9.026	4.76701E-002	-1.05115E-007	0.00000E+000	4.88000E-002	-9.04272E-004	8	..........a	0	-327.74
	4544	9.09	4.44697E-002	-1.74693E-007	0.00000E+000	4.56000E-002	-9.87605E-004	8	..........a	0	-327.74
	4576	9.154	4.12735E-002	-6.01186E-008	0.00000E+000	4.24000E-002	-1.07094E-003	8	..........a	0	-327.74
	4608	9.218	3.80743E-002	-1.44695E-007	0.00000E+000	3.92000E-002	-9.62605E-004	8	..........a	0	-327.74
	4640	9.282	3.48606E-002	-2.19689E-007	0.00000E+000	3.60000E-002	-9.12605E-004	8	..........a	0	-327.74
	4672	9.346	3.16676E-002	-2.22050E-008	0.00000E+000	3.28000E-002	-9.29272E-004	8	..........a	0	-327.74
	4704	9.41	2.84714E-002	-1.47195E-007	0.00000E+000	2.96000E-002	-1.04594E-003	8	..........a	0	-327.74
	4736	9.474	2.52756E-002	-1.48028E-007	0.00000E+000	2.64000E-002	-9.62605E-004	8	..........a	0	-327.74
	4768	9.538	2.20656E-002	-1.98857E-007	0.00000E+000	2.32000E-002	-9.04272E-004	8	..........a	0	-327.74
	4800	9.602	1.88561E-002	-6.01186E-008	0.00000E+000	2.00000E-002	-1.01261E-003	8	..........a	0	-327.74
	4832	9.666	1.56543E-002	-1.91358E-007	0.00000E+000	1.68000E-002	-9.95939E-004	8	..........a	0	-327.74
	4864	9.73	1.24767E-002	-1.48445E-007	0.00000E+000	1.36000E-002	-9.45939E-004	8	..........a	0	-327.74
	4896	9.794	9.26622E-003	-1.86358E-007	0.00000E+000	1.04000E-002	-9.37606E-004	8	..........a	0	-327.74
	4928	9.858	6.06247E-003	-1.36362E-007	0.00000E+000	7.20000E-003	-9.70939E-004	8	..........a	0	-327.74
	4960	9.922	2.86760E-003	-1.43445E-007	0.00000E+000	4.00001E-003	-9.87605E-004	8	..........a	0	-327.74
	4992	9.986	-3.36193E-004	-1.26363E-007	0.00000E+000	7.99984E-004	-9.29272E-004	8	..........a	0	-327.74
	5024	10.05	-3.52728E-003	-8.96995E-008	0.00000E+000	-2.40001E-003	-1.00427E-003	8	..........a	0	-327.74
	5056	10.114	-6.72019E-003	-1.85109E-007	0.00000E+000	-5.60001E-003	-9.62605E-004	8	..........a	0	-327.74
	5088	10.178	-9.90702E-003	-1.96358E-007	0.00000E+000	-8.80000E-003	-9.37606E-004	8	..........a	0	-327.74
	5120	10.242	-1.31037E-002	-6.67847E-008	0.00000E+000	-1.20000E-002	-9.95939E-004	8	..........a	0	-327.74
	5152	10.306	-1.63183E-002	-1.10948E-007	0.00000E+000	-1.52000E-002	-1.01261E-003	8	..........a	0	-327.74
	5184	10.37	-1.95092E-002	-1.54278E-007	0.00000E+000	-1.84000E-002	-9.45939E-004	8	..........a	0	-327.74
	5216	10.434	-2.27127E-002	-2.50520E-007	0.00000E+000	-2.16000E-002	-9.70939E-004	8	..........a	0	-327.74
	5248	10.498	-2.59175E-002	-2.41354E-007	0.00000E+000	-2.48000E-002	-9.29272E-004	8	..........a	0	-327.74
	5280	10.562	-2.90961E-002	-1.33863E-007	0.00000E+000	-2.80000E-002	-9.20939E-004	8	..........a	0	-327.74
	5312	10.626	-3.23099E-002	-1.97608E-007	0.00000E+000	-3.12000E-002	-9.95939E-004	8	..........a	0	-327.74
	5344	10.69	-3.55107E-002	-1.25530E-007	0.00000E+000	-3.44000E-002	-9.70939E-004	8	..........a	0	-327.74
	5376	10.754	-3.87011E-002	-1.90941E-007	0.00000E+000	-3.76000E-002	-9.95939E-004	8	..........a	0	-327.74
	5408	10.818	-4.18974E-002	-1.55944E-007	0.00000E+000	-4.08000E-002	-1.00427E-003	8	..........a	0	-327.74
	5440	10.882	-4.51090E-002	-1.55944E-007	0.00000E+000	-4.40000E-002	-1.01261E-003	8	..........a	0	-327.74
	5472	10.946	-4.83003E-002	-3.00933E-007	0.00000E+000	-4.72000E-002	-1.01261E-003	8	..........a	0	-327.74
	5504	11.01	-5.14782E-002	-1.36779E-007	0.00000E+000	-5.04000E-002	-9.70939E-004	8	..........a	0	-327.74
	5536	11.074	-5.46869E-002	-1.25113E-007	0.00000E+000	-5.36000E-002	-1.02927E-003	8	..........a	0	-327.74
	5568	11.138	-5.78969E-002	-2.48853E-007	0.00000E+000	-5.68000E-002	-1.01261E-003	8	..........a	0	-327.74
	5600	11.202	-6.10865E-002	-1.62194E-007	0.00000E+000	-6.00000E-002	-9.29272E-004	8	..........a	0	-327.74
	5632	11.266	-6.42840E-002	-3.25931E-007	0.00000E+000	-6.32000E-002	-1.03761E-003	8	..........a	0	-327.74
	5664	11.33	-6.74786E-002	-8.67831E-008	0.00000E+000	-6.64000E-002	-9.54272E-004	8	..........a	0	-327.74
	5696	11.394	-7.06969E-002	-2.12606E-007	0.00000E+000	-6.96000E-002	-9.45939E-004	8	..........a	0	-327.74
	5728	11.458	-7.38840E-002	-3.07182E-007	0.00000E+000	-7.28000E-002	-9.70939E-004	8	..........a	0	-327.74
	5760	11.522	-7.70815E-002	-2.32605E-007	0.00000E+000	-7.60000E-002	-9.12605E-004	8	..........a	0	-327.74
	5792	11.586	-8.02849E-002	-1.71776E-007	0.00000E+000	-7.92000E-002	-9.87605E-004	8	..........a	0	-327.74
	5824	11.65	-8.34824E-002	-3.54678E-007	0.00000E+000	-8.24000E-002	-9.95939E-004	8	..........a	0	-327.74
	5856	11.714	-8.66649E-002	-3.45096E-007	0.00000E+000	-8.56000E-002	-9.37606E-004	8	..........a	0	-327.74
	5888	11.778	-8.98528E-002	-2.16773E-007	0.00000E+000	-8.88000E-002	-9.12605E-004	8	..........a	0	-327.74
	5920	11.842	-9.30678E-002	-3.03432E-007	0.00000E+000	-9.20000E-002	-9.79272E-004	8	..........a	0	-327.74
	5952	11.906	-9.62724E-002	-3.64677E-007	0.00000E+000	-9.52000E-002	-9.45939E-004	8	..........a	0	-327.74
	5984	11.97	-9.94674E-002	-3.73843E-007	0.00000E+000	-9.84000E-002	-9.45939E-004	8	..........a	0	-327.74
	6016	12.034	-1.02666E-001	-1.64694E-007	0.00000E+000	-1.01600E-001	-9.20939E-004	8	..........a	0	-327.74
	6048	12.098	-1.05836E-001	-3.63428E-007	0.00000E+000	-1.04800E-001	-9.62605E-004	8	..........a	0	-327.74
	6080	12.162	-1.09056E-001	-2.03440E-007	0.00000E+000	-1.08000E-001	-9.37606E-004	8	..........a	0	-327.74
	6112	12.226	-1.12251E-001	-2.83434E-007	0.00000E+000	-1.11200E-001	-9.54272E-004	8	..........a	0	-327.74
	6144	12.29	-1.15450E-001	-2.57186E-007	0.00000E+000	-1.14400E-001	-9.20939E-004	8	..........a	0	-327.74
	6176	12.354	-1.18649E-001	-2.55936E-007	0.00000E+000	-1.17600E-001	-9.04272E-004	8	..........a	0	-327.74
	6208	12.418	-1.21857E-001	-1.97608E-007	0.00000E+000	-1.20800E-001	-8.79272E-004	8	..........a	0	-327.74
	6240	12.482	-1.25045E-001	-1.97608E-007	0.00000E+000	-1.24000E-001	-9.70939E-004	8	..........a	0	-327.74
	6272	12.546	-1.28241E-001	-3.21764E-007	0.00000E+000	-1.27200E-001	-9.37606E-004	8	..........a	0	-327.74
	6304	12.61	-1.31457E-001	-3.44679E-007	0.00000E+000	-1.30400E-001	-8.95939E-004	8	..........a	0	-327.74
	6336	12.674	-1.34659E-001	-4.00508E-007	0.00000E+000	-1.33600E-001	-8.95939E-004	8	..........a	0	-327.74
	6368	12.738	-1.37860E-001	-3.85509E-007	0.00000E+000	-1.36800E-001	-8.79272E-004	8	..........a	0	-327.74
	6400	12.802	-1.41047E-001	-3.81759E-007	0.00000E+000	-1.40000E-001	-9.04272E-004	8	..........a	0	-327.74
	6432	12.866	-1.44237E-001	-4.85501E-007	0.00000E+000	-1.43200E-001	-9.04272E-004	8	..........a	0	-327.74
	6464	12.93	-1.47455E-001	-4.56337E-007	0.00000E+000	-1.46400E-001	-8.62605E-004	8	..........a	0	-327.74
	6496	12.994	-1.50627E-001	-3.24681E-007	0.00000E+000	-1.49600E-001	-8.87605E-004	8	..........a	0	-327.74
	6528	13.058	-1.53829E-001	-4.60086E-007	0.00000E+000	-1.52800E-001	-8.87605E-004	8	..........a	0	-327.74
	6560	13.122	-1.57031E-001	-1.74693E-007	0.00000E+000	-1.56000E-001	-9.62605E-004	8	..........a	0	-327.74
	6592	13.186	-1.60243E-001	-3.09682E-007	0.00000E+000	-1.59200E-001	-9.04272E-004	8	..........a	0	-327.74
	6624	13.25	-1.63426E-001	-2.61769E-007	0.00000E+000	-1.62400E-001	-8.37606E-004	8	..........a	0	-327.74
	6656	13.314	-1.66621E-001	-5.20082E-007	0.00000E+000	-1.65600E-001	-9.12605E-004	8	..........a	0	-327.74
	6688	13.378	-1.69858E-001	-3.01349E-007	0.00000E+000	-1.68800E-001	-9.04272E-004	8	..........a	0	-327.74
	6720	13.442	-1.73042E-001	-2.38021E-007	0.00000E+000	-1.72000E-001	-8.62605E-004	8	..........a	0	-327.74
	6752	13.506	-1.76220E-001	-2.36354E-007	0.00000E+000	-1.75200E-001	-9.79272E-004	8	..........a	0	-327.74
	6784	13.57	-1.79422E-001	-3.40929E-007	0.00000E+000	-1.78400E-001	-9.20939E-004	8	..........a	0	-327.74
	6816	13.634	-1.82628E-001	-4.07174E-007	0.00000E+000	-1.81600E-001	-9.20939E-004	8	..........a	0	-327.74
	6848	13.698	-1.85831E-001	-4.17590E-007	0.00000E+000	-1.84800E-001	-9.04272E-004	8	..........a	0	-327.74
	6880	13.762	-1.89027E-001	-4.20506E-007	0.00000E+000	-1.88000E-001	-9.62605E-004	8	..........a	0	-327.74
	6912	13.826	-1.92216E-001	-3.94675E-007	0.00000E+000	-1.91200E-001	-9.29272E-004	8	..........a	0	-327.74
	6944	13.89	-1.95430E-001	-5.92992E-007	0.00000E+000	-1.94400E-001	-1.00427E-003	8	..........a	0	-327.74
	6976	13.954	-1.98627E-001	-5.83827E-007	0.00000E+000	-1.97600E-001	-9.37606E-004	8	..........a	0	-327.74
	7008	14.018	-2.01814E-001	-5.20915E-007	0.00000E+000	-2.00800E-001	-9.37606E-004	8	..........a	0	-327.74
	7040	14.082	-2.05015E-001	-6.76736E-007	0.00000E+000	-2.04000E-001	-9.04272E-004	8	..........a	0	-327.74
	7072	14.146	-2.08217E-001	-5.86743E-007	0.00000E+000	-2.07200E-001	-9.37606E-004	8	..........a	0	-327.74
	7104	14.21	-2.11419E-001	-6.29656E-007	0.00000E+000	-2.10400E-001	-9.29272E-004	8	..........a	0	-327.74
	7136	14.274	-2.14613E-001	-4.68002E-007	0.00000E+000	-2.13600E-001	-9.70939E-004	8	..........a	0	-327.74
	7168	14.338	-2.17816E-001	-5.66745E-007	0.00000E+000	-2.16800E-001	-9.12605E-004	8	..........a	0	-327.74
	7200	14.402	-2.21024E-001	-6.63403E-007	0.00000E+000	-2.20000E-001	-8.70939E-004	8	..........a	0	-327.74
	7232	14.466	-2.24219E-001	-7.54230E-007	0.00000E+000	-2.23200E-001	-9.45939E-004	8	..........a	0	-327.74
	7264	14.53	-2.27400E-001	-5.85910E-007	0.00000E+000	-2.26400E-001	-8.87605E-004	8	..........a	0	-327.74
	7296	14.594	-2.30603E-001	-6.98817E-007	0.00000E+000	-2.29600E-001	-9.70939E-004	8	..........a	0	-327.74
	7328	14.658	-2.33792E-001	-6.67570E-007	0.00000E+000	-2.32800E-001	-8.95939E-004	8	..........a	0	-327.74
	7360	14.722	-2.37008E-001	-8.77970E-007	0.00000E+000	-2.36000E-001	-9.45939E-004	8	..........a	0	-327.74
	7392	14.786	-2.40207E-001	-8.52555E-007	0.00000E+000	-2.39200E-001	-9.37606E-004	8	..........a	0	-327.74
	7424	14.85	-2.43392E-001	-7.30481E-007	0.00000E+000	-2.42400E-001	-9.45939E-004	8	..........a	0	-327.74
	7456	14.914	-2.46614E-001	-9.73795E-007	0.00000E+000	-2.45600E-001	-9.12605E-004	8	..........a	0	-327.74
	7488	14.978	-2.49794E-001	-9.77545E-007	0.00000E+000	-2.48800E-001	-8.87605E-004	8	..........a	0	-327.74
	7520	15.042	-2.53003E-001	-1.00504E-006	0.00000E+000	-2.52000E-001	-8.87605E-004	8	..........a	0	-327.74
	7552	15.106	-2.56166E-001	-1.02629E-006	0.00000E+000	-2.55200E-001	-9.04272E-004	8	..........a	0	-327.74
	7584	15.17	-2.59371E-001	-1.01629E-006	0.00000E+000	-2.58400E-001	-8.95939E-004	8	..........a	0	-327.74
	7616	15.234	-2.62601E-001	-1.05921E-006	0.00000E+000	-2.61600E-001	-9.12605E-004	8	..........a	0	-327.74
	7648	15.298	-2.65783E-001	-1.06046E-006	0.00000E+000	-2.64800E-001	-9.54272E-004	8	..........a	0	-327.74
	7680	15.362	-2.68907E-001	-9.64213E-007	0.00000E+000	-2.68000E-001	-8.54272E-004	8	..........a	0	-327.74
	7712	15.426	-2.72115E-001	-1.04254E-006	0.00000E+000	-2.71200E-001	-9.20939E-004	8	..........a	0	-327.74
	7744	15.49	-2.75311E-001	-1.14420E-006	0.00000E+000	-2.74400E-001	-9.29272E-004	8	..........a	0	-327.74
	7776	15.554	-2.78536E-001	-1.28627E-006	0.00000E+000	-2.77600E-001	-8.79272E-004	8	..........a	0	-327.74
	7808	15.618	-2.81648E-001	-1.33835E-006	0.00000E+000	-2.80800E-001	-9.20939E-004	8	..........a	0	-327.74
	7840	15.682	-2.84865E-001	-1.31752E-006	0.00000E+000	-2.84000E-001	-8.87605E-004	8	..........a	0	-327.74
	7872	15.746	-2.88044E-001	-1.47792E-006	0.00000E+000	-2.87200E-001	-8.62605E-004	8	..........a	0	-327.74
	7904	15.81	-2.91207E-001	-1.40084E-006	0.00000E+000	-2.90400E-001	-8.87605E-004	8	..........a	0	-327.74
	7936	15.874	-2.94548E-001	-1.41418E-006	0.00000E+000	-2.93600E-001	-8.20939E-004	8	..........a	0	-327.74
	7968	15.938	-2.97753E-001	-1.56166E-006	0.00000E+000	-2.96800E-001	-9.37606E-004	8	..........a	0	-327.74
	8000	16.002	-3.00903E-001	-1.47917E-006	0.00000E+000	-3.00000E-001	-9.20939E-004	8	..........a	0	-327.74
	8032	16.066	-3.04115E-001	-1.67666E-006	0.00000E+000	-3.03200E-001	-9.12605E-004	8	..........a	0	-327.74
	8064	16.13	-3.07228E-001	-1.67874E-006	0.00000E+000	-3.06400E-001	-8.62605E-004	8	..........a	0	-327.74
	8096	16.194	-3.10457E-001	-1.61166E-006	0.00000E+000	-3.09600E-001	-9.37606E-004	8	..........a	0	-327.74
	8128	16.258	-3.13632E-001	-1.78915E-006	0.00000E+000	-3.12800E-001	-9.20939E-004	8	..........a	0	-327.74
	8160	16.322	-3.16832E-001	-1.84206E-006	0.00000E+000	-3.16000E-001	-9.04272E-004	8	..........a	0	-327.74
	8192	16.386	-3.20086E-001	-1.89705E-006	0.00000E+000	-3.19200E-001	-8.79272E-004	8	..........a	0	-327.74
	8224	16.45	-3.23323E-001	-1.99121E-006	0.00000E+000	-3.22400E-001	-8.70939E-004	8	..........a	0	-327.74
	8256	16.514	-3.26511E-001	-1.96497E-006	0.00000E+000	-3.25600E-001	-9.12605E-004	8	..........a	0	-327.74
	8288	16.578	-3.29698E-001	-2.13495E-006	0.00000E+000	-3.28800E-001	-8.87605E-004	8	..........a	0	-327.74
	8320	16.642	-3.32882E-001	-2.11245E-006	0.00000E+000	-3.32000E-001	-9.29272E-004	8	..........a	0	-327.74
	8352	16.706	-3.35994E-001	-2.16412E-006	0.00000E+000	-3.35200E-001	-9.79272E-004	8	..........a	0	-327.74
	8384	16.77	-3.39211E-001	-2.29077E-006	0.00000E+000	-3.38400E-001	-8.95939E-004	8	..........a	0	-327.74
	8416	16.834	-3.42423E-001	-2.52450E-006	0.00000E+000	-3.41600E-001	-9.12605E-004	8	..........a	0	-327.74
	8448	16.898	-3.45690E-001	-2.68699E-006	0.00000E+000	-3.44800E-001	-9.29272E-004	8	..........a	0	-327.74
	8480	16.962	-3.48882E-001	-2.62741E-006	0.00000E+000	-3.48000E-001	-9.20939E-004	8	..........a	0	-327.74
	8512	17.026	-3.52057E-001	-2.78282E-006	0.00000E+000	-3.51200E-001	-8.95939E-004	8	..........a	0	-327.74
	8544	17.09	-3.55269E-001	-2.93739E-006	0.00000E+000	-3.54400E-001	-9.29272E-004	8	..........a	0	-327.74
	8576	17.154	-3.58436E-001	-3.00572E-006	0.00000E+000	-3.57600E-001	-8.54272E-004	8	..........a	0	-327.74
	8608	17.218	-3.61648E-001	-3.30652E-006	0.00000E+000	-3.60800E-001	-9.37606E-004	8	..........a	0	-327.74
	8640	17.282	-3.64869E-001	-3.28111E-006	0.00000E+000	-3.64000E-001	-9.70939E-004	8	..........a	0	-327.74
	8672	17.346	-3.68032E-001	-3.54442E-006	0.00000E+000	-3.67200E-001	-9.12605E-004	8	..........a	0	-327.74
	8704	17.41	-3.71261E-001	-3.66108E-006	0.00000E+000	-3.70400E-001	-9.45939E-004	8	..........a	0	-327.74
	8736	17.474	-3.74498E-001	-4.02730E-006	0.00000E+000	-3.73600E-001	-8.95939E-004	8	..........a	0	-327.74
	8768	17.538	-3.77673E-001	-4.13312E-006	0.00000E+000	-3.76800E-001	-8.70939E-004	8	..........a	0	-327.74
	8800	17.602	-3.80861E-001	-4.34144E-006	0.00000E+000	-3.80000E-001	-9.62605E-004	8	..........a	0	-327.74
	8832	17.666	-3.84057E-001	-4.72391E-006	0.00000E+000	-3.83200E-001	-8.79272E-004	8	..........a	0	-327.74
	8864	17.73	-3.87228E-001	-4.95473E-006	0.00000E+000	-3.86400E-001	-9.70939E-004	8	..........a	0	-327.74
	8896	17.794	-3.90428E-001	-5.48677E-006	0.00000E+000	-3.89600E-001	-9.04272E-004	8	..........a	0	-327.74
	8928	17.858	-3.93598E-001	-5.66675E-006	0.00000E+000	-3.92800E-001	-9.04272E-004	8	..........a	0	-327.74
	8960	17.922	-3.96915E-001	-6.05547E-006	0.00000E+000	-3.96000E-001	-8.95939E-004	8	..........a	0	-327.74
	8992	17.986	-4.00053E-001	-6.57543E-006	0.00000E+000	-3.99200E-001	-9.45939E-004	8	..........a	0	-327.74
	9024	18.05	-4.03282E-001	-7.07997E-006	0.00000E+000	-4.02400E-001	-9.37606E-004	8	..........a	0	-327.74
	9056	18.114	-4.06411E-001	-7.71242E-006	0.00000E+000	-4.05600E-001	-9.87605E-004	8	..........a	0	-327.74
	9088	18.178	-4.09648E-001	-8.50902E-006	0.00000E+000	-4.08800E-001	-9.29272E-004	8	..........a	0	-327.74
	9120	18.242	-4.12832E-001	-8.93899E-006	0.00000E+000	-4.12000E-001	-8.87605E-004	8	..........a	0	-327.74
	9152	18.306	-4.16028E-001	-9.81642E-006	0.00000E+000	-4.15200E-001	-9.37606E-004	8	..........a	0	-327.74
	9184	18.37	-4.19211E-001	-1.07147E-005	0.00000E+000	-4.18400E-001	-8.95939E-004	8	..........a	0	-327.74
	9216	18.434	-4.22432E-001	-1.17717E-005	0.00000E+000	-4.21600E-001	-1.01261E-003	8	..........a	0	-327.74
	9248	18.498	-4.25619E-001	-1.27495E-005	0.00000E+000	-4.24800E-001	-9.29272E-004	8	..........a	0	-327.74
	9280	18.562	-4.28878E-001	-1.40440E-005	0.00000E+000	-4.28000E-001	-9.45939E-004	8	..........a	0	-327.74
	9312	18.626	-4.32040E-001	-1.51943E-005	0.00000E+000	-4.31200E-001	-9.04272E-004	8	..........a	0	-327.74
	9344	18.69	-4.35219E-001	-1.68617E-005	0.00000E+000	-4.34400E-001	-9.12605E-004	8	..........a	0	-327.74
	9376	18.754	-4.38390E-001	-1.82112E-005	0.00000E+000	-4.37600E-001	-9.45939E-004	8	..........a	0	-327.74
	9408	18.818	-4.41603E-001	-2.02177E-005	0.00000E+000	-4.40800E-001	-8.70939E-004	8	..........a	0	-327.74
	9440	18.882	-4.44786E-001	-2.22250E-005	0.00000E+000	-4.44000E-001	-8.87605E-004	8	..........a	0	-327.74
	9472	18.946	-4.48040E-001	-2.47411E-005	0.00000E+000	-4.47200E-001	-9.45939E-004	8	..........a	0	-327.74
	9504	19.01	-4.51211E-001	-2.70142E-005	0.00000E+000	-4.50400E-001	-9.04272E-004	8	..........a	0	-327.74
	9536	19.074	-4.54432E-001	-2.98269E-005	0.00000E+000	-4.53600E-001	-8.79272E-004	8	..........a	0	-327.74
	9568	19.138	-4.57632E-001	-3.28346E-005	0.00000E+000	-4.56800E-001	-9.70939E-004	8	..........a	0	-327.74
	9600	19.202	-4.60794E-001	-3.66605E-005	0.00000E+000	-4.60000E-001	-9.04272E-004	8	..........a	0	-327.74
	9632	19.266	-4.63986E-001	-4.06889E-005	0.00000E+000	-4.63200E-001	-8.54272E-004	8	..........a	0	-327.74
	9664	19.33	-4.67186E-001	-4.49765E-005	0.00000E+000	-4.66400E-001	-8.95939E-004	8	..........a	0	-327.74
	9696	19.394	-4.70369E-001	-4.98711E-005	0.00000E+000	-4.69600E-001	-8.79272E-004	8	..........a	0	-327.74
	9728	19.458	-4.73611E-001	-5.53790E-005	0.00000E+000	-4.72800E-001	-9.12605E-004	8	..........a	0	-327.74
	9760	19.522	-4.76794E-001	-6.12560E-005	0.00000E+000	-4.76000E-001	-9.20939E-004	8	..........a	0	-327.74
	9792	19.586	-4.80036E-001	-6.79113E-005	0.00000E+000	-4.79200E-001	-8.87605E-004	8	..........a	0	-327.74
	9824	19.65	-4.83186E-001	-7.53953E-005	0.00000E+000	-4.82400E-001	-9.20939E-004	8	..........a	0	-327.74
	9856	19.714	-4.86369E-001	-8.39234E-005	0.00000E+000	-4.85600E-001	-9.12605E-004	8	..........a	0	-327.74
	9888	19.778	-4.89565E-001	-9.33435E-005	0.00000E+000	-4.88800E-001	-8.79272E-004	8	..........a	0	-327.74
	9920	19.842	-4.92778E-001	-1.03236E-004	0.00000E+000	-4.92000E-001	-8.95939E-004	8	..........a	0	-327.74
	9952	19.906	-4.95957E-001	-1.14538E-004	0.00000E+000	-4.95200E-001	-9.20939E-004	8	..........a	0	-327.74
	9984	19.97	-4.99115E-001	-1.26750E-004	0.00000E+000	-4.98400E-001	-9.04272E-004	8	..........a	0	-327.74
	10016	20.034	-5.02311E-001	-1.39355E-004	0.00000E+000	-5.01600E-001	-9.45939E-004	8	..........a	0	-327.74
	10048	20.098	-5.05503E-001	-1.53683E-004	0.00000E+000	-5.04800E-001	-9.29272E-004	8	..........a	0	-327.74
	10080	20.162	-5.08690E-001	-1.68873E-004	0.00000E+000	-5.08000E-001	-8.95939E-004	8	..........a	0	-327.74
	10112	20.226	-5.11836E-001	-1.84701E-004	0.00000E+000	-5.11200E-001	-8.79272E-004	8	..........a	0	-327.74
	10144	20.29	-5.15053E-001	-2.02138E-004	0.00000E+000	-5.14400E-001	-9.45939E-004	8	..........a	0	-327.74
	10176	20.354	-5.18157E-001	-2.19214E-004	0.00000E+000	-5.17600E-001	-9.37606E-004	8	..........a	0	-327.74
	10208	20.418	-5.21390E-001	-2.37384E-004	0.00000E+000	-5.20800E-001	-9.45939E-004	8	..........a	0	-327.74
	10240	20.482	-5.24344E-001	-2.56978E-004	0.00000E+000	-5.24000E-001	-9.54272E-004	8	..........a	0	-327.74
	10272	20.546	-5.27979E-001	-2.76793E-004	0.00000E+000	-5.27200E-001	-9.04272E-004	9	..........a	0	-327.74
	10304	20.61	-5.31154E-001	-2.93583E-004	0.00000E+000	-5.30400E-001	-8.54272E-004	9	..........a	0	-327.74
	10336	20.674	-5.34358E-001	-3.10461E-004	0.00000E+000	-5.33600E-001	-8.95939E-004	9	..........a	0	-327.74
	10368	20.738	-5.37542E-001	-3.26173E-004	0.00000E+000	-5.36800E-001	-8.54272E-004	9	..........a	0	-327.74
	10400	20.802	-5.40754E-001	-3.41554E-004	0.00000E+000	-5.40000E-001	-8.62605E-004	9	..........a	0	-327.74
	10432	20.866	-5.43946E-001	-3.56092E-004	0.00000E+000	-5.43200E-001	-8.87605E-004	9	..........a	0	-327.74
	10464	20.93	-5.47133E-001	-3.67918E-004	0.00000E+000	-5.46400E-001	-9.12605E-004	9	..........a	0	-327.74
	10496	20.994	-5.50375E-001	-3.77449E-004	0.00000E+000	-5.49600E-001	-8.95939E-004	9	..........a	0	-327.74
	10528	21.058	-5.53550E-001	-3.85594E-004	0.00000E+000	-5.52800E-001	-9.29272E-004	9	..........a	0	-327.74
	10560	21.122	-5.56737E-001	-3.93780E-004	0.00000E+000	-5.56000E-001	-8.37606E-004	9	..........a	0	-327.74
	10592	21.186	-5.59925E-001	-3.99617E-004	0.00000E+000	-5.59200E-001	-8.87605E-004	9	..........a	0	-327.74
	10624	21.25	-5.63112E-001	-4.04598E-004	0.00000E+000	-5.62400E-001	-9.20939E-004	9	..........a	0	-327.74
	10656	21.314	-5.66346E-001	-4.07636E-004	0.00000E+000	-5.65600E-001	-9.04272E-004	9	..........a	0	-327.74
	10688	21.378	-5.69550E-001	-4.10302E-004	0.00000E+000	-5.68800E-001	-8.45939E-004	9	..........a	0	-327.74
	10720	21.442	-5.72696E-001	-4.13039E-004	0.00000E+000	-5.72000E-001	-9.20939E-004	9	..........a	0	-327.74
	10752	21.506	-5.75892E-001	-4.14485E-004	0.00000E+000	-5.75200E-001	-9.29272E-004	9	..........a	0	-327.74
	10784	21.57	-5.79129E-001	-4.14686E-004	0.00000E+000	-5.78400E-001	-8.62605E-004	9	..........a	0	-327.74
	10816	21.634	-5.82354E-001	-4.15338E-004	0.00000E+000	-5.81600E-001	-9.29272E-004	9	..........a	0	-327.74
	10848	21.698	-5.85517E-001	-4.16775E-004	0.00000E+000	-5.84800E-001	-9.04272E-004	9	..........a	0	-327.74
	10880	21.762	-5.88725E-001	-4.18563E-004	0.00000E+000	-5.88000E-001	-9.45939E-004	9	..........a	0	-327.74
	10912	21.826	-5.91917E-001	-4.19825E-004	0.00000E+000	-5.91200E-001	-8.70939E-004	9	..........a	0	-327.74
	10944	21.89	-5.95137E-001	-4.22487E-004	0.00000E+000	-5.94400E-001	-9.12605E-004	9	..........a	0	-327.74
	10976	21.954	-5.98312E-001	-4.23235E-004	0.00000E+000	-5.97600E-001	-8.70939E-004	9	..........a	0	-327.74
	11008	22.018	-6.01508E-001	-4.24263E-004	0.00000E+000	-6.00800E-001	-8.62605E-004	9	..........a	0	-327.74
	11040	22.082	-6.04762E-001	-4.23494E-004	0.00000E+000	-6.04000E-001	-9.12605E-004	9	..........a	0	-327.74
	11072	22.146	-6.07937E-001	-4.24255E-004	0.00000E+000	-6.07200E-001	-8.87605E-004	9	..........a	0	-327.74
	11104	22.21	-6.11154E-001	-4.25007E-004	0.00000E+000	-6.10400E-001	-8.37606E-004	9	..........a	0	-327.74
	11136	22.274	-6.14308E-001	-4.23085E-004	0.00000E+000	-6.13600E-001	-9.04272E-004	9	..........a	0	-327.74
	11168	22.338	-6.17521E-001	-4.23837E-004	0.00000E+000	-6.16800E-001	-9.20939E-004	9	..........a	0	-327.74
	11200	22.402	-6.20717E-001	-4.25379E-004	0.00000E+000	-6.20000E-001	-8.95939E-004	9	..........a	0	-327.74
	11232	22.466	-6.23862E-001	-4.25688E-004	0.00000E+000	-6.23200E-001	-9.04272E-004	9	..........a	0	-327.74
	11264	22.53	-6.27062E-001	-4.25111E-004	0.00000E+000	-6.26400E-001	-8.70939E-004	9	..........a	0	-327.74
	11296	22.594	-6.30312E-001	-4.26979E-004	0.00000E+000	-6.29600E-001	-9.45939E-004	9	..........a	0	-327.74
	11328	22.658	-6.33508E-001	-4.25680E-004	0.00000E+000	-6.32800E-001	-8.70939E-004	9	..........a	0	-327.74
	11360	22.722	-6.36733E-001	-4.23833E-004	0.00000E+000	-6.36000E-001	-8.62605E-004	9	..........a	0	-327.74
	11392	22.786	-6.39904E-001	-4.23340E-004	0.00000E+000	-6.39200E-001	-8.87605E-004	9	..........a	0	-327.74
	11424	22.85	-6.43121E-001	-4.23361E-004	0.00000E+000	-6.42400E-001	-8.70939E-004	9	..........a	0	-327.74
	11456	22.914	-6.46296E-001	-4.24079E-004	0.00000E+000	-6.45600E-001	-8.87605E-004	9	..........a	0	-327.74
	11488	22.978	-6.49533E-001	-4.23248E-004	0.00000E+000	-6.48800E-001	-8.70939E-004	9	..........a	0	-327.74
	11520	23.042	-6.52708E-001	-4.24497E-004	0.00000E+000	-6.52000E-001	-8.95939E-004	9	..........a	0	-327.74
	11552	23.106	-6.55912E-001	-4.25676E-004	0.00000E+000	-6.55200E-001	-8.87605E-004	9	..........a	0	-327.74
	11584	23.17	-6.59121E-001	-4.26896E-004	0.00000E+000	-6.58400E-001	-8.70939E-004	9	..........a	0	-327.74
	11616	23.234	-6.62333E-001	-4.26925E-004	0.00000E+000	-6.61600E-001	-9.12605E-004	9	..........a	0	-327.74
	11648	23.298	-6.65512E-001	-4.27372E-004	0.00000E+000	-6.64800E-001	-9.20939E-004	9	..........a	0	-327.74
	11680	23.362	-6.68725E-001	-4.26624E-004	0.00000E+000	-6.68000E-001	-8.45939E-004	9	..........a	0	-327.74
	11712	23.426	-6.71896E-001	-4.24138E-004	0.00000E+000	-6.71200E-001	-9.20939E-004	9	..........a	0	-327.74
	11744	23.49	-6.75112E-001	-4.23774E-004	0.00000E+000	-6.74400E-001	-9.54272E-004	9	..........a	0	-327.74
	11776	23.554	-6.78300E-001	-4.22679E-004	0.00000E+000	-6.77600E-001	-8.37606E-004	9	..........a	0	-327.74
	11808	23.618	-6.81512E-001	-4.19353E-004	0.00000E+000	-6.80800E-001	-8.95939E-004	9	..........a	0	-327.74
	11840	23.682	-6.84662E-001	-4.22078E-004	0.00000E+000	-6.84000E-001	-9.45939E-004	9	..........a	0	-327.74
	11872	23.746	-6.87925E-001	-4.25437E-004	0.00000E+000	-6.87200E-001	-8.87605E-004	9	..........a	0	-327.74
	11904	23.81	-6.91125E-001	-4.26913E-004	0.00000E+000	-6.90400E-001	-9.04272E-004	9	..........a	0	-327.74
	11936	23.874	-6.94312E-001	-4.27615E-004	0.00000E+000	-6.93600E-001	-8.70939E-004	9	..........a	0	-327.74
	11968	23.938	-6.97504E-001	-4.26461E-004	0.00000E+000	-6.96800E-001	-8.79272E-004	9	..........a	0	-327.74
	12000	24.002	-7.00712E-001	-4.26637E-004	0.00000E+000	-7.00000E-001	-8.70939E-004	9	..........a	0	-327.74
	12032	24.066	-7.03887E-001	-4.26942E-004	0.00000E+000	-7.03200E-001	-9.20939E-004	9	..........a	0	-327.74
	12064	24.13	-7.07125E-001	-4.25822E-004	0.00000E+000	-7.06400E-001	-8.95939E-004	9	..........a	0	-327.74
	12096	24.194	-7.10287E-001	-4.26403E-004	0.00000E+000	-7.09600E-001	-9.04272E-004	9	..........a	0	-327.74
	12128	24.258	-7.13479E-001	-4.27213E-004	0.00000E+000	-7.12800E-001	-9.04272E-004	9	..........a	0	-327.74
	12160	24.322	-7.16692E-001	-4.26687E-004	0.00000E+000	-7.16000E-001	-8.37606E-004	9	..........a	0	-327.74
	12192	24.386	-7.19904E-001	-4.24852E-004	0.00000E+000	-7.19200E-001	-9.54272E-004	9	..........a	0	-327.74
	12224	24.45	-7.23092E-001	-4.24894E-004	0.00000E+000	-7.22400E-001	-9.62605E-004	9	..........a	0	-327.74
	12256	24.514	-7.26329E-001	-4.24380E-004	0.00000E+000	-7.25600E-001	-8.95939E-004	9	..........a	0	-327.74
	12288	24.578	-7.29487E-001	-4.23402E-004	0.00000E+000	-7.28800E-001	-9.20939E-004	9	..........a	0	-327.74
	12320	24.642	-7.32675E-001	-4.20507E-004	0.00000E+000	-7.32000E-001	-9.37606E-004	9	..........a	0	-327.74
	12352	24.706	-7.35867E-001	-4.21614E-004	0.00000E+000	-7.35200E-001	-8.87605E-004	9	..........a	0	-327.74
	12384	24.77	-7.39100E-001	-4.23603E-004	0.00000E+000	-7.38400E-001	-9.12605E-004	9	..........a	0	-327.74
	12416	24.834	-7.42267E-001	-4.25446E-004	0.00000E+000	-7.41600E-001	-8.70939E-004	9	..........a	0	-327.74
	12448	24.898	-7.45492E-001	-4.25813E-004	0.00000E+000	-7.44800E-001	-8.95939E-004	9	..........a	0	-327.74
	12480	24.962	-7.48717E-001	-4.25755E-004	0.00000E+000	-7.48000E-001	-9.37606E-004	9	..........a	0	-327.74
	12512	25.026	-7.51892E-001	-4.26587E-004	0.00000E+000	-7.51200E-001	-9.04272E-004	9	..........a	0	-327.74
	12544	25.09	-7.55033E-001	-4.25366E-004	0.00000E+000	-7.54400E-001	-8.20939E-004	9	..........a	0	-327.74
	12576	25.154	-7.58267E-001	-4.23741E-004	0.00000E+000	-7.57600E-001	-9.04272E-004	9	..........a	0	-327.74
	12608	25.218	-7.61479E-001	-4.24798E-004	0.00000E+000	-7.60800E-001	-9.04272E-004	9	..........a	0	-327.74
	12640	25.282	-7.64700E-001	-4.25417E-004	0.00000E+000	-7.64000E-001	-9.29272E-004	9	..........a	0	-327.74
	12672	25.346	-7.67908E-001	-4.26123E-004	0.00000E+000	-7.67200E-001	-8.87605E-004	9	..........a	0	-327.74
	12704	25.41	-7.71117E-001	-4.25889E-004	0.00000E+000	-7.70400E-001	-9.12605E-004	9	..........a	0	-327.74
	12736	25.474	-7.74233E-001	-4.25462E-004	0.00000E+000	-7.73600E-001	-9.37606E-004	9	..........a	0	-327.74
	12768	25.538	-7.77529E-001	-4.24384E-004	0.00000E+000	-7.76800E-001	-9.20939E-004	9	..........a	0	-327.74
	12800	25.602	-7.80575E-001	-4.25224E-004	0.00000E+000	-7.80000E-001	-9.45939E-004	9	..........a	0	-327.74
	12832	25.666	-7.83867E-001	-4.26541E-004	0.00000E+000	-7.83200E-001	-8.87605E-004	9	..........a	0	-327.74
	12864	25.73	-7.87071E-001	-4.25922E-004	0.00000E+000	-7.86400E-001	-8.70939E-004	9	..........a	0	-327.74
	12896	25.794	-7.90287E-001	-4.27970E-004	0.00000E+000	-7.89600E-001	-8.87605E-004	9	..........a	0	-327.74
	12928	25.858	-7.93492E-001	-4.25709E-004	0.00000E+000	-7.92800E-001	-9.04272E-004	9	..........a	0	-327.74
	12960	25.922	-7.96704E-001	-4.24263E-004	0.00000E+000	-7.96000E-001	-8.87605E-004	9	..........a	0	-327.74
	12992	25.986	-7.99842E-001	-4.25500E-004	0.00000E+000	-7.99200E-001	-7.95939E-004	9	..........a	0	-327.74
	13024	26.05	-8.03075E-001	-4.26202E-004	0.00000E+000	-8.02400E-001	-9.37606E-004	9	..........a	0	-327.74
	13056	26.114	-8.06125E-001	-4.25730E-004	0.00000E+000	-8.05600E-001	-9.45939E-004	9	..........a	0	-327.74
	13088	26.178	-8.09475E-001	-4.27197E-004	0.00000E+000	-8.08800E-001	-9.20939E-004	9	..........a	0	-327.74
	13120	26.242	-8.12675E-001	-4.25763E-004	0.00000E+000	-8.12000E-001	-8.62605E-004	9	..........a	0	-327.74
	13152	26.306	-8.15858E-001	-4.26900E-004	0.00000E+000	-8.15200E-001	-8.95939E-004	9	..........a	0	-327.74
	13184	26.37	-8.19017E-001	-4.26929E-004	0.00000E+000	-8.18400E-001	-9.04272E-004	9	..........a	0	-327.74
	13216	26.434	-8.22217E-001	-4.24447E-004	0.00000E+000	-8.21600E-001	-8.37606E-004	9	..........a	0	-327.74
	13248	26.498	-8.25342E-001	-4.23582E-004	0.00000E+000	-8.24800E-001	-9.12605E-004	9	..........a	0	-327.74
	13280	26.562	-8.28687E-001	-4.22345E-004	0.00000E+000	-8.28000E-001	-9.29272E-004	9	..........a	0	-327.74
	13312	26.626	-8.31658E-001	-4.25015E-004	0.00000E+000	-8.31200E-001	-8.95939E-004	9	..........a	0	-327.74
	13344	26.69	-8.35000E-001	-4.25859E-004	0.00000E+000	-8.34400E-001	-9.20939E-004	9	..........a	0	-327.74
	13376	26.754	-8.38179E-001	-4.25074E-004	0.00000E+000	-8.37600E-001	-9.29272E-004	9	..........a	0	-327.74
	13408	26.818	-8.41421E-001	-4.26244E-004	0.00000E+000	-8.40800E-001	-8.70939E-004	9	..........a	0	-327.74
	13440	26.882	-8.44504E-001	-4.25571E-004	0.00000E+000	-8.44000E-001	-9.45939E-004	9	..........a	0	-327.74
	13472	26.946	-8.47833E-001	-4.25609E-004	0.00000E+000	-8.47200E-001	-8.95939E-004	9	..........a	0	-327.74
	13504	27.01	-8.50983E-001	-4.26269E-004	0.00000E+000	-8.50400E-001	-8.70939E-004	9	..........a	0	-327.74
	13536	27.074	-8.54250E-001	-4.25187E-004	0.00000E+000	-8.53600E-001	-8.95939E-004	9	..........a	0	-327.74
	13568	27.138	-8.57200E-001	-4.25195E-004	0.00000E+000	-8.56800E-001	-9.12605E-004	9	..........a	0	-327.74
	13600	27.202	-8.60562E-001	-4.27163E-004	0.00000E+000	-8.60000E-001	-8.87605E-004	9	..........a	0	-327.74
	13632	27.266	-8.63787E-001	-4.27698E-004	0.00000E+000	-8.63200E-001	-9.12605E-004	9	..........a	0	-327.74
	13664	27.33	-8.66975E-001	-4.26002E-004	0.00000E+000	-8.66400E-001	-9.62605E-004	9	..........a	0	-327.74
	13696	27.394	-8.70175E-001	-4.23850E-004	0.00000E+000	-8.69600E-001	-9.54272E-004	9	..........a	0	-327.74
	13728	27.458	-8.73367E-001	-4.25529E-004	0.00000E+000	-8.72800E-001	-8.70939E-004	9	..........a	0	-327.74
	13760	27.522	-8.76525E-001	-4.26766E-004	0.00000E+000	-8.76000E-001	-9.04272E-004	9	..........a	0	-327.74
	13792	27.586	-8.79762E-001	-4.26357E-004	0.00000E+000	-8.79200E-001	-8.62605E-004	9	..........a	0	-327.74
	13824	27.65	-8.82833E-001	-4.26144E-004	0.00000E+000	-8.82400E-001	-9.62605E-004	9	..........a	0	-327.74
	13856	27.714	-8.86175E-001	-4.25651E-004	0.00000E+000	-8.85600E-001	-9.20939E-004	9	..........a	0	-327.74
	13888	27.778	-8.89379E-001	-4.25111E-004	0.00000E+000	-8.88800E-001	-9.04272E-004	9	..........a	0	-327.74
	13920	27.842	-8.92571E-001	-4.25692E-004	0.00000E+000	-8.92000E-001	-8.95939E-004	9	..........a	0	-327.74
	13952	27.906	-8.95817E-001	-4.23900E-004	0.00000E+000	-8.95200E-001	-1.00427E-003	9	..........a	0	-327.74
	13984	27.97	-8.98871E-001	-4.23879E-004	0.00000E+000	-8.98400E-001	-9.37606E-004	9	..........a	0	-327.74
	14016	28.034	-9.02146E-001	-4.24376E-004	0.00000E+000	-9.01600E-001	-8.95939E-004	9	..........a	0	-327.74
	14048	28.098	-9.05304E-001	-4.25270E-004	0.00000E+000	-9.04800E-001	-9.79272E-004	9	..........a	0	-327.74
	14080	28.162	-9.08437E-001	-4.23854E-004	0.00000E+000	-9.08000E-001	-8.87605E-004	9	..........a	0	-327.74
	14112	28.226	-9.11775E-001	-4.24347E-004	0.00000E+000	-9.11200E-001	-9.29272E-004	9	..........a	0	-327.74
	14144	28.29	-9.14971E-001	-4.24297E-004	0.00000E+000	-9.14400E-001	-9.37606E-004	9	..........a	0	-327.74
	14176	28.354	-9.18129E-001	-4.23281E-004	0.00000E+000	-9.17600E-001	-9.04272E-004	9	..........a	0	-327.74
	14208	28.418	-9.21350E-001	-4.24702E-004	0.00000E+000	-9.20800E-001	-9.04272E-004	9	..........a	0	-327.74
	14240	28.482	-9.24467E-001	-4.26645E-004	0.00000E+000	-9.24000E-001	-9.54272E-004	9	..........a	0	-327.74
	14272	28.546	-9.27712E-001	-4.25300E-004	0.00000E+000	-9.27200E-001	-9.20939E-004	9	..........a	0	-327.74
	14304	28.61	-9.30946E-001	-4.24272E-004	0.00000E+000	-9.30400E-001	-9.20939E-004	9	..........a	0	-327.74
	14336	28.674	-9.34012E-001	-4.22324E-004	0.00000E+000	-9.33600E-001	-8.37606E-004	9	..........a	0	-327.74
	14368	28.738	-9.37342E-001	-4.23954E-004	0.00000E+000	-9.36800E-001	-9.12605E-004	9	..........a	0	-327.74
	14400	28.802	-9.40554E-001	-4.24606E-004	0.00000E+000	-9.40000E-001	-9.04272E-004	9	..........a	0	-327.74
	14432	28.866	-9.43754E-001	-4.24426E-004	0.00000E+000	-9.43200E-001	-9.37606E-004	9	..........a	0	-327.74
	14464	28.93	-9.46950E-001	-4.25914E-004	0.00000E+000	-9.46400E-001	-9.29272E-004	9	..........a	0	-327.74
	14496	28.994	-9.50054E-001	-4.27347E-004	0.00000E+000	-9.49600E-001	-8.79272E-004	9	..........a	0	-327.74
	14528	29.058	-9.53354E-001	-4.28371E-004	0.00000E+000	-9.52800E-001	-9.12605E-004	9	..........a	0	-327.74
	14560	29.122	-9.56483E-001	-4.26503E-004	0.00000E+000	-9.56000E-001	-8.70939E-004	9	..........a	0	-327.74
	14592	29.186	-9.59558E-001	-4.25625E-004	0.00000E+000	-9.59200E-001	-9.20939E-004	9	..........a	0	-327.74
	14624	29.25	-9.62958E-001	-4.25738E-004	0.00000E+000	-9.62400E-001	-9.87605E-004	9	..........a	0	-327.74
	14656	29.314	-9.66142E-001	-4.26678E-004	0.00000E+000	-9.65600E-001	-9.12605E-004	9	..........a	0	-327.74
	14688	29.378	-9.69283E-001	-4.27355E-004	0.00000E+000	-9.68800E-001	-8.87605E-004	9	..........a	0	-327.74
	14720	29.442	-9.72546E-001	-4.26135E-004	0.00000E+000	-9.72000E-001	-9.04272E-004	9	..........a	0	-327.74
	14752	29.506	-9.75600E-001	-4.25567E-004	0.00000E+000	-9.75200E-001	-9.29272E-004	9	..........a	0	-327.74
	14784	29.57	-9.78787E-001	-4.26683E-004	0.00000E+000	-9.78400E-001	-8.79272E-004	9	..........a	0	-327.74
	14816	29.634	-9.82167E-001	-4.26829E-004	0.00000E+000	-9.81600E-001	-9.29272E-004	9	..........a	0	-327.74
	14848	29.698	-9.85054E-001	-4.27335E-004	0.00000E+000	-9.84800E-001	-9.04272E-004	9	..........a	0	-327.74
	14880	29.762	-9.88525E-001	-4.26014E-004	0.00000E+000	-9.88000E-001	-9.04272E-004	9	..........a	0	-327.74
	14912	29.826	-9.91704E-001	-4.25354E-004	0.00000E+000	-9.91200E-001	-8.95939E-004	9	..........a	0	-327.74
	14944	29.89	-9.94896E-001	-4.25417E-004	0.00000E+000	-9.94400E-001	-8.45939E-004	9	..........a	0	-327.74
	14976	29.954	-9.98092E-001	-4.25529E-004	0.00000E+000	-9.97600E-001	-9.04272E-004	9	..........a	0	-327.74
	15000	30.002	-1.00040E+000	-4.26332E-004	0.00000E+000	-1.00000E+000	-9.12605E-004	9	..........a	0	-327.74