File: data/02-SI/Figures_S9_S11_RDE/18btmapaq-rde/1mkcl-18btmapaq-nitrogen-2000mvpers.DTA
EXPLAIN
TAG	CV
TITLE	LABEL	Cyclic Voltammetry	Test &Identifier
DATE	LABEL	1/31/2023	Date
TIME	LABEL	15:22:45	Time
NOTES	NOTES	1	&Notes...

PSTAT	PSTAT	REF3000-21108	Potentiostat
VINIT	POTEN	5.00000E-001	F	Initial &E (V)
VLIMIT1	POTEN	-1.00000E+000	F	Scan Limit &1 (V)
VLIMIT2	POTEN	5.00000E-001	F	Scan Limit &2 (V)
VFINAL	POTEN	5.00000E-001	F	Final &E (V)
SCANRATE	QUANT	2.00000E+003	&Scan Rate (mV/s)
STEPSIZE	QUANT	1.00000E+000	St&ep Size (mV)
CYCLES	IQUANT	1	C&ycles (#)
IMODE	SELECTOR	1	I/E Range &Mode
IRANGE	QUANT	1.00000E+001	&Max Current (mA)
AREA	QUANT	1.00000E+000	Electrode &Area (cm^2)
ELECTRODETYPE	SELECTOR	0	Electrode Type
STRIPPING	TOGGLE	F	Used for Stripping
POLARITY	TOGGLE	F	Signal Polarity
CONDIT	TWOPARAM	F	1.50000E+001	0.00000E+000	Conditionin&g	Time(s)	E(V)
DELAY	TWOPARAM	F	5.00000E+000	0.00000E+000	Init. De&lay	Time(s)	Stab.(mV/s)
EQDELAY	QUANT	0.00000E+000	Equil. &Time (s)
IRCOMP	SELECTOR	0	IRCom&p
PFCOR	QUANT	5.00000E+001	PF Corr. (ohm)
SAMPLINGMODE	SELECTOR	1	Sampling &Mode
EOC	QUANT	0	Open Circuit (V)
PSTATMODEL	IQUANT	5	Pstat Model
PSTATSECTION	LABEL	REF3000-21108	Pstat Section
PSTATSERIALNO	LABEL	21108	Pstat Serial Number
CTRLMODE	IQUANT	1	Control Mode
ELECTROMETER	IQUANT	0	RE=0 or CS=1
IESTAB	IQUANT	2	I/E Stability
CASPEED	IQUANT	4	Control Amp Speed
CONVENTION	IQUANT	1	Current Convention
ICHRANGE	IQUANT	2	Ich Range
ICHRANGEMODE	TOGGLE	F	Ich Auto Range
ICHOFFSETENABLE	TOGGLE	F	Ich Offset Enable
ICHOFFSET	QUANT	0	Ich Offset (V)
ICHFILTER	IQUANT	1	Ich Filter
VCHRANGE	IQUANT	2	Vch Range
VCHRANGEMODE	TOGGLE	F	Vch Auto Range
VCHOFFSETENABLE	TOGGLE	F	Vch Offset Enable
VCHOFFSET	QUANT	0	Vch Offset (V)
VCHFILTER	IQUANT	1	Vch Filter
ACHRANGE	IQUANT	2	Ach Range
ACHOFFSETENABLE	TOGGLE	F	Ach Offset Enable
ACHOFFSET	QUANT	0	Ach Offset (V)
ACHFILTER	IQUANT	0	Ach Filter
IERANGELOWERLIMIT	IQUANT	2	I/E Range Lower Limit
IERANGEMODE	TOGGLE	F	I/E AutoRange
IERANGE	IQUANT	10	I/E Range
POSFEEDENABLE	TOGGLE	F	Positive Feedback IR Comp
POSFEEDRESISTANCE	QUANT	0	Positive Feedback Resistance (ohm)
ACHSELECT	IQUANT	0	Ach Select
SENSECABLEID	IQUANT	14	Sense Cable ID
PWRCABLEID	IQUANT	7	Power Cable ID
DCCALDATE	LABEL	11/9/2022	DC Calibration Date
ACCALDATE	LABEL	11/9/2022	AC Calibration Date
THERMOSELECT	IQUANT	1	Thermo Select
FRAMEWORKVERSION	LABEL	7.8.2	Framework Version
INSTRUMENTVERSION	LABEL	4.40	Instrument Version
COMPLIANCEVOLTAGE	IQUANT	0	Compliance Voltage
CURVE1	TABLE
	Pt	T	Vf	Im	Vu	Sig	Ach	IERange	Over	Temp
	#	s	V vs. Ref.	A	V	V	V	#	bits	deg C
	0	0.0005	4.98858E-001	2.24398E-005	0.00000E+000	5.00000E-001	-8.62605E-004	10	..........a	-327.74
	7	0.004	4.91824E-001	1.35835E-005	0.00000E+000	4.93000E-001	-7.29272E-004	10	..........a	-327.74
	14	0.0075	4.84808E-001	1.04086E-005	0.00000E+000	4.86000E-001	-7.62605E-004	10	..........a	-327.74
	21	0.011	4.77808E-001	9.23894E-006	0.00000E+000	4.79000E-001	-8.62605E-004	10	..........a	-327.74
	28	0.0145	4.70858E-001	6.73245E-006	0.00000E+000	4.72000E-001	-8.29272E-004	10	..........a	-327.74
	35	0.018	4.63858E-001	7.06665E-006	0.00000E+000	4.65000E-001	-8.29272E-004	10	..........a	-327.74
	42	0.0215	4.56874E-001	3.39047E-006	0.00000E+000	4.58000E-001	-7.29272E-004	10	..........a	-327.74
	49	0.025	4.49741E-001	3.22337E-006	0.00000E+000	4.51000E-001	-8.29272E-004	10	..........a	-327.74
	56	0.0285	4.42874E-001	2.38788E-006	0.00000E+000	4.44000E-001	-8.29272E-004	10	..........a	-327.74
	63	0.032	4.35908E-001	2.22078E-006	0.00000E+000	4.37000E-001	-8.29272E-004	10	..........a	-327.74
	70	0.0355	4.28874E-001	-4.52805E-007	0.00000E+000	4.30000E-001	-8.29272E-004	10	..........a	-327.74
	77	0.039	4.21791E-001	1.71948E-006	0.00000E+000	4.23000E-001	-8.29272E-004	10	..........a	-327.74
	84	0.0425	4.14858E-001	-2.85706E-007	0.00000E+000	4.16000E-001	-8.62605E-004	10	..........a	-327.74
	91	0.046	4.07941E-001	-9.54102E-007	0.00000E+000	4.09000E-001	-7.95939E-004	10	..........a	-327.74
	98	0.0495	4.00958E-001	-1.12120E-006	0.00000E+000	4.02000E-001	-8.29272E-004	10	..........a	-327.74
	105	0.053	3.93824E-001	-3.79478E-006	0.00000E+000	3.95000E-001	-5.62606E-004	10	..........a	-327.74
	112	0.0565	3.86924E-001	-4.46318E-006	0.00000E+000	3.88000E-001	-8.95939E-004	10	..........a	-327.74
	119	0.06	3.79824E-001	-5.13158E-006	0.00000E+000	3.81000E-001	-8.29272E-004	10	..........a	-327.74
	126	0.0635	3.72874E-001	-7.47096E-006	0.00000E+000	3.74000E-001	-6.62606E-004	10	..........a	-327.74
	133	0.067	3.65908E-001	-8.64066E-006	0.00000E+000	3.67000E-001	-6.95939E-004	10	..........a	-327.74
	140	0.0705	3.59041E-001	-6.46837E-006	0.00000E+000	3.60000E-001	-8.29272E-004	10	..........a	-327.74
	147	0.074	3.51808E-001	-8.64066E-006	0.00000E+000	3.53000E-001	-8.29272E-004	10	..........a	-327.74
	154	0.0775	3.44891E-001	-9.64325E-006	0.00000E+000	3.46000E-001	-7.95939E-004	10	..........a	-327.74
	161	0.081	3.38041E-001	-9.30905E-006	0.00000E+000	3.39000E-001	-7.95939E-004	10	..........a	-327.74
	168	0.0845	3.30891E-001	-9.14195E-006	0.00000E+000	3.32000E-001	-8.29272E-004	10	..........a	-327.74
	175	0.088	3.23824E-001	-1.03116E-005	0.00000E+000	3.25000E-001	-7.62605E-004	10	..........a	-327.74
	182	0.0915	3.16858E-001	-1.03116E-005	0.00000E+000	3.18000E-001	-8.95939E-004	10	..........a	-327.74
	189	0.095	3.09908E-001	-1.08129E-005	0.00000E+000	3.11000E-001	-8.29272E-004	10	..........a	-327.74
	196	0.0985	3.02941E-001	-1.01445E-005	0.00000E+000	3.04000E-001	-7.62605E-004	10	..........a	-327.74
	203	0.102	2.96041E-001	-1.04787E-005	0.00000E+000	2.97000E-001	-7.95939E-004	10	..........a	-327.74
	210	0.1055	2.88891E-001	-1.03116E-005	0.00000E+000	2.90000E-001	-7.62605E-004	10	..........a	-327.74
	217	0.109	2.81891E-001	-1.11471E-005	0.00000E+000	2.83000E-001	-8.29272E-004	10	..........a	-327.74
	224	0.1125	2.74891E-001	-1.09800E-005	0.00000E+000	2.76000E-001	-8.29272E-004	10	..........a	-327.74
	231	0.116	2.67941E-001	-1.14813E-005	0.00000E+000	2.69000E-001	-6.95939E-004	10	..........a	-327.74
	238	0.1195	2.60891E-001	-1.19826E-005	0.00000E+000	2.62000E-001	-7.95939E-004	10	..........a	-327.74
	245	0.123	2.54091E-001	-1.14813E-005	0.00000E+000	2.55000E-001	-7.95939E-004	10	..........a	-327.74
	252	0.1265	2.46941E-001	-1.21497E-005	0.00000E+000	2.48000E-001	-7.62605E-004	10	..........a	-327.74
	259	0.13	2.39874E-001	-1.28181E-005	0.00000E+000	2.41000E-001	-8.29272E-004	10	..........a	-327.74
	266	0.1335	2.32908E-001	-1.36536E-005	0.00000E+000	2.34000E-001	-7.95939E-004	10	..........a	-327.74
	273	0.137	2.25924E-001	-1.11471E-005	0.00000E+000	2.27000E-001	-7.29272E-004	10	..........a	-327.74
	280	0.1405	2.18991E-001	-1.18155E-005	0.00000E+000	2.20000E-001	-7.95939E-004	10	..........a	-327.74
	287	0.144	2.12058E-001	-1.26510E-005	0.00000E+000	2.13000E-001	-7.95939E-004	10	..........a	-327.74
	294	0.1475	2.04808E-001	-1.48233E-005	0.00000E+000	2.06000E-001	-8.29272E-004	10	..........a	-327.74
	301	0.151	1.98091E-001	-1.18155E-005	0.00000E+000	1.99000E-001	-7.29272E-004	10	..........a	-327.74
	308	0.1545	1.90891E-001	-1.18155E-005	0.00000E+000	1.92000E-001	-8.29272E-004	10	..........a	-327.74
	315	0.158	1.83924E-001	-1.39878E-005	0.00000E+000	1.85000E-001	-7.62605E-004	10	..........a	-327.74
	322	0.1615	1.77141E-001	-1.28181E-005	0.00000E+000	1.78000E-001	-8.29272E-004	10	..........a	-327.74
	329	0.165	1.70091E-001	-1.23168E-005	0.00000E+000	1.71000E-001	-7.62605E-004	10	..........a	-327.74
	336	0.1685	1.62974E-001	-1.36536E-005	0.00000E+000	1.64000E-001	-8.29272E-004	10	..........a	-327.74
	343	0.172	1.56024E-001	-1.46562E-005	0.00000E+000	1.57000E-001	-7.29272E-004	10	..........a	-327.74
	350	0.1755	1.49074E-001	-1.18155E-005	0.00000E+000	1.50000E-001	-8.29272E-004	10	..........a	-327.74
	357	0.179	1.42074E-001	-1.58259E-005	0.00000E+000	1.43000E-001	-8.29272E-004	10	..........a	-327.74
	364	0.1825	1.34891E-001	-1.53246E-005	0.00000E+000	1.36000E-001	-8.62605E-004	10	..........a	-327.74
	371	0.186	1.28024E-001	-1.54917E-005	0.00000E+000	1.29000E-001	-7.95939E-004	10	..........a	-327.74
	378	0.1895	1.21074E-001	-1.36536E-005	0.00000E+000	1.22000E-001	-8.29272E-004	10	..........a	-327.74
	385	0.193	1.14041E-001	-1.49904E-005	0.00000E+000	1.15000E-001	-7.95939E-004	10	..........a	-327.74
	392	0.1965	1.06941E-001	-1.31523E-005	0.00000E+000	1.08000E-001	-8.29272E-004	10	..........a	-327.74
	399	0.2	1.00124E-001	-1.28181E-005	0.00000E+000	1.01000E-001	-8.29272E-004	10	..........a	-327.74
	406	0.2035	9.28910E-002	-1.38207E-005	0.00000E+000	9.40000E-002	-7.29272E-004	10	..........a	-327.74
	413	0.207	8.60577E-002	-1.38207E-005	0.00000E+000	8.70000E-002	-7.62605E-004	10	..........a	-327.74
	420	0.2105	7.89910E-002	-1.51575E-005	0.00000E+000	8.00000E-002	-8.62605E-004	10	..........a	-327.74
	427	0.214	7.20077E-002	-1.48233E-005	0.00000E+000	7.30000E-002	-8.29272E-004	10	..........a	-327.74
	434	0.2175	6.52743E-002	-1.41549E-005	0.00000E+000	6.60000E-002	-6.29272E-004	10	..........a	-327.74
	441	0.221	5.79243E-002	-1.58259E-005	0.00000E+000	5.90000E-002	-7.62605E-004	10	..........a	-327.74
	448	0.2245	5.10077E-002	-1.41549E-005	0.00000E+000	5.20000E-002	-8.29272E-004	10	..........a	-327.74
	455	0.228	4.41243E-002	-1.51575E-005	0.00000E+000	4.50000E-002	-7.95939E-004	10	..........a	-327.74
	462	0.2315	3.70410E-002	-1.34865E-005	0.00000E+000	3.80000E-002	-6.62606E-004	10	..........a	-327.74
	469	0.235	3.00577E-002	-1.54917E-005	0.00000E+000	3.10000E-002	-7.95939E-004	10	..........a	-327.74
	476	0.2385	2.31243E-002	-1.54917E-005	0.00000E+000	2.40000E-002	-8.62605E-004	10	..........a	-327.74
	483	0.242	1.60910E-002	-1.53246E-005	0.00000E+000	1.70000E-002	-7.95939E-004	10	..........a	-327.74
	490	0.2455	9.05767E-003	-1.53246E-005	0.00000E+000	9.99999E-003	-8.29272E-004	10	..........a	-327.74
	497	0.249	2.07434E-003	-1.56588E-005	0.00000E+000	2.99999E-003	-6.95939E-004	10	..........a	-327.74
	504	0.2525	-5.05900E-003	-1.73298E-005	0.00000E+000	-4.00001E-003	-6.95939E-004	10	..........a	-327.74
	511	0.256	-1.19090E-002	-1.49904E-005	0.00000E+000	-1.10000E-002	-8.95939E-004	10	..........a	-327.74
	518	0.2595	-1.89423E-002	-1.49904E-005	0.00000E+000	-1.80000E-002	-9.29272E-004	10	..........a	-327.74
	525	0.263	-2.59090E-002	-1.43220E-005	0.00000E+000	-2.50000E-002	-7.62605E-004	10	..........a	-327.74
	532	0.2665	-3.30423E-002	-1.51575E-005	0.00000E+000	-3.20000E-002	-8.29272E-004	10	..........a	-327.74
	539	0.27	-3.99923E-002	-1.41549E-005	0.00000E+000	-3.90000E-002	-8.29272E-004	10	..........a	-327.74
	546	0.2735	-4.69090E-002	-1.56588E-005	0.00000E+000	-4.60000E-002	-8.95939E-004	10	..........a	-327.74
	553	0.277	-5.39257E-002	-1.58259E-005	0.00000E+000	-5.30000E-002	-8.29272E-004	10	..........a	-327.74
	560	0.2805	-6.10423E-002	-1.58259E-005	0.00000E+000	-6.00000E-002	-7.95939E-004	10	..........a	-327.74
	567	0.284	-6.79257E-002	-1.63272E-005	0.00000E+000	-6.70000E-002	-8.29272E-004	10	..........a	-327.74
	574	0.2875	-7.50423E-002	-1.63272E-005	0.00000E+000	-7.40000E-002	-8.29272E-004	10	..........a	-327.74
	581	0.291	-8.19090E-002	-1.64943E-005	0.00000E+000	-8.10000E-002	-7.95939E-004	10	..........a	-327.74
	588	0.2945	-8.91257E-002	-1.56588E-005	0.00000E+000	-8.80000E-002	-7.95939E-004	10	..........a	-327.74
	595	0.298	-9.60757E-002	-1.48233E-005	0.00000E+000	-9.50000E-002	-8.29272E-004	10	..........a	-327.74
	602	0.3015	-1.02776E-001	-1.73298E-005	0.00000E+000	-1.02000E-001	-6.95939E-004	10	..........a	-327.74
	609	0.305	-1.09976E-001	-1.76640E-005	0.00000E+000	-1.09000E-001	-8.62605E-004	10	..........a	-327.74
	616	0.3085	-1.17009E-001	-1.53246E-005	0.00000E+000	-1.16000E-001	-8.29272E-004	10	..........a	-327.74
	623	0.312	-1.23876E-001	-1.58259E-005	0.00000E+000	-1.23000E-001	-7.95939E-004	10	..........a	-327.74
	630	0.3155	-1.30859E-001	-1.58259E-005	0.00000E+000	-1.30000E-001	-7.95939E-004	10	..........a	-327.74
	637	0.319	-1.37926E-001	-1.84995E-005	0.00000E+000	-1.37000E-001	-8.29272E-004	10	..........a	-327.74
	644	0.3225	-1.44926E-001	-1.64943E-005	0.00000E+000	-1.44000E-001	-6.95939E-004	10	..........a	-327.74
	651	0.326	-1.51909E-001	-1.48233E-005	0.00000E+000	-1.51000E-001	-8.29272E-004	10	..........a	-327.74
	658	0.3295	-1.58859E-001	-1.63272E-005	0.00000E+000	-1.58000E-001	-7.95939E-004	10	..........a	-327.74
	665	0.333	-1.65942E-001	-1.68285E-005	0.00000E+000	-1.65000E-001	-7.62605E-004	10	..........a	-327.74
	672	0.3365	-1.72976E-001	-1.69956E-005	0.00000E+000	-1.72000E-001	-8.29272E-004	10	..........a	-327.74
	679	0.34	-1.79859E-001	-1.66614E-005	0.00000E+000	-1.79000E-001	-6.29272E-004	10	..........a	-327.74
	686	0.3435	-1.86976E-001	-1.78311E-005	0.00000E+000	-1.86000E-001	-7.62605E-004	10	..........a	-327.74
	693	0.347	-1.93959E-001	-1.64943E-005	0.00000E+000	-1.93000E-001	-8.62605E-004	10	..........a	-327.74
	700	0.3505	-2.00892E-001	-1.73298E-005	0.00000E+000	-2.00000E-001	-7.62605E-004	10	..........a	-327.74
	707	0.354	-2.07976E-001	-1.78311E-005	0.00000E+000	-2.07000E-001	-8.29272E-004	10	..........a	-327.74
	714	0.3575	-2.14842E-001	-1.83324E-005	0.00000E+000	-2.14000E-001	-7.29272E-004	10	..........a	-327.74
	721	0.361	-2.21909E-001	-1.81653E-005	0.00000E+000	-2.21000E-001	-7.62605E-004	10	..........a	-327.74
	728	0.3645	-2.28926E-001	-1.96692E-005	0.00000E+000	-2.28000E-001	-8.95939E-004	10	..........a	-327.74
	735	0.368	-2.35792E-001	-1.91679E-005	0.00000E+000	-2.35000E-001	-7.95939E-004	10	..........a	-327.74
	742	0.3715	-2.42842E-001	-1.88337E-005	0.00000E+000	-2.42000E-001	-7.95939E-004	10	..........a	-327.74
	749	0.375	-2.49909E-001	-2.05047E-005	0.00000E+000	-2.49000E-001	-7.95939E-004	10	..........a	-327.74
	756	0.3785	-2.56842E-001	-2.00034E-005	0.00000E+000	-2.56000E-001	-8.62605E-004	10	..........a	-327.74
	763	0.382	-2.63842E-001	-2.15073E-005	0.00000E+000	-2.63000E-001	-8.29272E-004	10	..........a	-327.74
	770	0.3855	-2.70909E-001	-2.31783E-005	0.00000E+000	-2.70000E-001	-6.95939E-004	10	..........a	-327.74
	777	0.389	-2.77909E-001	-2.45151E-005	0.00000E+000	-2.77000E-001	-6.95939E-004	10	..........a	-327.74
	784	0.3925	-2.84859E-001	-2.31783E-005	0.00000E+000	-2.84000E-001	-6.95939E-004	10	..........a	-327.74
	791	0.396	-2.91609E-001	-2.33454E-005	0.00000E+000	-2.91000E-001	-8.62605E-004	10	..........a	-327.74
	798	0.3995	-2.98742E-001	-2.55177E-005	0.00000E+000	-2.98000E-001	-7.95939E-004	10	..........a	-327.74
	805	0.403	-3.05909E-001	-2.81912E-005	0.00000E+000	-3.05000E-001	-8.95939E-004	10	..........a	-327.74
	812	0.4065	-3.12909E-001	-2.83583E-005	0.00000E+000	-3.12000E-001	-9.62605E-004	10	..........a	-327.74
	819	0.41	-3.19876E-001	-3.00293E-005	0.00000E+000	-3.19000E-001	-7.62605E-004	10	..........a	-327.74
	826	0.4135	-3.26826E-001	-3.08648E-005	0.00000E+000	-3.26000E-001	-8.29272E-004	10	..........a	-327.74
	833	0.417	-3.33926E-001	-3.01964E-005	0.00000E+000	-3.33000E-001	-8.62605E-004	10	..........a	-327.74
	840	0.4205	-3.40776E-001	-3.20345E-005	0.00000E+000	-3.40000E-001	-8.29272E-004	10	..........a	-327.74
	847	0.424	-3.47876E-001	-3.53765E-005	0.00000E+000	-3.47000E-001	-7.62605E-004	10	..........a	-327.74
	854	0.4275	-3.54942E-001	-3.60449E-005	0.00000E+000	-3.54000E-001	-6.95939E-004	10	..........a	-327.74
	861	0.431	-3.61842E-001	-3.65462E-005	0.00000E+000	-3.61000E-001	-6.29272E-004	10	..........a	-327.74
	868	0.4345	-3.68926E-001	-3.92198E-005	0.00000E+000	-3.68000E-001	-8.95939E-004	10	..........a	-327.74
	875	0.438	-3.75909E-001	-4.27289E-005	0.00000E+000	-3.75000E-001	-8.29272E-004	10	..........a	-327.74
	882	0.4415	-3.82742E-001	-4.49011E-005	0.00000E+000	-3.82000E-001	-8.29272E-004	10	..........a	-327.74
	889	0.445	-3.89842E-001	-5.02483E-005	0.00000E+000	-3.89000E-001	-8.29272E-004	10	..........a	-327.74
	896	0.4485	-3.96792E-001	-5.42587E-005	0.00000E+000	-3.96000E-001	-7.95939E-004	10	..........a	-327.74
	903	0.452	-4.03859E-001	-5.86033E-005	0.00000E+000	-4.03000E-001	-7.62605E-004	10	..........a	-327.74
	910	0.4555	-4.10709E-001	-6.41175E-005	0.00000E+000	-4.10000E-001	-7.95939E-004	10	..........a	-327.74
	917	0.459	-4.17842E-001	-7.03002E-005	0.00000E+000	-4.17000E-001	-6.29272E-004	10	..........a	-327.74
	924	0.4625	-4.24809E-001	-7.88222E-005	0.00000E+000	-4.24000E-001	-7.62605E-004	10	..........a	-327.74
	931	0.466	-4.31792E-001	-9.10205E-005	0.00000E+000	-4.31000E-001	-7.95939E-004	10	..........a	-327.74
	938	0.4695	-4.38742E-001	-1.01882E-004	0.00000E+000	-4.38000E-001	-7.29272E-004	10	..........a	-327.74
	945	0.473	-4.45692E-001	-1.16085E-004	0.00000E+000	-4.45000E-001	-7.95939E-004	10	..........a	-327.74
	952	0.4765	-4.52776E-001	-1.34968E-004	0.00000E+000	-4.52000E-001	-6.95939E-004	10	..........a	-327.74
	959	0.48	-4.59709E-001	-1.56022E-004	0.00000E+000	-4.59000E-001	-7.62605E-004	10	..........a	-327.74
	966	0.4835	-4.66709E-001	-1.83426E-004	0.00000E+000	-4.66000E-001	-8.29272E-004	10	..........a	-327.74
	973	0.487	-4.73892E-001	-2.18684E-004	0.00000E+000	-4.73000E-001	-8.29272E-004	10	..........a	-327.74
	980	0.4905	-4.80859E-001	-2.58287E-004	0.00000E+000	-4.80000E-001	-8.29272E-004	10	..........a	-327.74
	987	0.494	-4.87909E-001	-3.09586E-004	0.00000E+000	-4.87000E-001	-8.29272E-004	10	..........a	-327.74
	994	0.4975	-4.94709E-001	-3.66400E-004	0.00000E+000	-4.94000E-001	-8.62605E-004	10	..........a	-327.74
	1001	0.501	-5.01842E-001	-4.34409E-004	0.00000E+000	-5.01000E-001	-6.62606E-004	10	..........a	-327.74
	1008	0.5045	-5.08892E-001	-5.09603E-004	0.00000E+000	-5.08000E-001	-7.62605E-004	10	..........a	-327.74
	1015	0.508	-5.15759E-001	-5.92652E-004	0.00000E+000	-5.15000E-001	-8.29272E-004	10	..........a	-327.74
	1022	0.5115	-5.22709E-001	-6.80379E-004	0.00000E+000	-5.22000E-001	-8.29272E-004	10	..........a	-327.74
	1029	0.515	-5.29826E-001	-7.70278E-004	0.00000E+000	-5.29000E-001	-8.29272E-004	10	..........a	-327.74
	1036	0.5185	-5.36709E-001	-8.57504E-004	0.00000E+000	-5.36000E-001	-7.95939E-004	10	..........a	-327.74
	1043	0.522	-5.43909E-001	-9.41721E-004	0.00000E+000	-5.43000E-001	-8.29272E-004	10	..........a	-327.74
	1050	0.5255	-5.50776E-001	-1.01541E-003	0.00000E+000	-5.50000E-001	-7.62605E-004	10	..........a	-327.74
	1057	0.529	-5.57876E-001	-1.08208E-003	0.00000E+000	-5.57000E-001	-5.95939E-004	10	..........a	-327.74
	1064	0.5325	-5.64726E-001	-1.13439E-003	0.00000E+000	-5.64000E-001	-5.95939E-004	10	..........a	-327.74
	1071	0.536	-5.71726E-001	-1.17466E-003	0.00000E+000	-5.71000E-001	-6.95939E-004	10	..........a	-327.74
	1078	0.5395	-5.78776E-001	-1.19488E-003	0.00000E+000	-5.78000E-001	-8.29272E-004	10	..........a	-327.74
	1085	0.543	-5.85676E-001	-1.19638E-003	0.00000E+000	-5.85000E-001	-7.95939E-004	10	..........a	-327.74
	1092	0.5465	-5.92742E-001	-1.17650E-003	0.00000E+000	-5.92000E-001	-7.29272E-004	10	..........a	-327.74
	1099	0.55	-5.99876E-001	-1.13706E-003	0.00000E+000	-5.99000E-001	-7.62605E-004	10	..........a	-327.74
	1106	0.5535	-6.06726E-001	-1.08726E-003	0.00000E+000	-6.06000E-001	-7.29272E-004	10	..........a	-327.74
	1113	0.557	-6.13709E-001	-1.03396E-003	0.00000E+000	-6.13000E-001	-7.95939E-004	10	..........a	-327.74
	1120	0.5605	-6.20726E-001	-9.81491E-004	0.00000E+000	-6.20000E-001	-7.95939E-004	10	..........a	-327.74
	1127	0.564	-6.27676E-001	-9.33199E-004	0.00000E+000	-6.27000E-001	-7.95939E-004	10	..........a	-327.74
	1134	0.5675	-6.34709E-001	-8.92427E-004	0.00000E+000	-6.34000E-001	-8.29272E-004	10	..........a	-327.74
	1141	0.571	-6.41626E-001	-8.56334E-004	0.00000E+000	-6.41000E-001	-8.62605E-004	10	..........a	-327.74
	1148	0.5745	-6.48709E-001	-8.24919E-004	0.00000E+000	-6.48000E-001	-8.62605E-004	10	..........a	-327.74
	1155	0.578	-6.55826E-001	-7.95343E-004	0.00000E+000	-6.55000E-001	-6.29272E-004	10	..........a	-327.74
	1162	0.5815	-6.62742E-001	-7.70111E-004	0.00000E+000	-6.62000E-001	-8.95939E-004	10	..........a	-327.74
	1169	0.585	-6.69742E-001	-7.47887E-004	0.00000E+000	-6.69000E-001	-7.95939E-004	10	..........a	-327.74
	1176	0.5885	-6.76776E-001	-7.24159E-004	0.00000E+000	-6.76000E-001	-7.95939E-004	10	..........a	-327.74
	1183	0.592	-6.83709E-001	-7.07950E-004	0.00000E+000	-6.83000E-001	-8.29272E-004	10	..........a	-327.74
	1190	0.5955	-6.90742E-001	-6.88065E-004	0.00000E+000	-6.90000E-001	-7.29272E-004	10	..........a	-327.74
	1197	0.599	-6.97709E-001	-6.73528E-004	0.00000E+000	-6.97000E-001	-8.29272E-004	10	..........a	-327.74
	1204	0.6025	-7.04726E-001	-6.56316E-004	0.00000E+000	-7.04000E-001	-7.62605E-004	10	..........a	-327.74
	1211	0.606	-7.11592E-001	-6.41946E-004	0.00000E+000	-7.11000E-001	-8.29272E-004	10	..........a	-327.74
	1218	0.6095	-7.18726E-001	-6.27575E-004	0.00000E+000	-7.18000E-001	-8.29272E-004	10	..........a	-327.74
	1225	0.613	-7.25726E-001	-6.14040E-004	0.00000E+000	-7.25000E-001	-7.95939E-004	10	..........a	-327.74
	1232	0.6165	-7.32759E-001	-6.02678E-004	0.00000E+000	-7.32000E-001	-8.95939E-004	10	..........a	-327.74
	1239	0.62	-7.39642E-001	-5.91148E-004	0.00000E+000	-7.39000E-001	-7.95939E-004	10	..........a	-327.74
	1246	0.6235	-7.46709E-001	-5.80286E-004	0.00000E+000	-7.46000E-001	-7.62605E-004	10	..........a	-327.74
	1253	0.627	-7.53776E-001	-5.67587E-004	0.00000E+000	-7.53000E-001	-8.29272E-004	10	..........a	-327.74
	1260	0.6305	-7.60659E-001	-5.57561E-004	0.00000E+000	-7.60000E-001	-8.95939E-004	10	..........a	-327.74
	1267	0.634	-7.67592E-001	-5.48872E-004	0.00000E+000	-7.67000E-001	-6.29272E-004	10	..........a	-327.74
	1274	0.6375	-7.74576E-001	-5.38010E-004	0.00000E+000	-7.74000E-001	-8.29272E-004	10	..........a	-327.74
	1281	0.641	-7.81659E-001	-5.32162E-004	0.00000E+000	-7.81000E-001	-7.95939E-004	10	..........a	-327.74
	1288	0.6445	-7.88709E-001	-5.21133E-004	0.00000E+000	-7.88000E-001	-8.95939E-004	10	..........a	-327.74
	1295	0.648	-7.95542E-001	-5.12277E-004	0.00000E+000	-7.95000E-001	-7.95939E-004	10	..........a	-327.74
	1302	0.6515	-8.02659E-001	-5.05259E-004	0.00000E+000	-8.02000E-001	-7.95939E-004	10	..........a	-327.74
	1309	0.655	-8.09709E-001	-4.97405E-004	0.00000E+000	-8.09000E-001	-7.62605E-004	10	..........a	-327.74
	1316	0.6585	-8.16692E-001	-4.91891E-004	0.00000E+000	-8.16000E-001	-8.29272E-004	10	..........a	-327.74
	1323	0.662	-8.23576E-001	-4.84037E-004	0.00000E+000	-8.23000E-001	-8.29272E-004	10	..........a	-327.74
	1330	0.6655	-8.30576E-001	-4.79024E-004	0.00000E+000	-8.30000E-001	-8.29272E-004	10	..........a	-327.74
	1337	0.669	-8.37626E-001	-4.70669E-004	0.00000E+000	-8.37000E-001	-8.29272E-004	10	..........a	-327.74
	1344	0.6725	-8.44592E-001	-4.63818E-004	0.00000E+000	-8.44000E-001	-8.95939E-004	10	..........a	-327.74
	1351	0.676	-8.51509E-001	-4.60978E-004	0.00000E+000	-8.51000E-001	-8.29272E-004	10	..........a	-327.74
	1358	0.6795	-8.58726E-001	-4.53792E-004	0.00000E+000	-8.58000E-001	-8.95939E-004	10	..........a	-327.74
	1365	0.683	-8.65542E-001	-4.47777E-004	0.00000E+000	-8.65000E-001	-8.29272E-004	10	..........a	-327.74
	1372	0.6865	-8.72342E-001	-4.42931E-004	0.00000E+000	-8.72000E-001	-7.29272E-004	10	..........a	-327.74
	1379	0.69	-8.79776E-001	-4.39589E-004	0.00000E+000	-8.79000E-001	-7.95939E-004	10	..........a	-327.74
	1386	0.6935	-8.86659E-001	-4.33239E-004	0.00000E+000	-8.86000E-001	-8.62605E-004	10	..........a	-327.74
	1393	0.697	-8.93559E-001	-4.29229E-004	0.00000E+000	-8.93000E-001	-7.95939E-004	10	..........a	-327.74
	1400	0.7005	-9.00659E-001	-4.23882E-004	0.00000E+000	-9.00000E-001	-8.29272E-004	10	..........a	-327.74
	1407	0.704	-9.07442E-001	-4.19370E-004	0.00000E+000	-9.07000E-001	-7.29272E-004	10	..........a	-327.74
	1414	0.7075	-9.14709E-001	-4.16028E-004	0.00000E+000	-9.14000E-001	-8.29272E-004	10	..........a	-327.74
	1421	0.711	-9.21509E-001	-4.10514E-004	0.00000E+000	-9.21000E-001	-8.29272E-004	10	..........a	-327.74
	1428	0.7145	-9.28526E-001	-4.05835E-004	0.00000E+000	-9.28000E-001	-8.62605E-004	10	..........a	-327.74
	1435	0.718	-9.35559E-001	-4.02159E-004	0.00000E+000	-9.35000E-001	-7.62605E-004	10	..........a	-327.74
	1442	0.7215	-9.42492E-001	-4.00321E-004	0.00000E+000	-9.42000E-001	-8.29272E-004	10	..........a	-327.74
	1449	0.725	-9.49542E-001	-3.95308E-004	0.00000E+000	-9.49000E-001	-8.95939E-004	10	..........a	-327.74
	1456	0.7285	-9.56709E-001	-3.91799E-004	0.00000E+000	-9.56000E-001	-7.29272E-004	10	..........a	-327.74
	1463	0.732	-9.63542E-001	-3.86786E-004	0.00000E+000	-9.63000E-001	-8.29272E-004	10	..........a	-327.74
	1470	0.7355	-9.70609E-001	-3.85616E-004	0.00000E+000	-9.70000E-001	-8.29272E-004	10	..........a	-327.74
	1477	0.739	-9.77526E-001	-3.82107E-004	0.00000E+000	-9.77000E-001	-7.62605E-004	10	..........a	-327.74
	1484	0.7425	-9.84326E-001	-3.81439E-004	0.00000E+000	-9.84000E-001	-8.29272E-004	10	..........a	-327.74
	1491	0.746	-9.91609E-001	-3.78264E-004	0.00000E+000	-9.91000E-001	-7.95939E-004	10	..........a	-327.74
	1498	0.7495	-9.98592E-001	-3.74755E-004	0.00000E+000	-9.98000E-001	-8.29272E-004	10	..........a	-327.74
	1505	0.753	-9.95526E-001	-3.47517E-004	0.00000E+000	-9.95000E-001	-8.95939E-004	10	..........a	-327.74
	1512	0.7565	-9.88676E-001	-3.32311E-004	0.00000E+000	-9.88000E-001	-8.62605E-004	10	..........a	-327.74
	1519	0.76	-9.81576E-001	-3.23455E-004	0.00000E+000	-9.81000E-001	-8.29272E-004	10	..........a	-327.74
	1526	0.7635	-9.74709E-001	-3.13095E-004	0.00000E+000	-9.74000E-001	-7.29272E-004	10	..........a	-327.74
	1533	0.767	-9.67526E-001	-3.06745E-004	0.00000E+000	-9.67000E-001	-8.62605E-004	10	..........a	-327.74
	1540	0.7705	-9.60559E-001	-3.01064E-004	0.00000E+000	-9.60000E-001	-6.95939E-004	10	..........a	-327.74
	1547	0.774	-9.53526E-001	-2.97555E-004	0.00000E+000	-9.53000E-001	-8.29272E-004	10	..........a	-327.74
	1554	0.7775	-9.46459E-001	-2.91539E-004	0.00000E+000	-9.46000E-001	-8.29272E-004	10	..........a	-327.74
	1561	0.781	-9.39526E-001	-2.84688E-004	0.00000E+000	-9.39000E-001	-8.29272E-004	10	..........a	-327.74
	1568	0.7845	-9.32709E-001	-2.82850E-004	0.00000E+000	-9.32000E-001	-7.95939E-004	10	..........a	-327.74
	1575	0.788	-9.25509E-001	-2.78338E-004	0.00000E+000	-9.25000E-001	-6.29272E-004	10	..........a	-327.74
	1582	0.7915	-9.18626E-001	-2.77169E-004	0.00000E+000	-9.18000E-001	-8.29272E-004	10	..........a	-327.74
	1589	0.795	-9.11559E-001	-2.72156E-004	0.00000E+000	-9.11000E-001	-7.62605E-004	10	..........a	-327.74
	1596	0.7985	-9.04326E-001	-2.69315E-004	0.00000E+000	-9.04000E-001	-8.29272E-004	10	..........a	-327.74
	1603	0.802	-8.97542E-001	-2.67477E-004	0.00000E+000	-8.97000E-001	-6.62606E-004	10	..........a	-327.74
	1610	0.8055	-8.90659E-001	-2.60793E-004	0.00000E+000	-8.90000E-001	-7.62605E-004	10	..........a	-327.74
	1617	0.809	-8.83592E-001	-2.60626E-004	0.00000E+000	-8.83000E-001	-7.95939E-004	10	..........a	-327.74
	1624	0.8125	-8.76709E-001	-2.57451E-004	0.00000E+000	-8.76000E-001	-7.62605E-004	10	..........a	-327.74
	1631	0.816	-8.69509E-001	-2.55279E-004	0.00000E+000	-8.69000E-001	-8.29272E-004	10	..........a	-327.74
	1638	0.8195	-8.62559E-001	-2.52104E-004	0.00000E+000	-8.62000E-001	-7.95939E-004	10	..........a	-327.74
	1645	0.823	-8.55642E-001	-2.49430E-004	0.00000E+000	-8.55000E-001	-6.95939E-004	10	..........a	-327.74
	1652	0.8265	-8.48442E-001	-2.47425E-004	0.00000E+000	-8.48000E-001	-7.62605E-004	10	..........a	-327.74
	1659	0.83	-8.41709E-001	-2.45086E-004	0.00000E+000	-8.41000E-001	-8.29272E-004	10	..........a	-327.74
	1666	0.8335	-8.34659E-001	-2.43081E-004	0.00000E+000	-8.34000E-001	-8.29272E-004	10	..........a	-327.74
	1673	0.837	-8.27576E-001	-2.41911E-004	0.00000E+000	-8.27000E-001	-7.95939E-004	10	..........a	-327.74
	1680	0.8405	-8.20709E-001	-2.41410E-004	0.00000E+000	-8.20000E-001	-7.95939E-004	10	..........a	-327.74
	1687	0.844	-8.13609E-001	-2.35060E-004	0.00000E+000	-8.13000E-001	-6.95939E-004	10	..........a	-327.74
	1694	0.8475	-8.06742E-001	-2.34559E-004	0.00000E+000	-8.06000E-001	-6.62606E-004	10	..........a	-327.74
	1701	0.851	-7.99609E-001	-2.32386E-004	0.00000E+000	-7.99000E-001	-8.29272E-004	10	..........a	-327.74
	1708	0.8545	-7.92676E-001	-2.30047E-004	0.00000E+000	-7.92000E-001	-8.62605E-004	10	..........a	-327.74
	1715	0.858	-7.85692E-001	-2.27875E-004	0.00000E+000	-7.85000E-001	-8.29272E-004	10	..........a	-327.74
	1722	0.8615	-7.78709E-001	-2.27206E-004	0.00000E+000	-7.78000E-001	-8.95939E-004	10	..........a	-327.74
	1729	0.865	-7.71509E-001	-2.24031E-004	0.00000E+000	-7.71000E-001	-6.95939E-004	10	..........a	-327.74
	1736	0.8685	-7.64659E-001	-2.22527E-004	0.00000E+000	-7.64000E-001	-7.62605E-004	10	..........a	-327.74
	1743	0.872	-7.57759E-001	-2.19687E-004	0.00000E+000	-7.57000E-001	-7.62605E-004	10	..........a	-327.74
	1750	0.8755	-7.50626E-001	-2.16679E-004	0.00000E+000	-7.50000E-001	-6.62606E-004	10	..........a	-327.74
	1757	0.879	-7.43842E-001	-2.17013E-004	0.00000E+000	-7.43000E-001	-8.62605E-004	10	..........a	-327.74
	1764	0.8825	-7.36726E-001	-2.14172E-004	0.00000E+000	-7.36000E-001	-7.29272E-004	10	..........a	-327.74
	1771	0.886	-7.29659E-001	-2.11666E-004	0.00000E+000	-7.29000E-001	-8.29272E-004	10	..........a	-327.74
	1778	0.8895	-7.22726E-001	-2.10162E-004	0.00000E+000	-7.22000E-001	-7.95939E-004	10	..........a	-327.74
	1785	0.893	-7.15559E-001	-2.07321E-004	0.00000E+000	-7.15000E-001	-8.29272E-004	10	..........a	-327.74
	1792	0.8965	-7.08742E-001	-2.06820E-004	0.00000E+000	-7.08000E-001	-8.29272E-004	10	..........a	-327.74
	1799	0.9	-7.01709E-001	-2.02475E-004	0.00000E+000	-7.01000E-001	-8.29272E-004	10	..........a	-327.74
	1806	0.9035	-6.94709E-001	-2.00303E-004	0.00000E+000	-6.94000E-001	-8.95939E-004	10	..........a	-327.74
	1813	0.907	-6.87742E-001	-1.94789E-004	0.00000E+000	-6.87000E-001	-7.62605E-004	10	..........a	-327.74
	1820	0.9105	-6.80709E-001	-1.92951E-004	0.00000E+000	-6.80000E-001	-8.29272E-004	10	..........a	-327.74
	1827	0.914	-6.73659E-001	-1.88773E-004	0.00000E+000	-6.73000E-001	-7.95939E-004	10	..........a	-327.74
	1834	0.9175	-6.66726E-001	-1.85431E-004	0.00000E+000	-6.66000E-001	-7.29272E-004	10	..........a	-327.74
	1841	0.921	-6.59726E-001	-1.81922E-004	0.00000E+000	-6.59000E-001	-8.29272E-004	10	..........a	-327.74
	1848	0.9245	-6.52726E-001	-1.77076E-004	0.00000E+000	-6.52000E-001	-8.29272E-004	10	..........a	-327.74
	1855	0.928	-6.45709E-001	-1.69223E-004	0.00000E+000	-6.45000E-001	-8.29272E-004	10	..........a	-327.74
	1862	0.9315	-6.38709E-001	-1.63709E-004	0.00000E+000	-6.38000E-001	-8.95939E-004	10	..........a	-327.74
	1869	0.935	-6.31659E-001	-1.57359E-004	0.00000E+000	-6.31000E-001	-7.95939E-004	10	..........a	-327.74
	1876	0.9385	-6.24642E-001	-1.48335E-004	0.00000E+000	-6.24000E-001	-8.95939E-004	10	..........a	-327.74
	1883	0.942	-6.17726E-001	-1.39312E-004	0.00000E+000	-6.17000E-001	-8.62605E-004	10	..........a	-327.74
	1890	0.9455	-6.10809E-001	-1.26947E-004	0.00000E+000	-6.10000E-001	-7.95939E-004	10	..........a	-327.74
	1897	0.949	-6.03809E-001	-1.12075E-004	0.00000E+000	-6.03000E-001	-8.62605E-004	10	..........a	-327.74
	1904	0.9525	-5.96709E-001	-9.56992E-005	0.00000E+000	-5.96000E-001	-8.29272E-004	10	..........a	-327.74
	1911	0.956	-5.89809E-001	-7.61487E-005	0.00000E+000	-5.89000E-001	-7.95939E-004	10	..........a	-327.74
	1918	0.9595	-5.82709E-001	-4.94128E-005	0.00000E+000	-5.82000E-001	-8.29272E-004	10	..........a	-327.74
	1925	0.963	-5.75842E-001	-1.88337E-005	0.00000E+000	-5.75000E-001	-6.95939E-004	10	..........a	-327.74
	1932	0.9665	-5.68659E-001	1.60900E-005	0.00000E+000	-5.68000E-001	-8.29272E-004	10	..........a	-327.74
	1939	0.97	-5.61776E-001	6.47158E-005	0.00000E+000	-5.61000E-001	-8.29272E-004	10	..........a	-327.74
	1946	0.9735	-5.54809E-001	1.18856E-004	0.00000E+000	-5.54000E-001	-7.95939E-004	10	..........a	-327.74
	1953	0.977	-5.47576E-001	1.87199E-004	0.00000E+000	-5.47000E-001	-8.95939E-004	10	..........a	-327.74
	1960	0.9805	-5.40742E-001	2.69245E-004	0.00000E+000	-5.40000E-001	-7.95939E-004	10	..........a	-327.74
	1967	0.984	-5.33792E-001	3.65494E-004	0.00000E+000	-5.33000E-001	-8.29272E-004	10	..........a	-327.74
	1974	0.9875	-5.26792E-001	4.68928E-004	0.00000E+000	-5.26000E-001	-8.95939E-004	10	..........a	-327.74
	1981	0.991	-5.19859E-001	5.79214E-004	0.00000E+000	-5.19000E-001	-7.95939E-004	10	..........a	-327.74
	1988	0.9945	-5.12742E-001	6.85489E-004	0.00000E+000	-5.12000E-001	-7.62605E-004	10	..........a	-327.74
	1995	0.998	-5.05759E-001	7.78897E-004	0.00000E+000	-5.05000E-001	-8.95939E-004	10	..........a	-327.74
	2002	1.0015	-4.98659E-001	8.53423E-004	0.00000E+000	-4.98000E-001	-8.29272E-004	10	..........a	-327.74
	2009	1.005	-4.91676E-001	9.00879E-004	0.00000E+000	-4.91000E-001	-8.29272E-004	10	..........a	-327.74
	2016	1.0085	-4.84742E-001	9.19761E-004	0.00000E+000	-4.84000E-001	-6.29272E-004	10	..........a	-327.74
	2023	1.012	-4.77909E-001	9.15751E-004	0.00000E+000	-4.77000E-001	-6.95939E-004	10	..........a	-327.74
	2030	1.0155	-4.70776E-001	8.90853E-004	0.00000E+000	-4.70000E-001	-6.95939E-004	10	..........a	-327.74
	2037	1.019	-4.63926E-001	8.53924E-004	0.00000E+000	-4.63000E-001	-8.29272E-004	10	..........a	-327.74
	2044	1.0225	-4.56726E-001	8.10646E-004	0.00000E+000	-4.56000E-001	-7.29272E-004	10	..........a	-327.74
	2051	1.026	-4.49909E-001	7.62521E-004	0.00000E+000	-4.49000E-001	-7.62605E-004	10	..........a	-327.74
	2058	1.0295	-4.42792E-001	7.17237E-004	0.00000E+000	-4.42000E-001	-8.29272E-004	10	..........a	-327.74
	2065	1.033	-4.35792E-001	6.75463E-004	0.00000E+000	-4.35000E-001	-6.95939E-004	10	..........a	-327.74
	2072	1.0365	-4.28776E-001	6.36027E-004	0.00000E+000	-4.28000E-001	-7.62605E-004	10	..........a	-327.74
	2079	1.04	-4.21676E-001	5.98597E-004	0.00000E+000	-4.21000E-001	-8.29272E-004	10	..........a	-327.74
	2086	1.0435	-4.14709E-001	5.66013E-004	0.00000E+000	-4.14000E-001	-8.29272E-004	10	..........a	-327.74
	2093	1.047	-4.07926E-001	5.38441E-004	0.00000E+000	-4.07000E-001	-8.29272E-004	10	..........a	-327.74
	2100	1.0505	-4.00792E-001	5.11706E-004	0.00000E+000	-4.00000E-001	-8.29272E-004	10	..........a	-327.74
	2107	1.054	-3.93792E-001	4.89983E-004	0.00000E+000	-3.93000E-001	-8.62605E-004	10	..........a	-327.74
	2114	1.0575	-3.86792E-001	4.67424E-004	0.00000E+000	-3.86000E-001	-8.29272E-004	10	..........a	-327.74
	2121	1.061	-3.79759E-001	4.48876E-004	0.00000E+000	-3.79000E-001	-7.62605E-004	10	..........a	-327.74
	2128	1.0645	-3.72809E-001	4.33002E-004	0.00000E+000	-3.72000E-001	-8.29272E-004	10	..........a	-327.74
	2135	1.068	-3.65909E-001	4.16793E-004	0.00000E+000	-3.65000E-001	-7.62605E-004	10	..........a	-327.74
	2142	1.0715	-3.58776E-001	4.03760E-004	0.00000E+000	-3.58000E-001	-8.29272E-004	10	..........a	-327.74
	2149	1.075	-3.51909E-001	3.90726E-004	0.00000E+000	-3.51000E-001	-8.95939E-004	10	..........a	-327.74
	2156	1.0785	-3.44859E-001	3.80700E-004	0.00000E+000	-3.44000E-001	-7.95939E-004	10	..........a	-327.74
	2163	1.082	-3.37859E-001	3.65494E-004	0.00000E+000	-3.37000E-001	-8.95939E-004	10	..........a	-327.74
	2170	1.0855	-3.30742E-001	3.57975E-004	0.00000E+000	-3.30000E-001	-8.29272E-004	10	..........a	-327.74
	2177	1.089	-3.23909E-001	3.46278E-004	0.00000E+000	-3.23000E-001	-8.29272E-004	10	..........a	-327.74
	2184	1.0925	-3.16909E-001	3.38591E-004	0.00000E+000	-3.16000E-001	-8.95939E-004	10	..........a	-327.74
	2191	1.096	-3.09926E-001	3.31239E-004	0.00000E+000	-3.09000E-001	-6.95939E-004	10	..........a	-327.74
	2198	1.0995	-3.02776E-001	3.22215E-004	0.00000E+000	-3.02000E-001	-7.62605E-004	10	..........a	-327.74
	2205	1.103	-2.95926E-001	3.14362E-004	0.00000E+000	-2.95000E-001	-7.29272E-004	10	..........a	-327.74
	2212	1.1065	-2.88776E-001	3.08346E-004	0.00000E+000	-2.88000E-001	-8.29272E-004	10	..........a	-327.74
	2219	1.11	-2.81909E-001	2.99156E-004	0.00000E+000	-2.81000E-001	-8.29272E-004	10	..........a	-327.74
	2226	1.1135	-2.74842E-001	2.95145E-004	0.00000E+000	-2.74000E-001	-8.29272E-004	10	..........a	-327.74
	2233	1.117	-2.67842E-001	2.89965E-004	0.00000E+000	-2.67000E-001	-8.29272E-004	10	..........a	-327.74
	2240	1.1205	-2.60992E-001	2.83950E-004	0.00000E+000	-2.60000E-001	-8.29272E-004	10	..........a	-327.74
	2247	1.124	-2.53826E-001	2.78603E-004	0.00000E+000	-2.53000E-001	-7.29272E-004	10	..........a	-327.74
	2254	1.1275	-2.46809E-001	2.74759E-004	0.00000E+000	-2.46000E-001	-7.95939E-004	10	..........a	-327.74
	2261	1.131	-2.39926E-001	2.70080E-004	0.00000E+000	-2.39000E-001	-8.62605E-004	10	..........a	-327.74
	2268	1.1345	-2.32926E-001	2.63229E-004	0.00000E+000	-2.32000E-001	-8.29272E-004	10	..........a	-327.74
	2275	1.138	-2.25909E-001	2.60556E-004	0.00000E+000	-2.25000E-001	-8.29272E-004	10	..........a	-327.74
	2282	1.1415	-2.18876E-001	2.56378E-004	0.00000E+000	-2.18000E-001	-7.95939E-004	10	..........a	-327.74
	2289	1.145	-2.11792E-001	2.52201E-004	0.00000E+000	-2.11000E-001	-7.95939E-004	10	..........a	-327.74
	2296	1.1485	-2.04792E-001	2.48692E-004	0.00000E+000	-2.04000E-001	-7.95939E-004	10	..........a	-327.74
	2303	1.152	-1.97926E-001	2.44013E-004	0.00000E+000	-1.97000E-001	-8.62605E-004	10	..........a	-327.74
	2310	1.1555	-1.90759E-001	2.42008E-004	0.00000E+000	-1.90000E-001	-8.29272E-004	10	..........a	-327.74
	2317	1.159	-1.83926E-001	2.36159E-004	0.00000E+000	-1.83000E-001	-8.95939E-004	10	..........a	-327.74
	2324	1.1625	-1.76776E-001	2.34990E-004	0.00000E+000	-1.76000E-001	-8.29272E-004	10	..........a	-327.74
	2331	1.166	-1.69976E-001	2.30645E-004	0.00000E+000	-1.69000E-001	-7.62605E-004	10	..........a	-327.74
	2338	1.1695	-1.62926E-001	2.28807E-004	0.00000E+000	-1.62000E-001	-8.29272E-004	10	..........a	-327.74
	2345	1.173	-1.55909E-001	2.21622E-004	0.00000E+000	-1.55000E-001	-8.29272E-004	10	..........a	-327.74
	2352	1.1765	-1.49009E-001	2.19951E-004	0.00000E+000	-1.48000E-001	-8.95939E-004	10	..........a	-327.74
	2359	1.18	-1.41926E-001	2.20118E-004	0.00000E+000	-1.41000E-001	-7.62605E-004	10	..........a	-327.74
	2366	1.1835	-1.34926E-001	2.15940E-004	0.00000E+000	-1.34000E-001	-7.62605E-004	10	..........a	-327.74
	2373	1.187	-1.27926E-001	2.13267E-004	0.00000E+000	-1.27000E-001	-7.95939E-004	10	..........a	-327.74
	2380	1.1905	-1.20959E-001	2.10760E-004	0.00000E+000	-1.20000E-001	-7.62605E-004	10	..........a	-327.74
	2387	1.194	-1.13926E-001	2.06750E-004	0.00000E+000	-1.13000E-001	-8.95939E-004	10	..........a	-327.74
	2394	1.1975	-1.06992E-001	2.04076E-004	0.00000E+000	-1.06000E-001	-7.95939E-004	10	..........a	-327.74
	2401	1.201	-9.99090E-002	2.01570E-004	0.00000E+000	-9.90000E-002	-8.95939E-004	10	..........a	-327.74
	2408	1.2045	-9.31090E-002	2.00233E-004	0.00000E+000	-9.20000E-002	-7.62605E-004	10	..........a	-327.74
	2415	1.208	-8.60590E-002	1.96557E-004	0.00000E+000	-8.50000E-002	-8.29272E-004	10	..........a	-327.74
	2422	1.2115	-7.89423E-002	1.95554E-004	0.00000E+000	-7.80000E-002	-7.95939E-004	10	..........a	-327.74
	2429	1.215	-7.19923E-002	1.92547E-004	0.00000E+000	-7.10000E-002	-8.29272E-004	10	..........a	-327.74
	2436	1.2185	-6.50257E-002	1.92379E-004	0.00000E+000	-6.40000E-002	-8.29272E-004	10	..........a	-327.74
	2443	1.222	-5.79757E-002	1.90876E-004	0.00000E+000	-5.70000E-002	-8.29272E-004	10	..........a	-327.74
	2450	1.2255	-5.10423E-002	1.87032E-004	0.00000E+000	-5.00000E-002	-6.95939E-004	10	..........a	-327.74
	2457	1.229	-4.39923E-002	1.84860E-004	0.00000E+000	-4.30000E-002	-6.95939E-004	10	..........a	-327.74
	2464	1.2325	-3.68923E-002	1.82855E-004	0.00000E+000	-3.60000E-002	-6.95939E-004	10	..........a	-327.74
	2471	1.236	-2.99757E-002	1.80181E-004	0.00000E+000	-2.90000E-002	-8.29272E-004	10	..........a	-327.74
	2478	1.2395	-2.28590E-002	1.80014E-004	0.00000E+000	-2.20000E-002	-8.29272E-004	10	..........a	-327.74
	2485	1.243	-1.59090E-002	1.75670E-004	0.00000E+000	-1.50000E-002	-6.95939E-004	10	..........a	-327.74
	2492	1.2465	-9.04233E-003	1.75001E-004	0.00000E+000	-8.00000E-003	-7.95939E-004	10	..........a	-327.74
	2499	1.25	-1.97566E-003	1.73664E-004	0.00000E+000	-1.00000E-003	-8.29272E-004	10	..........a	-327.74
	2506	1.2535	5.00767E-003	1.73163E-004	0.00000E+000	5.99998E-003	-8.29272E-004	10	..........a	-327.74
	2513	1.257	1.20410E-002	1.71826E-004	0.00000E+000	1.30000E-002	-8.29272E-004	10	..........a	-327.74
	2520	1.2605	1.90243E-002	1.69988E-004	0.00000E+000	2.00000E-002	-8.62605E-004	10	..........a	-327.74
	2527	1.264	2.60577E-002	1.67147E-004	0.00000E+000	2.70000E-002	-7.95939E-004	10	..........a	-327.74
	2534	1.2675	3.31743E-002	1.66312E-004	0.00000E+000	3.40000E-002	-8.29272E-004	10	..........a	-327.74
	2541	1.271	4.00743E-002	1.64307E-004	0.00000E+000	4.10000E-002	-8.29272E-004	10	..........a	-327.74
	2548	1.2745	4.71243E-002	1.63638E-004	0.00000E+000	4.80000E-002	-8.29272E-004	10	..........a	-327.74
	2555	1.278	5.40577E-002	1.62135E-004	0.00000E+000	5.50000E-002	-6.95939E-004	10	..........a	-327.74
	2562	1.2815	6.09910E-002	1.58793E-004	0.00000E+000	6.20000E-002	-8.29272E-004	10	..........a	-327.74
	2569	1.285	6.78910E-002	1.58960E-004	0.00000E+000	6.90000E-002	-7.95939E-004	10	..........a	-327.74
	2576	1.2885	7.49910E-002	1.58793E-004	0.00000E+000	7.60000E-002	-6.95939E-004	10	..........a	-327.74
	2583	1.292	8.20243E-002	1.56286E-004	0.00000E+000	8.30000E-002	-8.29272E-004	10	..........a	-327.74
	2590	1.2955	8.90243E-002	1.54949E-004	0.00000E+000	9.00000E-002	-6.95939E-004	10	..........a	-327.74
	2597	1.299	9.60243E-002	1.52777E-004	0.00000E+000	9.70000E-002	-6.62606E-004	10	..........a	-327.74
	2604	1.3025	1.03008E-001	1.52443E-004	0.00000E+000	1.04000E-001	-8.62605E-004	10	..........a	-327.74
	2611	1.306	1.10074E-001	1.50605E-004	0.00000E+000	1.11000E-001	-8.29272E-004	10	..........a	-327.74
	2618	1.3095	1.16891E-001	1.50772E-004	0.00000E+000	1.18000E-001	-7.62605E-004	10	..........a	-327.74
	2625	1.313	1.24091E-001	1.48600E-004	0.00000E+000	1.25000E-001	-8.29272E-004	10	..........a	-327.74
	2632	1.3165	1.31074E-001	1.47263E-004	0.00000E+000	1.32000E-001	-7.62605E-004	10	..........a	-327.74
	2639	1.32	1.37991E-001	1.44756E-004	0.00000E+000	1.39000E-001	-7.29272E-004	10	..........a	-327.74
	2646	1.3235	1.45141E-001	1.44923E-004	0.00000E+000	1.46000E-001	-8.29272E-004	10	..........a	-327.74
	2653	1.327	1.52024E-001	1.43419E-004	0.00000E+000	1.53000E-001	-6.95939E-004	10	..........a	-327.74
	2660	1.3305	1.58991E-001	1.43587E-004	0.00000E+000	1.60000E-001	-7.95939E-004	10	..........a	-327.74
	2667	1.334	1.65941E-001	1.39409E-004	0.00000E+000	1.67000E-001	-7.62605E-004	10	..........a	-327.74
	2674	1.3375	1.72958E-001	1.37738E-004	0.00000E+000	1.74000E-001	-6.95939E-004	10	..........a	-327.74
	2681	1.341	1.80058E-001	1.38072E-004	0.00000E+000	1.81000E-001	-7.62605E-004	10	..........a	-327.74
	2688	1.3445	1.86991E-001	1.36401E-004	0.00000E+000	1.88000E-001	-7.29272E-004	10	..........a	-327.74
	2695	1.348	1.93758E-001	1.34730E-004	0.00000E+000	1.95000E-001	-8.29272E-004	10	..........a	-327.74
	2702	1.3515	2.01008E-001	1.33059E-004	0.00000E+000	2.02000E-001	-8.95939E-004	10	..........a	-327.74
	2709	1.355	2.08074E-001	1.31890E-004	0.00000E+000	2.09000E-001	-7.62605E-004	10	..........a	-327.74
	2716	1.3585	2.14891E-001	1.30720E-004	0.00000E+000	2.16000E-001	-7.95939E-004	10	..........a	-327.74
	2723	1.362	2.22074E-001	1.29884E-004	0.00000E+000	2.23000E-001	-8.29272E-004	10	..........a	-327.74
	2730	1.3655	2.28874E-001	1.27378E-004	0.00000E+000	2.30000E-001	-7.29272E-004	10	..........a	-327.74
	2737	1.369	2.35924E-001	1.28715E-004	0.00000E+000	2.37000E-001	-8.29272E-004	10	..........a	-327.74
	2744	1.3725	2.42891E-001	1.26375E-004	0.00000E+000	2.44000E-001	-7.95939E-004	10	..........a	-327.74
	2751	1.376	2.49891E-001	1.23702E-004	0.00000E+000	2.51000E-001	-8.62605E-004	10	..........a	-327.74
	2758	1.3795	2.56958E-001	1.23702E-004	0.00000E+000	2.58000E-001	-8.95939E-004	10	..........a	-327.74
	2765	1.383	2.63874E-001	1.23033E-004	0.00000E+000	2.65000E-001	-7.62605E-004	10	..........a	-327.74
	2772	1.3865	2.71024E-001	1.20360E-004	0.00000E+000	2.72000E-001	-8.95939E-004	10	..........a	-327.74
	2779	1.39	2.78008E-001	1.21028E-004	0.00000E+000	2.79000E-001	-8.29272E-004	10	..........a	-327.74
	2786	1.3935	2.84874E-001	1.21529E-004	0.00000E+000	2.86000E-001	-6.95939E-004	10	..........a	-327.74
	2793	1.397	2.91874E-001	1.22198E-004	0.00000E+000	2.93000E-001	-8.95939E-004	10	..........a	-327.74
	2800	1.4005	2.98891E-001	1.20527E-004	0.00000E+000	3.00000E-001	-8.95939E-004	10	..........a	-327.74
	2807	1.404	3.05741E-001	1.18522E-004	0.00000E+000	3.07000E-001	-7.95939E-004	10	..........a	-327.74
	2814	1.4075	3.12858E-001	1.18187E-004	0.00000E+000	3.14000E-001	-7.95939E-004	10	..........a	-327.74
	2821	1.411	3.19891E-001	1.17018E-004	0.00000E+000	3.21000E-001	-7.62605E-004	10	..........a	-327.74
	2828	1.4145	3.26874E-001	1.17352E-004	0.00000E+000	3.28000E-001	-7.62605E-004	10	..........a	-327.74
	2835	1.418	3.33991E-001	1.14511E-004	0.00000E+000	3.35000E-001	-8.29272E-004	10	..........a	-327.74
	2842	1.4215	3.40874E-001	1.18187E-004	0.00000E+000	3.42000E-001	-8.29272E-004	10	..........a	-327.74
	2849	1.425	3.47958E-001	1.15514E-004	0.00000E+000	3.49000E-001	-8.29272E-004	10	..........a	-327.74
	2856	1.4285	3.54941E-001	1.14846E-004	0.00000E+000	3.56000E-001	-8.29272E-004	10	..........a	-327.74
	2863	1.432	3.61991E-001	1.12172E-004	0.00000E+000	3.63000E-001	-8.29272E-004	10	..........a	-327.74
	2870	1.4355	3.68858E-001	1.15013E-004	0.00000E+000	3.70000E-001	-8.29272E-004	10	..........a	-327.74
	2877	1.439	3.75758E-001	1.13175E-004	0.00000E+000	3.77000E-001	-8.29272E-004	10	..........a	-327.74
	2884	1.4425	3.82874E-001	1.12172E-004	0.00000E+000	3.84000E-001	-6.95939E-004	10	..........a	-327.74
	2891	1.446	3.89974E-001	1.11838E-004	0.00000E+000	3.91000E-001	-7.95939E-004	10	..........a	-327.74
	2898	1.4495	3.96891E-001	1.10000E-004	0.00000E+000	3.98000E-001	-6.29272E-004	10	..........a	-327.74
	2905	1.453	4.03891E-001	1.10000E-004	0.00000E+000	4.05000E-001	-8.29272E-004	10	..........a	-327.74
	2912	1.4565	4.10858E-001	1.11336E-004	0.00000E+000	4.12000E-001	-8.29272E-004	10	..........a	-327.74
	2919	1.46	4.17791E-001	1.10167E-004	0.00000E+000	4.19000E-001	-7.29272E-004	10	..........a	-327.74
	2926	1.4635	4.24941E-001	1.07159E-004	0.00000E+000	4.26000E-001	-8.95939E-004	10	..........a	-327.74
	2933	1.467	4.31874E-001	1.07827E-004	0.00000E+000	4.33000E-001	-7.29272E-004	10	..........a	-327.74
	2940	1.4705	4.38824E-001	1.06323E-004	0.00000E+000	4.40000E-001	-7.95939E-004	10	..........a	-327.74
	2947	1.474	4.45774E-001	1.05989E-004	0.00000E+000	4.47000E-001	-7.95939E-004	10	..........a	-327.74
	2954	1.4775	4.52758E-001	1.07159E-004	0.00000E+000	4.54000E-001	-6.95939E-004	10	..........a	-327.74
	2961	1.481	4.59924E-001	1.04987E-004	0.00000E+000	4.61000E-001	-8.62605E-004	10	..........a	-327.74
	2968	1.4845	4.66891E-001	1.06658E-004	0.00000E+000	4.68000E-001	-7.62605E-004	10	..........a	-327.74
	2975	1.488	4.73758E-001	1.02647E-004	0.00000E+000	4.75000E-001	-7.95939E-004	10	..........a	-327.74
	2982	1.4915	4.80874E-001	1.02814E-004	0.00000E+000	4.82000E-001	-8.29272E-004	10	..........a	-327.74
	2989	1.495	4.87724E-001	1.03984E-004	0.00000E+000	4.89000E-001	-7.95939E-004	10	..........a	-327.74
	2996	1.4985	4.94891E-001	1.04318E-004	0.00000E+000	4.96000E-001	-8.29272E-004	10	..........a	-327.74
	3000	1.5005	4.98858E-001	1.01812E-004	0.00000E+000	5.00000E-001	-7.95939E-004	10	..........a	-327.74
CURVE2	TABLE
	Pt	T	Vf	Im	Vu	Sig	Ach	IERange	Over	Temp
	#	s	V vs. Ref.	A	V	V	V	#	bits	deg C
	3001	1.501	4.98824E-001	9.99737E-005	0.00000E+000	5.00000E-001	-8.29272E-004	10	..........a	-327.74