File: data/02-SI/Figures_S9_S11_RDE/18btmapaq-rde/1mkcl-5mmolar18btmapaq-nitrogen-rde-2500mvpers-50mvpers.DTA
EXPLAIN
TAG	LSV
TITLE	LABEL	Linear Sweep Voltammetry	Test &Identifier
DATE	LABEL	1/31/2023	Date
TIME	LABEL	15:31:45	Time
NOTES	NOTES	1	&Notes...

PSTAT	PSTAT	REF3000-21108	Potentiostat
VINIT	POTEN	5.00000E-001	F	&Initial E (V)
VFINAL	POTEN	-1.00000E+000	F	&Final E (V)
SCANRATE	QUANT	4.99999E+001	&Scan Rate (mV/s)
STEPSIZE	QUANT	1.00000E-001	St&ep Size (mV)
IMODE	SELECTOR	0	I/E Range &Mode
IRANGE	QUANT	1.00000E+002	&Max Current (mA)
AREA	QUANT	1.00000E+000	Electrode &Area (cm^2)
ELECTRODETYPE	SELECTOR	0	Electrode Type
STRIPPING	TOGGLE	F	Used for Stripping
POLARITY	TOGGLE	F	Signal Polarity
CONDIT	TWOPARAM	F	1.50000E+001	0.00000E+000	Conditionin&g	Time(s)	E(V)
DELAY	TWOPARAM	F	3.00000E+001	0.00000E+000	Init. De&lay	Time(s)	Stab.(mV/s)
EQDELAY	QUANT	0.00000E+000	Equil. &Time (s)
IRCOMP	SELECTOR	0	IRCom&p
PFCOR	QUANT	5.00000E+001	PF Corr. (ohm)
SAMPLINGMODE	SELECTOR	1	Sampling &Mode
EOC	QUANT	0	Open Circuit (V)
PSTATMODEL	IQUANT	5	Pstat Model
PSTATSECTION	LABEL	REF3000-21108	Pstat Section
PSTATSERIALNO	LABEL	21108	Pstat Serial Number
CTRLMODE	IQUANT	1	Control Mode
ELECTROMETER	IQUANT	0	RE=0 or CS=1
IESTAB	IQUANT	2	I/E Stability
CASPEED	IQUANT	4	Control Amp Speed
CONVENTION	IQUANT	1	Current Convention
ICHRANGE	IQUANT	2	Ich Range
ICHRANGEMODE	TOGGLE	F	Ich Auto Range
ICHOFFSETENABLE	TOGGLE	F	Ich Offset Enable
ICHOFFSET	QUANT	0	Ich Offset (V)
ICHFILTER	IQUANT	2	Ich Filter
VCHRANGE	IQUANT	2	Vch Range
VCHRANGEMODE	TOGGLE	T	Vch Auto Range
VCHOFFSETENABLE	TOGGLE	F	Vch Offset Enable
VCHOFFSET	QUANT	0	Vch Offset (V)
VCHFILTER	IQUANT	2	Vch Filter
ACHRANGE	IQUANT	2	Ach Range
ACHOFFSETENABLE	TOGGLE	F	Ach Offset Enable
ACHOFFSET	QUANT	0	Ach Offset (V)
ACHFILTER	IQUANT	0	Ach Filter
IERANGELOWERLIMIT	IQUANT	2	I/E Range Lower Limit
IERANGEMODE	TOGGLE	T	I/E AutoRange
IERANGE	IQUANT	11	I/E Range
POSFEEDENABLE	TOGGLE	F	Positive Feedback IR Comp
POSFEEDRESISTANCE	QUANT	0	Positive Feedback Resistance (ohm)
ACHSELECT	IQUANT	0	Ach Select
SENSECABLEID	IQUANT	14	Sense Cable ID
PWRCABLEID	IQUANT	7	Power Cable ID
DCCALDATE	LABEL	11/9/2022	DC Calibration Date
ACCALDATE	LABEL	11/9/2022	AC Calibration Date
THERMOSELECT	IQUANT	1	Thermo Select
FRAMEWORKVERSION	LABEL	7.8.2	Framework Version
INSTRUMENTVERSION	LABEL	4.40	Instrument Version
COMPLIANCEVOLTAGE	IQUANT	0	Compliance Voltage
CURVE	TABLE	15001
	Pt	T	Vf	Im	Vu	Sig	Ach	IERange	Over	Cycle	Temp
	#	s	V vs. Ref.	A	V	V	V	#	bits	#	deg C
	0	0.002	4.99533E-001	-2.66994E-005	0.00000E+000	5.00000E-001	-7.79272E-004	11	..........a	0	-327.74
	32	0.066	4.95531E-001	1.31067E-005	0.00000E+000	4.96800E-001	-7.87605E-004	8	..........a	0	-327.74
	64	0.13	4.92306E-001	9.39287E-006	0.00000E+000	4.93600E-001	-8.20939E-004	8	..........a	0	-327.74
	96	0.194	4.89152E-001	7.80092E-006	0.00000E+000	4.90400E-001	-8.20939E-004	8	..........a	0	-327.74
	128	0.258	4.85927E-001	6.59560E-006	0.00000E+000	4.87200E-001	-8.04272E-004	8	..........a	0	-327.74
	160	0.322	4.82731E-001	5.75941E-006	0.00000E+000	4.84000E-001	-8.04272E-004	8	..........a	0	-327.74
	192	0.386	4.79493E-001	5.37819E-006	0.00000E+000	4.80800E-001	-8.62605E-004	8	..........a	0	-327.74
	224	0.45	4.76343E-001	5.00364E-006	0.00000E+000	4.77600E-001	-8.37606E-004	8	..........a	0	-327.74
	256	0.514	4.73156E-001	4.84365E-006	0.00000E+000	4.74400E-001	-8.45939E-004	8	..........a	0	-327.74
	288	0.578	4.69952E-001	4.44327E-006	0.00000E+000	4.71200E-001	-8.37606E-004	8	..........a	0	-327.74
	320	0.642	4.66764E-001	4.00247E-006	0.00000E+000	4.68000E-001	-8.45939E-004	8	..........a	0	-327.74
	352	0.706	4.63552E-001	4.06872E-006	0.00000E+000	4.64800E-001	-8.45939E-004	8	..........a	0	-327.74
	384	0.77	4.60347E-001	3.84748E-006	0.00000E+000	4.61600E-001	-8.62605E-004	8	..........a	0	-327.74
	416	0.834	4.57152E-001	3.80832E-006	0.00000E+000	4.58400E-001	-8.70939E-004	8	..........a	0	-327.74
	448	0.898	4.53927E-001	3.55334E-006	0.00000E+000	4.55200E-001	-8.29272E-004	8	..........a	0	-327.74
	480	0.962	4.50752E-001	3.43793E-006	0.00000E+000	4.52000E-001	-8.29272E-004	8	..........a	0	-327.74
	512	1.026	4.47552E-001	3.46377E-006	0.00000E+000	4.48800E-001	-8.45939E-004	8	..........a	0	-327.74
	544	1.09	4.44356E-001	3.20379E-006	0.00000E+000	4.45600E-001	-8.37606E-004	8	..........a	0	-327.74
	576	1.154	4.41147E-001	3.34419E-006	0.00000E+000	4.42400E-001	-8.12605E-004	8	..........a	0	-327.74
	608	1.218	4.37947E-001	2.99839E-006	0.00000E+000	4.39200E-001	-8.37606E-004	8	..........a	0	-327.74
	640	1.282	4.34752E-001	3.16712E-006	0.00000E+000	4.36000E-001	-8.29272E-004	8	..........a	0	-327.74
	672	1.346	4.31543E-001	2.97922E-006	0.00000E+000	4.32800E-001	-9.12605E-004	8	..........a	0	-327.74
	704	1.41	4.28360E-001	2.93589E-006	0.00000E+000	4.29600E-001	-8.37606E-004	8	..........a	0	-327.74
	736	1.474	4.25172E-001	2.74966E-006	0.00000E+000	4.26400E-001	-8.29272E-004	8	..........a	0	-327.74
	768	1.538	4.21935E-001	2.67716E-006	0.00000E+000	4.23200E-001	-8.70939E-004	8	..........a	0	-327.74
	800	1.602	4.18752E-001	2.69799E-006	0.00000E+000	4.20000E-001	-8.29272E-004	8	..........a	0	-327.74
	832	1.666	4.15568E-001	2.64633E-006	0.00000E+000	4.16800E-001	-8.37606E-004	8	..........a	0	-327.74
	864	1.73	4.12347E-001	2.56175E-006	0.00000E+000	4.13600E-001	-8.45939E-004	8	..........a	0	-327.74
	896	1.794	4.09193E-001	2.26136E-006	0.00000E+000	4.10400E-001	-8.87605E-004	8	..........a	0	-327.74
	928	1.858	4.05939E-001	2.29386E-006	0.00000E+000	4.07200E-001	-8.54272E-004	8	..........a	0	-327.74
	960	1.922	4.02735E-001	2.23720E-006	0.00000E+000	4.04000E-001	-8.45939E-004	8	..........a	0	-327.74
	992	1.986	3.99564E-001	2.30136E-006	0.00000E+000	4.00800E-001	-8.37606E-004	8	..........a	0	-327.74
	1024	2.05	3.96364E-001	2.18928E-006	0.00000E+000	3.97600E-001	-8.54272E-004	8	..........a	0	-327.74
	1056	2.114	3.93164E-001	2.20303E-006	0.00000E+000	3.94400E-001	-8.54272E-004	8	..........a	0	-327.74
	1088	2.178	3.89977E-001	1.98222E-006	0.00000E+000	3.91200E-001	-8.62605E-004	8	..........a	0	-327.74
	1120	2.242	3.86768E-001	2.01055E-006	0.00000E+000	3.88000E-001	-8.62605E-004	8	..........a	0	-327.74
	1152	2.306	3.83543E-001	1.69182E-006	0.00000E+000	3.84800E-001	-8.45939E-004	8	..........a	0	-327.74
	1184	2.37	3.80347E-001	1.82806E-006	0.00000E+000	3.81600E-001	-8.79272E-004	8	..........a	0	-327.74
	1216	2.434	3.77164E-001	1.46809E-006	0.00000E+000	3.78400E-001	-8.20939E-004	8	..........a	0	-327.74
	1248	2.498	3.73935E-001	1.57017E-006	0.00000E+000	3.75200E-001	-8.62605E-004	8	..........a	0	-327.74
	1280	2.562	3.70752E-001	1.34893E-006	0.00000E+000	3.72000E-001	-8.37606E-004	8	..........a	0	-327.74
	1312	2.626	3.67589E-001	1.45643E-006	0.00000E+000	3.68800E-001	-8.04272E-004	8	..........a	0	-327.74
	1344	2.69	3.64360E-001	1.34269E-006	0.00000E+000	3.65600E-001	-8.37606E-004	8	..........a	0	-327.74
	1376	2.754	3.61164E-001	1.16645E-006	0.00000E+000	3.62400E-001	-8.45939E-004	8	..........a	0	-327.74
	1408	2.818	3.57985E-001	1.11729E-006	0.00000E+000	3.59200E-001	-8.70939E-004	8	..........a	0	-327.74
	1440	2.882	3.54818E-001	1.18436E-006	0.00000E+000	3.56000E-001	-9.12605E-004	8	..........a	0	-327.74
	1472	2.946	3.51585E-001	1.19603E-006	0.00000E+000	3.52800E-001	-8.70939E-004	8	..........a	0	-327.74
	1504	3.01	3.48364E-001	1.00771E-006	0.00000E+000	3.49600E-001	-8.45939E-004	8	..........a	0	-327.74
	1536	3.074	3.45160E-001	7.77731E-007	0.00000E+000	3.46400E-001	-8.45939E-004	8	..........a	0	-327.74
	1568	3.138	3.41989E-001	7.93979E-007	0.00000E+000	3.43200E-001	-8.87605E-004	8	..........a	0	-327.74
	1600	3.202	3.38777E-001	7.06903E-007	0.00000E+000	3.40000E-001	-8.37606E-004	8	..........a	0	-327.74
	1632	3.266	3.35552E-001	7.96063E-007	0.00000E+000	3.36800E-001	-9.20939E-004	8	..........a	0	-327.74
	1664	3.33	3.32397E-001	7.61066E-007	0.00000E+000	3.33600E-001	-8.54272E-004	8	..........a	0	-327.74
	1696	3.394	3.29206E-001	6.25243E-007	0.00000E+000	3.30400E-001	-8.79272E-004	8	..........a	0	-327.74
	1728	3.458	3.25939E-001	3.96095E-007	0.00000E+000	3.27200E-001	-8.37606E-004	8	..........a	0	-327.74
	1760	3.522	3.22793E-001	4.73172E-007	0.00000E+000	3.24000E-001	-8.79272E-004	8	..........a	0	-327.74
	1792	3.586	3.19635E-001	4.30259E-007	0.00000E+000	3.20800E-001	-8.87605E-004	8	..........a	0	-327.74
	1824	3.65	3.16414E-001	4.71089E-007	0.00000E+000	3.17600E-001	-8.62605E-004	8	..........a	0	-327.74
	1856	3.714	3.13206E-001	3.97345E-007	0.00000E+000	3.14400E-001	-8.54272E-004	8	..........a	0	-327.74
	1888	3.778	3.10014E-001	4.48174E-007	0.00000E+000	3.11200E-001	-8.54272E-004	8	..........a	0	-327.74
	1920	3.842	3.06814E-001	4.12760E-007	0.00000E+000	3.08000E-001	-8.45939E-004	8	..........a	0	-327.74
	1952	3.906	3.03631E-001	2.96519E-007	0.00000E+000	3.04800E-001	-9.04272E-004	8	..........a	0	-327.74
	1984	3.97	3.00402E-001	2.57356E-007	0.00000E+000	3.01600E-001	-8.95939E-004	8	..........a	0	-327.74
	2016	4.034	2.97239E-001	3.69014E-007	0.00000E+000	2.98400E-001	-8.12605E-004	8	..........a	0	-327.74
	2048	4.098	2.94035E-001	2.85270E-007	0.00000E+000	2.95200E-001	-8.04272E-004	8	..........a	0	-327.74
	2080	4.162	2.90789E-001	3.38599E-007	0.00000E+000	2.92000E-001	-8.20939E-004	8	..........a	0	-327.74
	2112	4.226	2.87618E-001	2.03610E-007	0.00000E+000	2.88800E-001	-8.45939E-004	8	..........a	0	-327.74
	2144	4.29	2.84368E-001	1.77362E-007	0.00000E+000	2.85600E-001	-8.79272E-004	8	..........a	0	-327.74
	2176	4.354	2.81252E-001	3.18184E-007	0.00000E+000	2.82400E-001	-8.20939E-004	8	..........a	0	-327.74
	2208	4.418	2.78018E-001	3.51515E-007	0.00000E+000	2.79200E-001	-8.54272E-004	8	..........a	0	-327.74
	2240	4.482	2.74835E-001	2.35691E-007	0.00000E+000	2.76000E-001	-8.37606E-004	8	..........a	0	-327.74
	2272	4.546	2.71577E-001	2.05693E-007	0.00000E+000	2.72800E-001	-8.95939E-004	8	..........a	0	-327.74
	2304	4.61	2.68443E-001	1.05285E-007	0.00000E+000	2.69600E-001	-8.37606E-004	8	..........a	0	-327.74
	2336	4.674	2.65231E-001	2.96936E-007	0.00000E+000	2.66400E-001	-8.54272E-004	8	..........a	0	-327.74
	2368	4.738	2.62014E-001	1.00285E-007	0.00000E+000	2.63200E-001	-8.20939E-004	8	..........a	0	-327.74
	2400	4.802	2.58831E-001	1.68196E-007	0.00000E+000	2.60000E-001	-8.54272E-004	8	..........a	0	-327.74
	2432	4.866	2.55614E-001	1.01535E-007	0.00000E+000	2.56800E-001	-8.37606E-004	8	..........a	0	-327.74
	2464	4.93	2.52422E-001	1.36116E-007	0.00000E+000	2.53600E-001	-7.62605E-004	8	..........a	0	-327.74
	2496	4.994	2.49222E-001	1.12784E-007	0.00000E+000	2.50400E-001	-8.29272E-004	8	..........a	0	-327.74
	2528	5.058	2.46035E-001	7.11209E-008	0.00000E+000	2.47200E-001	-8.45939E-004	8	..........a	0	-327.74
	2560	5.122	2.42740E-001	4.82060E-008	0.00000E+000	2.44000E-001	-8.12605E-004	8	......s...a	0	-327.74
	2592	5.186	2.39545E-001	1.51531E-007	0.00000E+000	2.40800E-001	-8.54272E-004	8	..........a	0	-327.74
	2624	5.25	2.36351E-001	7.44539E-008	0.00000E+000	2.37600E-001	-8.79272E-004	8	..........a	0	-327.74
	2656	5.314	2.33156E-001	2.30691E-007	0.00000E+000	2.34400E-001	-8.45939E-004	8	..........a	0	-327.74
	2688	5.378	2.29949E-001	1.13201E-007	0.00000E+000	2.31200E-001	-8.37606E-004	8	..........a	0	-327.74
	2720	5.442	2.26755E-001	1.98750E-008	0.00000E+000	2.28000E-001	-8.12605E-004	8	..........a	0	-327.74
	2752	5.506	2.23563E-001	2.06527E-007	0.00000E+000	2.24800E-001	-8.20939E-004	8	..........a	0	-327.74
	2784	5.57	2.20358E-001	3.69569E-008	0.00000E+000	2.21600E-001	-8.37606E-004	8	..........a	0	-327.74
	2816	5.634	2.17161E-001	1.09451E-007	0.00000E+000	2.18400E-001	-8.79272E-004	8	..........a	0	-327.74
	2848	5.698	2.13965E-001	8.02868E-008	0.00000E+000	2.15200E-001	-8.20939E-004	8	..........a	0	-327.74
	2880	5.762	2.10774E-001	1.67363E-007	0.00000E+000	2.12000E-001	-8.29272E-004	8	..........a	0	-327.74
	2912	5.826	2.07568E-001	8.27866E-008	0.00000E+000	2.08800E-001	-8.37606E-004	8	..........a	0	-327.74
	2944	5.89	2.04358E-001	4.15399E-008	0.00000E+000	2.05600E-001	-8.62605E-004	8	..........a	0	-327.74
	2976	5.954	2.01179E-001	7.37599E-009	0.00000E+000	2.02400E-001	-8.70939E-004	8	..........a	0	-327.74
	3008	6.018	1.97980E-001	1.12649E-009	0.00000E+000	1.99200E-001	-8.04272E-004	8	..........a	0	-327.74
	3040	6.082	1.94778E-001	5.73720E-008	0.00000E+000	1.96000E-001	-8.54272E-004	8	..........a	0	-327.74
	3072	6.146	1.91576E-001	-1.08031E-007	0.00000E+000	1.92800E-001	-8.45939E-004	8	..........a	0	-327.74
	3104	6.21	1.88383E-001	-5.01194E-008	0.00000E+000	1.89600E-001	-8.12605E-004	8	..........a	0	-327.74
	3136	6.274	1.85173E-001	6.07050E-008	0.00000E+000	1.86400E-001	-8.04272E-004	8	..........a	0	-327.74
	3168	6.338	1.81995E-001	-7.05344E-008	0.00000E+000	1.83200E-001	-8.20939E-004	8	..........a	0	-327.74
	3200	6.402	1.78793E-001	3.77902E-008	0.00000E+000	1.80000E-001	-8.54272E-004	8	..........a	0	-327.74
	3232	6.466	1.75586E-001	3.48738E-008	0.00000E+000	1.76800E-001	-8.87605E-004	8	..........a	0	-327.74
	3264	6.53	1.72395E-001	-1.09559E-008	0.00000E+000	1.73600E-001	-8.37606E-004	8	..........a	0	-327.74
	3296	6.594	1.69199E-001	-8.87270E-009	0.00000E+000	1.70400E-001	-8.70939E-004	8	..........a	0	-327.74
	3328	6.658	1.66004E-001	2.93227E-010	0.00000E+000	1.67200E-001	-8.45939E-004	8	..........a	0	-327.74
	3360	6.722	1.62800E-001	2.93227E-010	0.00000E+000	1.64000E-001	-8.54272E-004	8	..........a	0	-327.74
	3392	6.786	1.59595E-001	1.22783E-007	0.00000E+000	1.60800E-001	-8.20939E-004	8	..........a	0	-327.74
	3424	6.85	1.56404E-001	5.11225E-008	0.00000E+000	1.57600E-001	-8.95939E-004	8	..........a	0	-327.74
	3456	6.914	1.53199E-001	-3.34541E-008	0.00000E+000	1.54400E-001	-8.79272E-004	8	..........a	0	-327.74
	3488	6.978	1.50006E-001	1.02924E-008	0.00000E+000	1.51200E-001	-8.29272E-004	8	..........a	0	-327.74
	3520	7.042	1.46812E-001	5.57054E-008	0.00000E+000	1.48000E-001	-8.37606E-004	8	..........a	0	-327.74
	3552	7.106	1.43592E-001	-5.22026E-008	0.00000E+000	1.44800E-001	-8.45939E-004	8	..........a	0	-327.74
	3584	7.17	1.40401E-001	-1.38723E-008	0.00000E+000	1.41600E-001	-8.70939E-004	8	..........a	0	-327.74
	3616	7.234	1.37197E-001	-4.72030E-008	0.00000E+000	1.38400E-001	-8.54272E-004	8	..........a	0	-327.74
	3648	7.298	1.34018E-001	-2.05384E-008	0.00000E+000	1.35200E-001	-7.79272E-004	8	..........a	0	-327.74
	3680	7.362	1.30808E-001	-1.34279E-007	0.00000E+000	1.32000E-001	-8.12605E-004	8	..........a	0	-327.74
	3712	7.426	1.27619E-001	-6.92845E-008	0.00000E+000	1.28800E-001	-8.37606E-004	8	..........a	0	-327.74
	3744	7.49	1.24405E-001	1.09034E-007	0.00000E+000	1.25600E-001	-8.04272E-004	8	..........a	0	-327.74
	3776	7.554	1.21221E-001	3.27906E-008	0.00000E+000	1.22400E-001	-8.29272E-004	8	..........a	0	-327.74
	3808	7.618	1.18007E-001	3.62629E-009	0.00000E+000	1.19200E-001	-8.45939E-004	8	..........a	0	-327.74
	3840	7.682	1.14826E-001	-1.09559E-008	0.00000E+000	1.16000E-001	-8.79272E-004	8	..........a	0	-327.74
	3872	7.746	1.11618E-001	1.77918E-008	0.00000E+000	1.12800E-001	-8.45939E-004	8	..........a	0	-327.74
	3904	7.81	1.08428E-001	6.32048E-008	0.00000E+000	1.09600E-001	-8.12605E-004	8	..........a	0	-327.74
	3936	7.874	1.05222E-001	-1.33863E-007	0.00000E+000	1.06400E-001	-8.29272E-004	8	..........a	0	-327.74
	3968	7.938	1.02035E-001	-2.42881E-008	0.00000E+000	1.03200E-001	-8.62605E-004	8	..........a	0	-327.74
	4000	8.002	9.88343E-002	-3.47040E-008	0.00000E+000	1.00000E-001	-8.29272E-004	8	..........a	0	-327.74
	4032	8.066	9.56385E-002	-1.07198E-007	0.00000E+000	9.68000E-002	-8.45939E-004	8	..........a	0	-327.74
	4064	8.13	9.24243E-002	-4.63697E-008	0.00000E+000	9.36000E-002	-8.37606E-004	8	..........a	0	-327.74
	4096	8.194	8.92343E-002	-5.67855E-008	0.00000E+000	9.04000E-002	-8.29272E-004	8	..........a	0	-327.74
	4128	8.258	8.60285E-002	2.79303E-009	0.00000E+000	8.72000E-002	-8.37606E-004	8	..........a	0	-327.74
	4160	8.322	8.28431E-002	-4.63697E-008	0.00000E+000	8.40000E-002	-8.04272E-004	8	..........a	0	-327.74
	4192	8.386	7.96435E-002	-1.65110E-007	0.00000E+000	8.08000E-002	-7.95939E-004	8	..........a	0	-327.74
	4224	8.45	7.64518E-002	-5.92853E-008	0.00000E+000	7.76000E-002	-8.20939E-004	8	..........a	0	-327.74
	4256	8.514	7.32543E-002	1.95976E-009	0.00000E+000	7.44000E-002	-8.20939E-004	8	..........a	0	-327.74
	4288	8.578	7.00547E-002	6.90377E-008	0.00000E+000	7.12000E-002	-8.37606E-004	8	..........a	0	-327.74
	4320	8.642	6.68585E-002	-3.72038E-008	0.00000E+000	6.80000E-002	-8.29272E-004	8	..........a	0	-327.74
	4352	8.706	6.36531E-002	-1.54278E-007	0.00000E+000	6.48000E-002	-9.12605E-004	8	..........a	0	-327.74
	4384	8.77	6.04501E-002	6.32048E-008	0.00000E+000	6.16000E-002	-8.04272E-004	8	..........a	0	-327.74
	4416	8.834	5.72651E-002	-6.72014E-008	0.00000E+000	5.84000E-002	-8.37606E-004	8	..........a	0	-327.74
	4448	8.898	5.40597E-002	1.12649E-009	0.00000E+000	5.52000E-002	-8.45939E-004	8	..........a	0	-327.74
	4480	8.962	5.08493E-002	-8.13669E-008	0.00000E+000	5.20000E-002	-8.12605E-004	8	..........a	0	-327.74
	4512	9.026	4.76476E-002	-1.33863E-007	0.00000E+000	4.88000E-002	-8.54272E-004	8	..........a	0	-327.74
	4544	9.09	4.44693E-002	-1.45528E-007	0.00000E+000	4.56000E-002	-8.37606E-004	8	..........a	0	-327.74
	4576	9.154	4.12543E-002	-7.17843E-008	0.00000E+000	4.24000E-002	-7.70939E-004	8	..........a	0	-327.74
	4608	9.218	3.80506E-002	-1.83859E-007	0.00000E+000	3.92000E-002	-8.87605E-004	8	..........a	0	-327.74
	4640	9.282	3.48543E-002	-8.88663E-008	0.00000E+000	3.60000E-002	-8.54272E-004	8	..........a	0	-327.74
	4672	9.346	3.16589E-002	6.65379E-008	0.00000E+000	3.28000E-002	-8.37606E-004	8	..........a	0	-327.74
	4704	9.41	2.84768E-002	-1.72193E-007	0.00000E+000	2.96000E-002	-8.29272E-004	8	..........a	0	-327.74
	4736	9.474	2.52668E-002	-4.30366E-008	0.00000E+000	2.64000E-002	-8.20939E-004	8	..........a	0	-327.74
	4768	9.538	2.20604E-002	-9.30326E-008	0.00000E+000	2.32000E-002	-8.45939E-004	8	..........a	0	-327.74
	4800	9.602	1.88537E-002	-1.68860E-007	0.00000E+000	2.00000E-002	-8.20939E-004	8	..........a	0	-327.74
	4832	9.666	1.56677E-002	-5.42857E-008	0.00000E+000	1.68000E-002	-8.37606E-004	8	..........a	0	-327.74
	4864	9.73	1.24618E-002	-1.24280E-007	0.00000E+000	1.36000E-002	-8.29272E-004	8	..........a	0	-327.74
	4896	9.794	9.25260E-003	-8.22001E-008	0.00000E+000	1.04000E-002	-8.54272E-004	8	..........a	0	-327.74
	4928	9.858	6.06443E-003	-2.43854E-007	0.00000E+000	7.20000E-003	-8.29272E-004	8	..........a	0	-327.74
	4960	9.922	2.87581E-003	-2.07190E-007	0.00000E+000	4.00001E-003	-8.29272E-004	8	..........a	0	-327.74
	4992	9.986	-3.29568E-004	-1.69277E-007	0.00000E+000	7.99984E-004	-8.54272E-004	8	..........a	0	-327.74
	5024	10.05	-3.52565E-003	-6.30350E-008	0.00000E+000	-2.40001E-003	-8.45939E-004	8	..........a	0	-327.74
	5056	10.114	-6.72248E-003	-1.97191E-007	0.00000E+000	-5.60001E-003	-8.04272E-004	8	..........a	0	-327.74
	5088	10.178	-9.92557E-003	-5.17859E-008	0.00000E+000	-8.80000E-003	-8.20939E-004	8	..........a	0	-327.74
	5120	10.242	-1.31102E-002	-1.80526E-007	0.00000E+000	-1.20000E-002	-8.70939E-004	8	..........a	0	-327.74
	5152	10.306	-1.63126E-002	-1.34279E-007	0.00000E+000	-1.52000E-002	-8.62605E-004	8	..........a	0	-327.74
	5184	10.37	-1.95044E-002	-1.27613E-007	0.00000E+000	-1.84000E-002	-7.87605E-004	8	..........a	0	-327.74
	5216	10.434	-2.27091E-002	-1.45528E-007	0.00000E+000	-2.16000E-002	-7.87605E-004	8	..........a	0	-327.74
	5248	10.498	-2.59069E-002	-1.32613E-007	0.00000E+000	-2.48000E-002	-7.95939E-004	8	..........a	0	-327.74
	5280	10.562	-2.91140E-002	-1.63860E-007	0.00000E+000	-2.80000E-002	-7.70939E-004	8	..........a	0	-327.74
	5312	10.626	-3.23049E-002	1.57087E-008	0.00000E+000	-3.12000E-002	-8.45939E-004	8	..........a	0	-327.74
	5344	10.69	-3.55124E-002	-1.84275E-007	0.00000E+000	-3.44000E-002	-8.54272E-004	8	..........a	0	-327.74
	5376	10.754	-3.87103E-002	-2.10107E-007	0.00000E+000	-3.76000E-002	-8.29272E-004	8	..........a	0	-327.74
	5408	10.818	-4.19024E-002	-1.06781E-007	0.00000E+000	-4.08000E-002	-8.37606E-004	8	..........a	0	-327.74
	5440	10.882	-4.51103E-002	-4.47032E-008	0.00000E+000	-4.40000E-002	-8.70939E-004	8	..........a	0	-327.74
	5472	10.946	-4.83040E-002	-1.21780E-007	0.00000E+000	-4.72000E-002	-8.04272E-004	8	..........a	0	-327.74
	5504	11.01	-5.15007E-002	-2.49270E-007	0.00000E+000	-5.04000E-002	-8.62605E-004	8	..........a	0	-327.74
	5536	11.074	-5.47065E-002	-2.06773E-007	0.00000E+000	-5.36000E-002	-8.45939E-004	8	..........a	0	-327.74
	5568	11.138	-5.79057E-002	-3.05516E-007	0.00000E+000	-5.68000E-002	-8.37606E-004	8	..........a	0	-327.74
	5600	11.202	-6.11074E-002	-1.01782E-007	0.00000E+000	-6.00000E-002	-8.54272E-004	8	..........a	0	-327.74
	5632	11.266	-6.42986E-002	-1.19697E-007	0.00000E+000	-6.32000E-002	-8.79272E-004	8	..........a	0	-327.74
	5664	11.33	-6.74990E-002	-1.65527E-007	0.00000E+000	-6.64000E-002	-7.87605E-004	8	..........a	0	-327.74
	5696	11.394	-7.06928E-002	-1.45528E-007	0.00000E+000	-6.96000E-002	-8.04272E-004	8	..........a	0	-327.74
	5728	11.458	-7.38982E-002	-1.94691E-007	0.00000E+000	-7.28000E-002	-8.37606E-004	8	..........a	0	-327.74
	5760	11.522	-7.70911E-002	-2.72185E-007	0.00000E+000	-7.60000E-002	-8.70939E-004	8	..........a	0	-327.74
	5792	11.586	-8.03019E-002	-2.43021E-007	0.00000E+000	-7.92000E-002	-8.70939E-004	8	..........a	0	-327.74
	5824	11.65	-8.34774E-002	-2.75101E-007	0.00000E+000	-8.24000E-002	-8.37606E-004	8	..........a	0	-327.74
	5856	11.714	-8.66865E-002	-2.38021E-007	0.00000E+000	-8.56000E-002	-8.20939E-004	8	..........a	0	-327.74
	5888	11.778	-8.98753E-002	-2.78851E-007	0.00000E+000	-8.88000E-002	-8.29272E-004	8	..........a	0	-327.74
	5920	11.842	-9.30786E-002	-1.79276E-007	0.00000E+000	-9.20000E-002	-7.62605E-004	8	..........a	0	-327.74
	5952	11.906	-9.62774E-002	-2.75518E-007	0.00000E+000	-9.52000E-002	-8.04272E-004	8	..........a	0	-327.74
	5984	11.97	-9.94653E-002	-2.99683E-007	0.00000E+000	-9.84000E-002	-8.54272E-004	8	..........a	0	-327.74
	6016	12.034	-1.02668E-001	-2.87600E-007	0.00000E+000	-1.01600E-001	-7.54272E-004	8	..........a	0	-327.74
	6048	12.098	-1.05885E-001	-3.10515E-007	0.00000E+000	-1.04800E-001	-8.45939E-004	8	..........a	0	-327.74
	6080	12.162	-1.09066E-001	-3.19264E-007	0.00000E+000	-1.08000E-001	-8.37606E-004	8	..........a	0	-327.74
	6112	12.226	-1.12266E-001	-1.58861E-007	0.00000E+000	-1.11200E-001	-8.62605E-004	8	..........a	0	-327.74
	6144	12.29	-1.15461E-001	-3.00933E-007	0.00000E+000	-1.14400E-001	-8.54272E-004	8	..........a	0	-327.74
	6176	12.354	-1.18676E-001	-1.86775E-007	0.00000E+000	-1.17600E-001	-8.12605E-004	8	..........a	0	-327.74
	6208	12.418	-1.21868E-001	-3.00099E-007	0.00000E+000	-1.20800E-001	-8.70939E-004	8	..........a	0	-327.74
	6240	12.482	-1.25062E-001	-3.28430E-007	0.00000E+000	-1.24000E-001	-9.04272E-004	8	..........a	0	-327.74
	6272	12.546	-1.28265E-001	-3.60095E-007	0.00000E+000	-1.27200E-001	-8.04272E-004	8	..........a	0	-327.74
	6304	12.61	-1.31471E-001	-3.27180E-007	0.00000E+000	-1.30400E-001	-8.62605E-004	8	..........a	0	-327.74
	6336	12.674	-1.34659E-001	-4.12590E-007	0.00000E+000	-1.33600E-001	-7.79272E-004	8	..........a	0	-327.74
	6368	12.738	-1.37854E-001	-3.05099E-007	0.00000E+000	-1.36800E-001	-8.20939E-004	8	..........a	0	-327.74
	6400	12.802	-1.41062E-001	-1.96774E-007	0.00000E+000	-1.40000E-001	-7.87605E-004	8	..........a	0	-327.74
	6432	12.866	-1.44255E-001	-3.30097E-007	0.00000E+000	-1.43200E-001	-8.12605E-004	8	..........a	0	-327.74
	6464	12.93	-1.47453E-001	-2.50520E-007	0.00000E+000	-1.46400E-001	-7.70939E-004	8	..........a	0	-327.74
	6496	12.994	-1.50649E-001	-3.78010E-007	0.00000E+000	-1.49600E-001	-8.87605E-004	8	..........a	0	-327.74
	6528	13.058	-1.53840E-001	-2.60103E-007	0.00000E+000	-1.52800E-001	-7.95939E-004	8	..........a	0	-327.74
	6560	13.122	-1.57048E-001	-3.01766E-007	0.00000E+000	-1.56000E-001	-7.87605E-004	8	..........a	0	-327.74
	6592	13.186	-1.60256E-001	-3.15931E-007	0.00000E+000	-1.59200E-001	-7.62605E-004	8	..........a	0	-327.74
	6624	13.25	-1.63451E-001	-3.21764E-007	0.00000E+000	-1.62400E-001	-8.29272E-004	8	..........a	0	-327.74
	6656	13.314	-1.66653E-001	-3.15098E-007	0.00000E+000	-1.65600E-001	-8.87605E-004	8	..........a	0	-327.74
	6688	13.378	-1.69852E-001	-4.62170E-007	0.00000E+000	-1.68800E-001	-7.70939E-004	8	..........a	0	-327.74
	6720	13.442	-1.73053E-001	-3.23847E-007	0.00000E+000	-1.72000E-001	-8.70939E-004	8	..........a	0	-327.74
	6752	13.506	-1.76245E-001	-4.93000E-007	0.00000E+000	-1.75200E-001	-8.20939E-004	8	..........a	0	-327.74
	6784	13.57	-1.79433E-001	-5.03833E-007	0.00000E+000	-1.78400E-001	-8.37606E-004	8	..........a	0	-327.74
	6816	13.634	-1.82633E-001	-3.58011E-007	0.00000E+000	-1.81600E-001	-8.45939E-004	8	..........a	0	-327.74
	6848	13.698	-1.85845E-001	-3.76343E-007	0.00000E+000	-1.84800E-001	-8.54272E-004	8	..........a	0	-327.74
	6880	13.762	-1.89029E-001	-3.39263E-007	0.00000E+000	-1.88000E-001	-7.87605E-004	8	..........a	0	-327.74
	6912	13.826	-1.92236E-001	-4.36755E-007	0.00000E+000	-1.91200E-001	-8.37606E-004	8	..........a	0	-327.74
	6944	13.89	-1.95434E-001	-3.53845E-007	0.00000E+000	-1.94400E-001	-7.87605E-004	8	..........a	0	-327.74
	6976	13.954	-1.98639E-001	-3.44262E-007	0.00000E+000	-1.97600E-001	-8.62605E-004	8	..........a	0	-327.74
	7008	14.018	-2.01824E-001	-5.75494E-007	0.00000E+000	-2.00800E-001	-8.54272E-004	8	..........a	0	-327.74
	7040	14.082	-2.05037E-001	-2.92183E-007	0.00000E+000	-2.04000E-001	-8.79272E-004	8	..........a	0	-327.74
	7072	14.146	-2.08222E-001	-5.29248E-007	0.00000E+000	-2.07200E-001	-8.87605E-004	8	..........a	0	-327.74
	7104	14.21	-2.11428E-001	-4.25506E-007	0.00000E+000	-2.10400E-001	-8.20939E-004	8	..........a	0	-327.74
	7136	14.274	-2.14646E-001	-4.42588E-007	0.00000E+000	-2.13600E-001	-8.70939E-004	8	..........a	0	-327.74
	7168	14.338	-2.17831E-001	-4.06341E-007	0.00000E+000	-2.16800E-001	-7.95939E-004	8	..........a	0	-327.74
	7200	14.402	-2.21040E-001	-5.72994E-007	0.00000E+000	-2.20000E-001	-8.79272E-004	8	..........a	0	-327.74
	7232	14.466	-2.24222E-001	-6.36322E-007	0.00000E+000	-2.23200E-001	-8.12605E-004	8	..........a	0	-327.74
	7264	14.53	-2.27423E-001	-5.77577E-007	0.00000E+000	-2.26400E-001	-8.12605E-004	8	..........a	0	-327.74
	7296	14.594	-2.30607E-001	-5.40080E-007	0.00000E+000	-2.29600E-001	-8.37606E-004	8	..........a	0	-327.74
	7328	14.658	-2.33817E-001	-6.31739E-007	0.00000E+000	-2.32800E-001	-8.54272E-004	8	..........a	0	-327.74
	7360	14.722	-2.37012E-001	-6.42572E-007	0.00000E+000	-2.36000E-001	-7.87605E-004	8	..........a	0	-327.74
	7392	14.786	-2.40208E-001	-6.70070E-007	0.00000E+000	-2.39200E-001	-8.20939E-004	8	..........a	0	-327.74
	7424	14.85	-2.43421E-001	-6.92151E-007	0.00000E+000	-2.42400E-001	-8.37606E-004	8	..........a	0	-327.74
	7456	14.914	-2.46601E-001	-7.33398E-007	0.00000E+000	-2.45600E-001	-7.87605E-004	8	..........a	0	-327.74
	7488	14.978	-2.49796E-001	-7.02567E-007	0.00000E+000	-2.48800E-001	-7.95939E-004	8	..........a	0	-327.74
	7520	15.042	-2.53016E-001	-9.03801E-007	0.00000E+000	-2.52000E-001	-8.20939E-004	8	..........a	0	-327.74
	7552	15.106	-2.56201E-001	-7.57563E-007	0.00000E+000	-2.55200E-001	-8.70939E-004	8	..........a	0	-327.74
	7584	15.17	-2.59417E-001	-6.58820E-007	0.00000E+000	-2.58400E-001	-7.95939E-004	8	..........a	0	-327.74
	7616	15.234	-2.62602E-001	-9.13800E-007	0.00000E+000	-2.61600E-001	-8.45939E-004	8	..........a	0	-327.74
	7648	15.298	-2.65805E-001	-8.17141E-007	0.00000E+000	-2.64800E-001	-7.62605E-004	8	..........a	0	-327.74
	7680	15.362	-2.68953E-001	-7.85060E-007	0.00000E+000	-2.68000E-001	-8.29272E-004	8	..........a	0	-327.74
	7712	15.426	-2.72153E-001	-8.61304E-007	0.00000E+000	-2.71200E-001	-8.04272E-004	8	..........a	0	-327.74
	7744	15.49	-2.75428E-001	-9.56713E-007	0.00000E+000	-2.74400E-001	-8.37606E-004	8	..........a	0	-327.74
	7776	15.554	-2.78603E-001	-9.26716E-007	0.00000E+000	-2.77600E-001	-8.54272E-004	8	..........a	0	-327.74
	7808	15.618	-2.81778E-001	-9.18800E-007	0.00000E+000	-2.80800E-001	-8.45939E-004	8	..........a	0	-327.74
	7840	15.682	-2.84969E-001	-9.67546E-007	0.00000E+000	-2.84000E-001	-9.04272E-004	8	..........a	0	-327.74
	7872	15.746	-2.88198E-001	-9.91294E-007	0.00000E+000	-2.87200E-001	-8.04272E-004	8	..........a	0	-327.74
	7904	15.81	-2.91415E-001	-1.03921E-006	0.00000E+000	-2.90400E-001	-8.79272E-004	8	..........a	0	-327.74
	7936	15.874	-2.94573E-001	-1.07129E-006	0.00000E+000	-2.93600E-001	-8.70939E-004	8	..........a	0	-327.74
	7968	15.938	-2.97753E-001	-1.16795E-006	0.00000E+000	-2.96800E-001	-8.70939E-004	8	..........a	0	-327.74
	8000	16.002	-3.00973E-001	-1.14503E-006	0.00000E+000	-3.00000E-001	-8.20939E-004	8	..........a	0	-327.74
	8032	16.066	-3.04198E-001	-1.14545E-006	0.00000E+000	-3.03200E-001	-8.12605E-004	8	..........a	0	-327.74
	8064	16.13	-3.07369E-001	-1.41668E-006	0.00000E+000	-3.06400E-001	-8.29272E-004	8	..........a	0	-327.74
	8096	16.194	-3.10565E-001	-1.27127E-006	0.00000E+000	-3.09600E-001	-8.20939E-004	8	..........a	0	-327.74
	8128	16.258	-3.13848E-001	-1.44126E-006	0.00000E+000	-3.12800E-001	-8.37606E-004	8	..........a	0	-327.74
	8160	16.322	-3.16990E-001	-1.52167E-006	0.00000E+000	-3.16000E-001	-8.29272E-004	8	..........a	0	-327.74
	8192	16.386	-3.20140E-001	-1.49917E-006	0.00000E+000	-3.19200E-001	-8.04272E-004	8	..........a	0	-327.74
	8224	16.45	-3.23361E-001	-1.43834E-006	0.00000E+000	-3.22400E-001	-8.45939E-004	8	..........a	0	-327.74
	8256	16.514	-3.26544E-001	-1.55708E-006	0.00000E+000	-3.25600E-001	-8.29272E-004	8	..........a	0	-327.74
	8288	16.578	-3.29769E-001	-1.69790E-006	0.00000E+000	-3.28800E-001	-8.45939E-004	8	..........a	0	-327.74
	8320	16.642	-3.32973E-001	-1.67207E-006	0.00000E+000	-3.32000E-001	-8.12605E-004	8	..........a	0	-327.74
	8352	16.706	-3.36169E-001	-1.98163E-006	0.00000E+000	-3.35200E-001	-8.70939E-004	8	..........a	0	-327.74
	8384	16.77	-3.39386E-001	-2.16745E-006	0.00000E+000	-3.38400E-001	-8.45939E-004	8	..........a	0	-327.74
	8416	16.834	-3.42569E-001	-2.00996E-006	0.00000E+000	-3.41600E-001	-7.87605E-004	8	..........a	0	-327.74
	8448	16.898	-3.45715E-001	-2.11412E-006	0.00000E+000	-3.44800E-001	-8.62605E-004	8	..........a	0	-327.74
	8480	16.962	-3.48940E-001	-2.40493E-006	0.00000E+000	-3.48000E-001	-8.70939E-004	8	..........a	0	-327.74
	8512	17.026	-3.52148E-001	-2.61366E-006	0.00000E+000	-3.51200E-001	-8.95939E-004	8	..........a	0	-327.74
	8544	17.09	-3.55353E-001	-2.72074E-006	0.00000E+000	-3.54400E-001	-7.95939E-004	8	..........a	0	-327.74
	8576	17.154	-3.58598E-001	-2.93572E-006	0.00000E+000	-3.57600E-001	-8.12605E-004	8	..........a	0	-327.74
	8608	17.218	-3.61765E-001	-3.10946E-006	0.00000E+000	-3.60800E-001	-8.62605E-004	8	..........a	0	-327.74
	8640	17.282	-3.64957E-001	-3.37110E-006	0.00000E+000	-3.64000E-001	-8.45939E-004	8	..........a	0	-327.74
	8672	17.346	-3.68194E-001	-3.57942E-006	0.00000E+000	-3.67200E-001	-8.37606E-004	8	..........a	0	-327.74
	8704	17.41	-3.71307E-001	-3.80065E-006	0.00000E+000	-3.70400E-001	-8.70939E-004	8	..........a	0	-327.74
	8736	17.474	-3.74503E-001	-4.20770E-006	0.00000E+000	-3.73600E-001	-8.70939E-004	8	..........a	0	-327.74
	8768	17.538	-3.77732E-001	-4.66975E-006	0.00000E+000	-3.76800E-001	-7.70939E-004	8	..........a	0	-327.74
	8800	17.602	-3.80898E-001	-4.70475E-006	0.00000E+000	-3.80000E-001	-8.62605E-004	8	..........a	0	-327.74
	8832	17.666	-3.84078E-001	-5.03805E-006	0.00000E+000	-3.83200E-001	-8.20939E-004	8	..........a	0	-327.74
	8864	17.73	-3.87328E-001	-5.54801E-006	0.00000E+000	-3.86400E-001	-8.54272E-004	8	..........a	0	-327.74
	8896	17.794	-3.90532E-001	-6.12713E-006	0.00000E+000	-3.89600E-001	-8.37606E-004	8	..........a	0	-327.74
	8928	17.858	-3.93790E-001	-6.72333E-006	0.00000E+000	-3.92800E-001	-8.20939E-004	8	..........a	0	-327.74
	8960	17.922	-3.96928E-001	-7.13622E-006	0.00000E+000	-3.96000E-001	-8.62605E-004	8	..........a	0	-327.74
	8992	17.986	-4.00098E-001	-7.81491E-006	0.00000E+000	-3.99200E-001	-8.54272E-004	8	..........a	0	-327.74
	9024	18.05	-4.03348E-001	-8.56152E-006	0.00000E+000	-4.02400E-001	-7.87605E-004	8	..........a	0	-327.74
	9056	18.114	-4.06544E-001	-9.50686E-006	0.00000E+000	-4.05600E-001	-8.54272E-004	8	..........a	0	-327.74
	9088	18.178	-4.09748E-001	-1.01918E-005	0.00000E+000	-4.08800E-001	-8.37606E-004	8	..........a	0	-327.74
	9120	18.242	-4.12915E-001	-1.12955E-005	0.00000E+000	-4.12000E-001	-7.95939E-004	8	..........a	0	-327.74
	9152	18.306	-4.16144E-001	-1.23966E-005	0.00000E+000	-4.15200E-001	-8.12605E-004	8	..........a	0	-327.74
	9184	18.37	-4.19361E-001	-1.35386E-005	0.00000E+000	-4.18400E-001	-8.04272E-004	8	..........a	0	-327.74
	9216	18.434	-4.22507E-001	-1.48548E-005	0.00000E+000	-4.21600E-001	-8.20939E-004	8	..........a	0	-327.74
	9248	18.498	-4.25673E-001	-1.62876E-005	0.00000E+000	-4.24800E-001	-7.62605E-004	8	..........a	0	-327.74
	9280	18.562	-4.28869E-001	-1.79037E-005	0.00000E+000	-4.28000E-001	-8.04272E-004	8	..........a	0	-327.74
	9312	18.626	-4.32073E-001	-1.95798E-005	0.00000E+000	-4.31200E-001	-8.45939E-004	8	..........a	0	-327.74
	9344	18.69	-4.35307E-001	-2.14605E-005	0.00000E+000	-4.34400E-001	-8.70939E-004	8	..........a	0	-327.74
	9376	18.754	-4.38507E-001	-2.38415E-005	0.00000E+000	-4.37600E-001	-8.12605E-004	8	..........a	0	-327.74
	9408	18.818	-4.41698E-001	-2.63701E-005	0.00000E+000	-4.40800E-001	-8.12605E-004	8	..........a	0	-327.74
	9440	18.882	-4.44973E-001	-2.89678E-005	0.00000E+000	-4.44000E-001	-8.12605E-004	8	..........a	0	-327.74
	9472	18.946	-4.48078E-001	-3.21680E-005	0.00000E+000	-4.47200E-001	-8.62605E-004	8	..........a	0	-327.74
	9504	19.01	-4.51286E-001	-3.56018E-005	0.00000E+000	-4.50400E-001	-8.79272E-004	8	..........a	0	-327.74
	9536	19.074	-4.54465E-001	-3.94403E-005	0.00000E+000	-4.53600E-001	-7.62605E-004	8	..........a	0	-327.74
	9568	19.138	-4.57644E-001	-4.36291E-005	0.00000E+000	-4.56800E-001	-8.12605E-004	8	..........a	0	-327.74
	9600	19.202	-4.60836E-001	-4.80129E-005	0.00000E+000	-4.60000E-001	-8.54272E-004	8	..........a	0	-327.74
	9632	19.266	-4.64040E-001	-5.33117E-005	0.00000E+000	-4.63200E-001	-8.37606E-004	8	..........a	0	-327.74
	9664	19.33	-4.67253E-001	-5.90720E-005	0.00000E+000	-4.66400E-001	-7.70939E-004	8	..........a	0	-327.74
	9696	19.394	-4.70528E-001	-6.58340E-005	0.00000E+000	-4.69600E-001	-8.29272E-004	8	..........a	0	-327.74
	9728	19.458	-4.73607E-001	-7.29013E-005	0.00000E+000	-4.72800E-001	-8.45939E-004	8	..........a	0	-327.74
	9760	19.522	-4.76798E-001	-8.10990E-005	0.00000E+000	-4.76000E-001	-8.62605E-004	8	..........a	0	-327.74
	9792	19.586	-4.79965E-001	-8.93284E-005	0.00000E+000	-4.79200E-001	-8.54272E-004	8	..........a	0	-327.74
	9824	19.65	-4.83157E-001	-9.93417E-005	0.00000E+000	-4.82400E-001	-8.37606E-004	8	..........a	0	-327.74
	9856	19.714	-4.86348E-001	-1.10515E-004	0.00000E+000	-4.85600E-001	-8.04272E-004	8	..........a	0	-327.74
	9888	19.778	-4.89573E-001	-1.22351E-004	0.00000E+000	-4.88800E-001	-8.37606E-004	8	..........a	0	-327.74
	9920	19.842	-4.92740E-001	-1.35094E-004	0.00000E+000	-4.92000E-001	-8.45939E-004	8	..........a	0	-327.74
	9952	19.906	-4.95940E-001	-1.49577E-004	0.00000E+000	-4.95200E-001	-8.20939E-004	8	..........a	0	-327.74
	9984	19.97	-4.99107E-001	-1.64159E-004	0.00000E+000	-4.98400E-001	-8.04272E-004	8	..........a	0	-327.74
	10016	20.034	-5.02282E-001	-1.82360E-004	0.00000E+000	-5.01600E-001	-8.20939E-004	8	..........a	0	-327.74
	10048	20.098	-5.05482E-001	-1.98937E-004	0.00000E+000	-5.04800E-001	-8.45939E-004	8	..........a	0	-327.74
	10080	20.162	-5.08665E-001	-2.18907E-004	0.00000E+000	-5.08000E-001	-8.37606E-004	8	..........a	0	-327.74
	10112	20.226	-5.11865E-001	-2.38737E-004	0.00000E+000	-5.11200E-001	-8.37606E-004	8	..........a	0	-327.74
	10144	20.29	-5.14948E-001	-2.60681E-004	0.00000E+000	-5.14400E-001	-7.95939E-004	8	..........a	0	-327.74
	10176	20.354	-5.18433E-001	-2.85502E-004	0.00000E+000	-5.17600E-001	-8.45939E-004	9	..........a	0	-327.74
	10208	20.418	-5.21625E-001	-3.08138E-004	0.00000E+000	-5.20800E-001	-8.20939E-004	9	..........a	0	-327.74
	10240	20.482	-5.24779E-001	-3.32600E-004	0.00000E+000	-5.24000E-001	-8.62605E-004	9	..........a	0	-327.74
	10272	20.546	-5.28000E-001	-3.54638E-004	0.00000E+000	-5.27200E-001	-8.04272E-004	9	..........a	0	-327.74
	10304	20.61	-5.31162E-001	-3.78486E-004	0.00000E+000	-5.30400E-001	-8.20939E-004	9	..........a	0	-327.74
	10336	20.674	-5.34417E-001	-4.01351E-004	0.00000E+000	-5.33600E-001	-8.20939E-004	9	..........a	0	-327.74
	10368	20.738	-5.37596E-001	-4.24263E-004	0.00000E+000	-5.36800E-001	-8.54272E-004	9	..........a	0	-327.74
	10400	20.802	-5.40767E-001	-4.45065E-004	0.00000E+000	-5.40000E-001	-8.04272E-004	9	..........a	0	-327.74
	10432	20.866	-5.43962E-001	-4.64759E-004	0.00000E+000	-5.43200E-001	-7.95939E-004	9	..........a	0	-327.74
	10464	20.93	-5.47229E-001	-4.83839E-004	0.00000E+000	-5.46400E-001	-8.37606E-004	9	..........a	0	-327.74
	10496	20.994	-5.50375E-001	-5.00399E-004	0.00000E+000	-5.49600E-001	-8.29272E-004	9	..........a	0	-327.74
	10528	21.058	-5.53612E-001	-5.13073E-004	0.00000E+000	-5.52800E-001	-8.45939E-004	9	..........a	0	-327.74
	10560	21.122	-5.56800E-001	-5.26942E-004	0.00000E+000	-5.56000E-001	-8.45939E-004	9	..........a	0	-327.74
	10592	21.186	-5.60008E-001	-5.37790E-004	0.00000E+000	-5.59200E-001	-8.87605E-004	9	..........a	0	-327.74
	10624	21.25	-5.63146E-001	-5.49014E-004	0.00000E+000	-5.62400E-001	-8.37606E-004	9	..........a	0	-327.74
	10656	21.314	-5.66404E-001	-5.57020E-004	0.00000E+000	-5.65600E-001	-7.95939E-004	9	..........a	0	-327.74
	10688	21.378	-5.69575E-001	-5.62590E-004	0.00000E+000	-5.68800E-001	-8.54272E-004	9	..........a	0	-327.74
	10720	21.442	-5.72771E-001	-5.70141E-004	0.00000E+000	-5.72000E-001	-7.62605E-004	9	..........a	0	-327.74
	10752	21.506	-5.75946E-001	-5.76510E-004	0.00000E+000	-5.75200E-001	-8.54272E-004	9	..........a	0	-327.74
	10784	21.57	-5.79133E-001	-5.77905E-004	0.00000E+000	-5.78400E-001	-8.29272E-004	9	..........a	0	-327.74
	10816	21.634	-5.82354E-001	-5.83012E-004	0.00000E+000	-5.81600E-001	-8.70939E-004	9	..........a	0	-327.74
	10848	21.698	-5.85575E-001	-5.87082E-004	0.00000E+000	-5.84800E-001	-8.54272E-004	9	..........a	0	-327.74
	10880	21.762	-5.88742E-001	-5.88782E-004	0.00000E+000	-5.88000E-001	-8.45939E-004	9	..........a	0	-327.74
	10912	21.826	-5.91946E-001	-5.92877E-004	0.00000E+000	-5.91200E-001	-8.62605E-004	9	..........a	0	-327.74
	10944	21.89	-5.95133E-001	-5.94164E-004	0.00000E+000	-5.94400E-001	-8.37606E-004	9	..........a	0	-327.74
	10976	21.954	-5.98396E-001	-5.96337E-004	0.00000E+000	-5.97600E-001	-8.12605E-004	9	..........a	0	-327.74
	11008	22.018	-6.01537E-001	-5.98515E-004	0.00000E+000	-6.00800E-001	-8.12605E-004	9	..........a	0	-327.74
	11040	22.082	-6.04733E-001	-5.99985E-004	0.00000E+000	-6.04000E-001	-8.04272E-004	9	..........a	0	-327.74
	11072	22.146	-6.07954E-001	-6.01298E-004	0.00000E+000	-6.07200E-001	-9.20939E-004	9	..........a	0	-327.74
	11104	22.21	-6.11150E-001	-6.01954E-004	0.00000E+000	-6.10400E-001	-8.45939E-004	9	..........a	0	-327.74
	11136	22.274	-6.14287E-001	-6.02367E-004	0.00000E+000	-6.13600E-001	-8.54272E-004	9	..........a	0	-327.74
	11168	22.338	-6.17504E-001	-6.03312E-004	0.00000E+000	-6.16800E-001	-8.45939E-004	9	..........a	0	-327.74
	11200	22.402	-6.20729E-001	-6.00955E-004	0.00000E+000	-6.20000E-001	-7.62605E-004	9	..........a	0	-327.74
	11232	22.466	-6.23950E-001	-6.02221E-004	0.00000E+000	-6.23200E-001	-8.45939E-004	9	..........a	0	-327.74
	11264	22.53	-6.27087E-001	-6.04991E-004	0.00000E+000	-6.26400E-001	-8.54272E-004	9	..........a	0	-327.74
	11296	22.594	-6.30304E-001	-6.02614E-004	0.00000E+000	-6.29600E-001	-8.54272E-004	9	..........a	0	-327.74
	11328	22.658	-6.33521E-001	-6.03842E-004	0.00000E+000	-6.32800E-001	-8.54272E-004	9	..........a	0	-327.74
	11360	22.722	-6.36746E-001	-6.03333E-004	0.00000E+000	-6.36000E-001	-8.45939E-004	9	..........a	0	-327.74
	11392	22.786	-6.39892E-001	-6.06851E-004	0.00000E+000	-6.39200E-001	-8.37606E-004	9	..........a	0	-327.74
	11424	22.85	-6.43075E-001	-6.08690E-004	0.00000E+000	-6.42400E-001	-8.54272E-004	9	..........a	0	-327.74
	11456	22.914	-6.46383E-001	-6.09337E-004	0.00000E+000	-6.45600E-001	-8.37606E-004	9	..........a	0	-327.74
	11488	22.978	-6.49533E-001	-6.08217E-004	0.00000E+000	-6.48800E-001	-8.37606E-004	9	..........a	0	-327.74
	11520	23.042	-6.52687E-001	-6.05798E-004	0.00000E+000	-6.52000E-001	-8.20939E-004	9	..........a	0	-327.74
	11552	23.106	-6.55921E-001	-6.08907E-004	0.00000E+000	-6.55200E-001	-8.29272E-004	9	..........a	0	-327.74
	11584	23.17	-6.59096E-001	-6.09638E-004	0.00000E+000	-6.58400E-001	-8.29272E-004	9	..........a	0	-327.74
	11616	23.234	-6.62367E-001	-6.06625E-004	0.00000E+000	-6.61600E-001	-8.37606E-004	9	..........a	0	-327.74
	11648	23.298	-6.65533E-001	-6.06684E-004	0.00000E+000	-6.64800E-001	-8.45939E-004	9	..........a	0	-327.74
	11680	23.362	-6.68721E-001	-6.08928E-004	0.00000E+000	-6.68000E-001	-8.62605E-004	9	..........a	0	-327.74
	11712	23.426	-6.71908E-001	-6.08999E-004	0.00000E+000	-6.71200E-001	-8.37606E-004	9	..........a	0	-327.74
	11744	23.49	-6.75154E-001	-6.10056E-004	0.00000E+000	-6.74400E-001	-8.20939E-004	9	..........a	0	-327.74
	11776	23.554	-6.78304E-001	-6.07173E-004	0.00000E+000	-6.77600E-001	-8.45939E-004	9	..........a	0	-327.74
	11808	23.618	-6.81521E-001	-6.07419E-004	0.00000E+000	-6.80800E-001	-8.37606E-004	9	..........a	0	-327.74
	11840	23.682	-6.84721E-001	-6.07139E-004	0.00000E+000	-6.84000E-001	-7.70939E-004	9	..........a	0	-327.74
	11872	23.746	-6.87921E-001	-6.08836E-004	0.00000E+000	-6.87200E-001	-8.04272E-004	9	..........a	0	-327.74
	11904	23.81	-6.91121E-001	-6.08790E-004	0.00000E+000	-6.90400E-001	-9.04272E-004	9	..........a	0	-327.74
	11936	23.874	-6.94283E-001	-6.10436E-004	0.00000E+000	-6.93600E-001	-8.20939E-004	9	..........a	0	-327.74
	11968	23.938	-6.97517E-001	-6.09183E-004	0.00000E+000	-6.96800E-001	-8.37606E-004	9	..........a	0	-327.74
	12000	24.002	-7.00708E-001	-6.08589E-004	0.00000E+000	-7.00000E-001	-8.29272E-004	9	..........a	0	-327.74
	12032	24.066	-7.03883E-001	-6.05957E-004	0.00000E+000	-7.03200E-001	-8.54272E-004	9	..........a	0	-327.74
	12064	24.13	-7.07108E-001	-6.10240E-004	0.00000E+000	-7.06400E-001	-8.20939E-004	9	..........a	0	-327.74
	12096	24.194	-7.10308E-001	-6.10854E-004	0.00000E+000	-7.09600E-001	-8.95939E-004	9	..........a	0	-327.74
	12128	24.258	-7.13546E-001	-6.08251E-004	0.00000E+000	-7.12800E-001	-8.62605E-004	9	..........a	0	-327.74
	12160	24.322	-7.16696E-001	-6.12609E-004	0.00000E+000	-7.16000E-001	-8.37606E-004	9	..........a	0	-327.74
	12192	24.386	-7.19908E-001	-6.09412E-004	0.00000E+000	-7.19200E-001	-7.70939E-004	9	..........a	0	-327.74
	12224	24.45	-7.23112E-001	-6.09768E-004	0.00000E+000	-7.22400E-001	-8.87605E-004	9	..........a	0	-327.74
	12256	24.514	-7.26304E-001	-6.10023E-004	0.00000E+000	-7.25600E-001	-8.70939E-004	9	..........a	0	-327.74
	12288	24.578	-7.29462E-001	-6.10908E-004	0.00000E+000	-7.28800E-001	-7.54272E-004	9	..........a	0	-327.74
	12320	24.642	-7.32687E-001	-6.12501E-004	0.00000E+000	-7.32000E-001	-8.37606E-004	9	..........a	0	-327.74
	12352	24.706	-7.35871E-001	-6.10081E-004	0.00000E+000	-7.35200E-001	-7.87605E-004	9	..........a	0	-327.74
	12384	24.77	-7.39108E-001	-6.08765E-004	0.00000E+000	-7.38400E-001	-8.54272E-004	9	..........a	0	-327.74
	12416	24.834	-7.42258E-001	-6.11151E-004	0.00000E+000	-7.41600E-001	-8.45939E-004	9	..........a	0	-327.74
	12448	24.898	-7.45508E-001	-6.10507E-004	0.00000E+000	-7.44800E-001	-8.29272E-004	9	..........a	0	-327.74
	12480	24.962	-7.48679E-001	-6.06345E-004	0.00000E+000	-7.48000E-001	-8.37606E-004	9	..........a	0	-327.74
	12512	25.026	-7.51929E-001	-6.08919E-004	0.00000E+000	-7.51200E-001	-8.04272E-004	9	..........a	0	-327.74
	12544	25.09	-7.55071E-001	-6.11916E-004	0.00000E+000	-7.54400E-001	-8.45939E-004	9	..........a	0	-327.74
	12576	25.154	-7.58267E-001	-6.07954E-004	0.00000E+000	-7.57600E-001	-8.62605E-004	9	..........a	0	-327.74
	12608	25.218	-7.61492E-001	-6.08355E-004	0.00000E+000	-7.60800E-001	-8.12605E-004	9	..........a	0	-327.74
	12640	25.282	-7.64717E-001	-6.06726E-004	0.00000E+000	-7.64000E-001	-8.37606E-004	9	..........a	0	-327.74
	12672	25.346	-7.67883E-001	-6.10110E-004	0.00000E+000	-7.67200E-001	-7.95939E-004	9	..........a	0	-327.74
	12704	25.41	-7.71092E-001	-6.11481E-004	0.00000E+000	-7.70400E-001	-8.54272E-004	9	..........a	0	-327.74
	12736	25.474	-7.74279E-001	-6.10687E-004	0.00000E+000	-7.73600E-001	-8.45939E-004	9	..........a	0	-327.74
	12768	25.538	-7.77504E-001	-6.12421E-004	0.00000E+000	-7.76800E-001	-8.45939E-004	9	..........a	0	-327.74
	12800	25.602	-7.80683E-001	-6.09417E-004	0.00000E+000	-7.80000E-001	-8.45939E-004	9	..........a	0	-327.74
	12832	25.666	-7.83883E-001	-6.10035E-004	0.00000E+000	-7.83200E-001	-8.62605E-004	9	..........a	0	-327.74
	12864	25.73	-7.87075E-001	-6.12133E-004	0.00000E+000	-7.86400E-001	-8.62605E-004	9	..........a	0	-327.74
	12896	25.794	-7.90300E-001	-6.13182E-004	0.00000E+000	-7.89600E-001	-7.70939E-004	9	..........a	0	-327.74
	12928	25.858	-7.93475E-001	-6.10850E-004	0.00000E+000	-7.92800E-001	-8.29272E-004	9	..........a	0	-327.74
	12960	25.922	-7.96683E-001	-6.09634E-004	0.00000E+000	-7.96000E-001	-8.62605E-004	9	..........a	0	-327.74
	12992	25.986	-7.99921E-001	-6.10733E-004	0.00000E+000	-7.99200E-001	-8.45939E-004	9	..........a	0	-327.74
	13024	26.05	-8.03104E-001	-6.08171E-004	0.00000E+000	-8.02400E-001	-8.54272E-004	9	..........a	0	-327.74
	13056	26.114	-8.06237E-001	-6.08196E-004	0.00000E+000	-8.05600E-001	-8.54272E-004	9	..........a	0	-327.74
	13088	26.178	-8.09433E-001	-6.10466E-004	0.00000E+000	-8.08800E-001	-8.12605E-004	9	..........a	0	-327.74
	13120	26.242	-8.12662E-001	-6.12104E-004	0.00000E+000	-8.12000E-001	-8.37606E-004	9	..........a	0	-327.74
	13152	26.306	-8.15850E-001	-6.09751E-004	0.00000E+000	-8.15200E-001	-8.54272E-004	9	..........a	0	-327.74
	13184	26.37	-8.19029E-001	-6.09392E-004	0.00000E+000	-8.18400E-001	-8.79272E-004	9	..........a	0	-327.74
	13216	26.434	-8.22246E-001	-6.08635E-004	0.00000E+000	-8.21600E-001	-7.87605E-004	9	..........a	0	-327.74
	13248	26.498	-8.25471E-001	-6.10499E-004	0.00000E+000	-8.24800E-001	-8.45939E-004	9	..........a	0	-327.74
	13280	26.562	-8.28617E-001	-6.10946E-004	0.00000E+000	-8.28000E-001	-8.70939E-004	9	..........a	0	-327.74
	13312	26.626	-8.31779E-001	-6.11535E-004	0.00000E+000	-8.31200E-001	-8.37606E-004	9	..........a	0	-327.74
	13344	26.69	-8.35033E-001	-6.10453E-004	0.00000E+000	-8.34400E-001	-8.12605E-004	9	..........a	0	-327.74
	13376	26.754	-8.38221E-001	-6.10461E-004	0.00000E+000	-8.37600E-001	-8.45939E-004	9	..........a	0	-327.74
	13408	26.818	-8.41417E-001	-6.10039E-004	0.00000E+000	-8.40800E-001	-8.87605E-004	9	..........a	0	-327.74
	13440	26.882	-8.44612E-001	-6.09972E-004	0.00000E+000	-8.44000E-001	-8.04272E-004	9	..........a	0	-327.74
	13472	26.946	-8.47850E-001	-6.10257E-004	0.00000E+000	-8.47200E-001	-8.37606E-004	9	..........a	0	-327.74
	13504	27.01	-8.50987E-001	-6.09333E-004	0.00000E+000	-8.50400E-001	-8.04272E-004	9	..........a	0	-327.74
	13536	27.074	-8.54196E-001	-6.11498E-004	0.00000E+000	-8.53600E-001	-8.54272E-004	9	..........a	0	-327.74
	13568	27.138	-8.57375E-001	-6.11631E-004	0.00000E+000	-8.56800E-001	-8.20939E-004	9	..........a	0	-327.74
	13600	27.202	-8.60567E-001	-6.11803E-004	0.00000E+000	-8.60000E-001	-8.20939E-004	9	..........a	0	-327.74
	13632	27.266	-8.63771E-001	-6.10010E-004	0.00000E+000	-8.63200E-001	-8.12605E-004	9	..........a	0	-327.74
	13664	27.33	-8.66987E-001	-6.09325E-004	0.00000E+000	-8.66400E-001	-8.45939E-004	9	..........a	0	-327.74
	13696	27.394	-8.70200E-001	-6.10231E-004	0.00000E+000	-8.69600E-001	-8.62605E-004	9	..........a	0	-327.74
	13728	27.458	-8.73400E-001	-6.10674E-004	0.00000E+000	-8.72800E-001	-8.12605E-004	9	..........a	0	-327.74
	13760	27.522	-8.76662E-001	-6.10382E-004	0.00000E+000	-8.76000E-001	-8.12605E-004	9	..........a	0	-327.74
	13792	27.586	-8.79908E-001	-6.13733E-004	0.00000E+000	-8.79200E-001	-8.54272E-004	9	..........a	0	-327.74
	13824	27.65	-8.82971E-001	-6.10796E-004	0.00000E+000	-8.82400E-001	-8.04272E-004	9	..........a	0	-327.74
	13856	27.714	-8.86175E-001	-6.10056E-004	0.00000E+000	-8.85600E-001	-8.45939E-004	9	..........a	0	-327.74
	13888	27.778	-8.89392E-001	-6.07921E-004	0.00000E+000	-8.88800E-001	-8.29272E-004	9	..........a	0	-327.74
	13920	27.842	-8.92554E-001	-6.09584E-004	0.00000E+000	-8.92000E-001	-8.20939E-004	9	..........a	0	-327.74
	13952	27.906	-8.95800E-001	-6.12555E-004	0.00000E+000	-8.95200E-001	-8.54272E-004	9	..........a	0	-327.74
	13984	27.97	-8.99033E-001	-6.10549E-004	0.00000E+000	-8.98400E-001	-8.29272E-004	9	..........a	0	-327.74
	14016	28.034	-9.02196E-001	-6.10181E-004	0.00000E+000	-9.01600E-001	-7.87605E-004	9	..........a	0	-327.74
	14048	28.098	-9.05421E-001	-6.10415E-004	0.00000E+000	-9.04800E-001	-8.54272E-004	9	..........a	0	-327.74
	14080	28.162	-9.08558E-001	-6.08071E-004	0.00000E+000	-9.08000E-001	-8.12605E-004	9	..........a	0	-327.74
	14112	28.226	-9.11758E-001	-6.10240E-004	0.00000E+000	-9.11200E-001	-8.62605E-004	9	..........a	0	-327.74
	14144	28.29	-9.14971E-001	-6.08940E-004	0.00000E+000	-9.14400E-001	-8.37606E-004	9	..........a	0	-327.74
	14176	28.354	-9.18212E-001	-6.10528E-004	0.00000E+000	-9.17600E-001	-8.04272E-004	9	..........a	0	-327.74
	14208	28.418	-9.21421E-001	-6.11489E-004	0.00000E+000	-9.20800E-001	-8.45939E-004	9	..........a	0	-327.74
	14240	28.482	-9.24621E-001	-6.10700E-004	0.00000E+000	-9.24000E-001	-7.95939E-004	9	..........a	0	-327.74
	14272	28.546	-9.27767E-001	-6.10691E-004	0.00000E+000	-9.27200E-001	-8.37606E-004	9	..........a	0	-327.74
	14304	28.61	-9.30962E-001	-6.11447E-004	0.00000E+000	-9.30400E-001	-8.62605E-004	9	..........a	0	-327.74
	14336	28.674	-9.34154E-001	-6.08861E-004	0.00000E+000	-9.33600E-001	-8.54272E-004	9	..........a	0	-327.74
	14368	28.738	-9.37350E-001	-6.07570E-004	0.00000E+000	-9.36800E-001	-8.20939E-004	9	..........a	0	-327.74
	14400	28.802	-9.40579E-001	-6.08188E-004	0.00000E+000	-9.40000E-001	-8.20939E-004	9	..........a	0	-327.74
	14432	28.866	-9.43762E-001	-6.09525E-004	0.00000E+000	-9.43200E-001	-8.54272E-004	9	..........a	0	-327.74
	14464	28.93	-9.46971E-001	-6.13733E-004	0.00000E+000	-9.46400E-001	-8.04272E-004	9	..........a	0	-327.74
	14496	28.994	-9.50175E-001	-6.12275E-004	0.00000E+000	-9.49600E-001	-8.62605E-004	9	..........a	0	-327.74
	14528	29.058	-9.53358E-001	-6.14293E-004	0.00000E+000	-9.52800E-001	-8.54272E-004	9	..........a	0	-327.74
	14560	29.122	-9.56646E-001	-6.13562E-004	0.00000E+000	-9.56000E-001	-7.87605E-004	9	..........a	0	-327.74
	14592	29.186	-9.59742E-001	-6.13654E-004	0.00000E+000	-9.59200E-001	-8.45939E-004	9	..........a	0	-327.74
	14624	29.25	-9.62971E-001	-6.15518E-004	0.00000E+000	-9.62400E-001	-8.70939E-004	9	..........a	0	-327.74
	14656	29.314	-9.66117E-001	-6.12300E-004	0.00000E+000	-9.65600E-001	-8.54272E-004	9	..........a	0	-327.74
	14688	29.378	-9.69337E-001	-6.11452E-004	0.00000E+000	-9.68800E-001	-8.04272E-004	9	..........a	0	-327.74
	14720	29.442	-9.72550E-001	-6.13027E-004	0.00000E+000	-9.72000E-001	-7.87605E-004	9	..........a	0	-327.74
	14752	29.506	-9.75725E-001	-6.10023E-004	0.00000E+000	-9.75200E-001	-8.29272E-004	9	..........a	0	-327.74
	14784	29.57	-9.79004E-001	-6.11928E-004	0.00000E+000	-9.78400E-001	-8.62605E-004	9	..........a	0	-327.74
	14816	29.634	-9.82217E-001	-6.09116E-004	0.00000E+000	-9.81600E-001	-8.45939E-004	9	..........a	0	-327.74
	14848	29.698	-9.85329E-001	-6.11510E-004	0.00000E+000	-9.84800E-001	-8.04272E-004	9	..........a	0	-327.74
	14880	29.762	-9.88517E-001	-6.11916E-004	0.00000E+000	-9.88000E-001	-8.79272E-004	9	..........a	0	-327.74
	14912	29.826	-9.91758E-001	-6.09463E-004	0.00000E+000	-9.91200E-001	-8.12605E-004	9	..........a	0	-327.74
	14944	29.89	-9.94946E-001	-6.09082E-004	0.00000E+000	-9.94400E-001	-8.45939E-004	9	..........a	0	-327.74
	14976	29.954	-9.98146E-001	-6.12354E-004	0.00000E+000	-9.97600E-001	-8.29272E-004	9	..........a	0	-327.74
	15000	30.002	-1.00048E+000	-6.10950E-004	0.00000E+000	-1.00000E+000	-8.29272E-004	9	..........a	0	-327.74