File: data/02-SI/Figures_S9_S11_RDE/18btmapaq-rde/1mkcl-18btmapaq-nitrogen-400mvpers.DTA
EXPLAIN
TAG	CV
TITLE	LABEL	Cyclic Voltammetry	Test &Identifier
DATE	LABEL	1/31/2023	Date
TIME	LABEL	15:21:10	Time
NOTES	NOTES	1	&Notes...

PSTAT	PSTAT	REF3000-21108	Potentiostat
VINIT	POTEN	5.00000E-001	F	Initial &E (V)
VLIMIT1	POTEN	-1.00000E+000	F	Scan Limit &1 (V)
VLIMIT2	POTEN	5.00000E-001	F	Scan Limit &2 (V)
VFINAL	POTEN	5.00000E-001	F	Final &E (V)
SCANRATE	QUANT	3.99999E+002	&Scan Rate (mV/s)
STEPSIZE	QUANT	1.00000E+000	St&ep Size (mV)
CYCLES	IQUANT	1	C&ycles (#)
IMODE	SELECTOR	1	I/E Range &Mode
IRANGE	QUANT	1.00000E+001	&Max Current (mA)
AREA	QUANT	1.00000E+000	Electrode &Area (cm^2)
ELECTRODETYPE	SELECTOR	0	Electrode Type
STRIPPING	TOGGLE	F	Used for Stripping
POLARITY	TOGGLE	F	Signal Polarity
CONDIT	TWOPARAM	F	1.50000E+001	0.00000E+000	Conditionin&g	Time(s)	E(V)
DELAY	TWOPARAM	F	5.00000E+000	0.00000E+000	Init. De&lay	Time(s)	Stab.(mV/s)
EQDELAY	QUANT	0.00000E+000	Equil. &Time (s)
IRCOMP	SELECTOR	0	IRCom&p
PFCOR	QUANT	5.00000E+001	PF Corr. (ohm)
SAMPLINGMODE	SELECTOR	1	Sampling &Mode
EOC	QUANT	0	Open Circuit (V)
PSTATMODEL	IQUANT	5	Pstat Model
PSTATSECTION	LABEL	REF3000-21108	Pstat Section
PSTATSERIALNO	LABEL	21108	Pstat Serial Number
CTRLMODE	IQUANT	1	Control Mode
ELECTROMETER	IQUANT	0	RE=0 or CS=1
IESTAB	IQUANT	2	I/E Stability
CASPEED	IQUANT	4	Control Amp Speed
CONVENTION	IQUANT	1	Current Convention
ICHRANGE	IQUANT	2	Ich Range
ICHRANGEMODE	TOGGLE	F	Ich Auto Range
ICHOFFSETENABLE	TOGGLE	F	Ich Offset Enable
ICHOFFSET	QUANT	0	Ich Offset (V)
ICHFILTER	IQUANT	2	Ich Filter
VCHRANGE	IQUANT	2	Vch Range
VCHRANGEMODE	TOGGLE	F	Vch Auto Range
VCHOFFSETENABLE	TOGGLE	F	Vch Offset Enable
VCHOFFSET	QUANT	0	Vch Offset (V)
VCHFILTER	IQUANT	2	Vch Filter
ACHRANGE	IQUANT	2	Ach Range
ACHOFFSETENABLE	TOGGLE	F	Ach Offset Enable
ACHOFFSET	QUANT	0	Ach Offset (V)
ACHFILTER	IQUANT	0	Ach Filter
IERANGELOWERLIMIT	IQUANT	2	I/E Range Lower Limit
IERANGEMODE	TOGGLE	F	I/E AutoRange
IERANGE	IQUANT	10	I/E Range
POSFEEDENABLE	TOGGLE	F	Positive Feedback IR Comp
POSFEEDRESISTANCE	QUANT	0	Positive Feedback Resistance (ohm)
ACHSELECT	IQUANT	0	Ach Select
SENSECABLEID	IQUANT	14	Sense Cable ID
PWRCABLEID	IQUANT	7	Power Cable ID
DCCALDATE	LABEL	11/9/2022	DC Calibration Date
ACCALDATE	LABEL	11/9/2022	AC Calibration Date
THERMOSELECT	IQUANT	1	Thermo Select
FRAMEWORKVERSION	LABEL	7.8.2	Framework Version
INSTRUMENTVERSION	LABEL	4.40	Instrument Version
COMPLIANCEVOLTAGE	IQUANT	0	Compliance Voltage
CURVE1	TABLE
	Pt	T	Vf	Im	Vu	Sig	Ach	IERange	Over	Temp
	#	s	V vs. Ref.	A	V	V	V	#	bits	deg C
	0	0.0025	4.98808E-001	1.48260E-005	0.00000E+000	5.00000E-001	-7.89272E-004	10	..........a	-327.74
	7	0.02	4.91854E-001	8.84386E-006	0.00000E+000	4.93000E-001	-7.35939E-004	10	..........a	-327.74
	14	0.0375	4.84824E-001	6.83867E-006	0.00000E+000	4.86000E-001	-7.49272E-004	10	..........a	-327.74
	21	0.055	4.77881E-001	4.53270E-006	0.00000E+000	4.79000E-001	-7.95939E-004	10	..........a	-327.74
	28	0.0725	4.70804E-001	3.36301E-006	0.00000E+000	4.72000E-001	-8.29272E-004	10	..........a	-327.74
	35	0.09	4.63781E-001	2.39384E-006	0.00000E+000	4.65000E-001	-8.02606E-004	10	..........a	-327.74
	42	0.1075	4.56861E-001	1.99280E-006	0.00000E+000	4.58000E-001	-7.62605E-004	10	..........a	-327.74
	49	0.125	4.49798E-001	1.22414E-006	0.00000E+000	4.51000E-001	-8.15939E-004	10	..........a	-327.74
	56	0.1425	4.42868E-001	4.22067E-007	0.00000E+000	4.44000E-001	-8.02606E-004	10	..........a	-327.74
	63	0.16	4.35868E-001	4.88906E-007	0.00000E+000	4.37000E-001	-7.89272E-004	10	..........a	-327.74
	70	0.1775	4.28831E-001	-3.80008E-007	0.00000E+000	4.30000E-001	-7.95939E-004	10	..........a	-327.74
	77	0.195	4.21854E-001	-3.46589E-007	0.00000E+000	4.23000E-001	-7.75939E-004	10	..........a	-327.74
	84	0.2125	4.14858E-001	-3.46589E-007	0.00000E+000	4.16000E-001	-8.35939E-004	10	..........a	-327.74
	91	0.23	4.07831E-001	-9.81565E-007	0.00000E+000	4.09000E-001	-7.89272E-004	10	..........a	-327.74
	98	0.2475	4.00874E-001	-1.51628E-006	0.00000E+000	4.02000E-001	-7.55939E-004	10	..........a	-327.74
	105	0.265	3.93834E-001	-1.41602E-006	0.00000E+000	3.95000E-001	-7.55939E-004	10	..........a	-327.74
	112	0.2825	3.86838E-001	-1.75022E-006	0.00000E+000	3.88000E-001	-7.35939E-004	10	..........a	-327.74
	119	0.3	3.79748E-001	-2.41862E-006	0.00000E+000	3.81000E-001	-7.49272E-004	10	..........a	-327.74
	126	0.3175	3.72748E-001	-2.71939E-006	0.00000E+000	3.74000E-001	-7.35939E-004	10	..........a	-327.74
	133	0.335	3.65854E-001	-3.18727E-006	0.00000E+000	3.67000E-001	-7.29272E-004	10	..........a	-327.74
	140	0.3525	3.58824E-001	-3.15385E-006	0.00000E+000	3.60000E-001	-7.15939E-004	10	..........a	-327.74
	147	0.37	3.51764E-001	-3.45463E-006	0.00000E+000	3.53000E-001	-7.22606E-004	10	..........a	-327.74
	154	0.3875	3.44881E-001	-3.85567E-006	0.00000E+000	3.46000E-001	-7.42605E-004	10	..........a	-327.74
	161	0.405	3.37841E-001	-3.82225E-006	0.00000E+000	3.39000E-001	-7.69272E-004	10	..........a	-327.74
	168	0.4225	3.30868E-001	-3.65515E-006	0.00000E+000	3.32000E-001	-6.82606E-004	10	..........a	-327.74
	175	0.44	3.23771E-001	-3.62173E-006	0.00000E+000	3.25000E-001	-7.35939E-004	10	..........a	-327.74
	182	0.4575	3.16891E-001	-3.92251E-006	0.00000E+000	3.18000E-001	-7.49272E-004	10	..........a	-327.74
	189	0.475	3.09894E-001	-3.75541E-006	0.00000E+000	3.11000E-001	-7.55939E-004	10	..........a	-327.74
	196	0.4925	3.02868E-001	-4.02277E-006	0.00000E+000	3.04000E-001	-7.82606E-004	10	..........a	-327.74
	203	0.51	2.95738E-001	-3.95593E-006	0.00000E+000	2.97000E-001	-7.35939E-004	10	..........a	-327.74
	210	0.5275	2.88924E-001	-4.18987E-006	0.00000E+000	2.90000E-001	-7.35939E-004	10	..........a	-327.74
	217	0.545	2.81874E-001	-3.85567E-006	0.00000E+000	2.83000E-001	-7.49272E-004	10	..........a	-327.74
	224	0.5625	2.74874E-001	-3.92251E-006	0.00000E+000	2.76000E-001	-7.75939E-004	10	..........a	-327.74
	231	0.58	2.67894E-001	-4.08961E-006	0.00000E+000	2.69000E-001	-7.09272E-004	10	..........a	-327.74
	238	0.5975	2.60854E-001	-4.08961E-006	0.00000E+000	2.62000E-001	-7.35939E-004	10	..........a	-327.74
	245	0.615	2.53931E-001	-3.72199E-006	0.00000E+000	2.55000E-001	-7.09272E-004	10	..........a	-327.74
	252	0.6325	2.46861E-001	-4.15645E-006	0.00000E+000	2.48000E-001	-7.89272E-004	10	..........a	-327.74
	259	0.65	2.39921E-001	-3.95593E-006	0.00000E+000	2.41000E-001	-7.49272E-004	10	..........a	-327.74
	266	0.6675	2.32948E-001	-3.88909E-006	0.00000E+000	2.34000E-001	-7.35939E-004	10	..........a	-327.74
	273	0.685	2.25911E-001	-3.95593E-006	0.00000E+000	2.27000E-001	-7.49272E-004	10	..........a	-327.74
	280	0.7025	2.18861E-001	-3.82225E-006	0.00000E+000	2.20000E-001	-7.62605E-004	10	..........a	-327.74
	287	0.72	2.11908E-001	-3.95593E-006	0.00000E+000	2.13000E-001	-7.42605E-004	10	..........a	-327.74
	294	0.7375	2.04921E-001	-4.08961E-006	0.00000E+000	2.06000E-001	-7.15939E-004	10	..........a	-327.74
	301	0.755	1.97924E-001	-4.02277E-006	0.00000E+000	1.99000E-001	-7.22606E-004	10	..........a	-327.74
	308	0.7725	1.90928E-001	-3.92251E-006	0.00000E+000	1.92000E-001	-7.89272E-004	10	..........a	-327.74
	315	0.79	1.83921E-001	-4.22329E-006	0.00000E+000	1.85000E-001	-7.29272E-004	10	..........a	-327.74
	322	0.8075	1.77018E-001	-4.32354E-006	0.00000E+000	1.78000E-001	-7.29272E-004	10	..........a	-327.74
	329	0.825	1.69894E-001	-4.32354E-006	0.00000E+000	1.71000E-001	-7.02605E-004	10	..........a	-327.74
	336	0.8425	1.62928E-001	-4.32354E-006	0.00000E+000	1.64000E-001	-7.35939E-004	10	..........a	-327.74
	343	0.86	1.55941E-001	-3.92251E-006	0.00000E+000	1.57000E-001	-7.22606E-004	10	..........a	-327.74
	350	0.8775	1.48918E-001	-4.18987E-006	0.00000E+000	1.50000E-001	-7.02605E-004	10	..........a	-327.74
	357	0.895	1.41941E-001	-4.35696E-006	0.00000E+000	1.43000E-001	-7.42605E-004	10	..........a	-327.74
	364	0.9125	1.34928E-001	-4.29012E-006	0.00000E+000	1.36000E-001	-7.29272E-004	10	..........a	-327.74
	371	0.93	1.27971E-001	-4.05619E-006	0.00000E+000	1.29000E-001	-7.95939E-004	10	..........a	-327.74
	378	0.9475	1.20994E-001	-4.05619E-006	0.00000E+000	1.22000E-001	-7.09272E-004	10	..........a	-327.74
	385	0.965	1.13961E-001	-4.39038E-006	0.00000E+000	1.15000E-001	-6.75939E-004	10	..........a	-327.74
	392	0.9825	1.06938E-001	-4.42380E-006	0.00000E+000	1.08000E-001	-6.29272E-004	10	..........a	-327.74
	399	1	9.99444E-002	-4.12303E-006	0.00000E+000	1.01000E-001	-7.35939E-004	10	..........a	-327.74
	406	1.0175	9.28944E-002	-4.39038E-006	0.00000E+000	9.40000E-002	-7.55939E-004	10	..........a	-327.74
	413	1.035	8.59677E-002	-4.42380E-006	0.00000E+000	8.70000E-002	-7.82606E-004	10	..........a	-327.74
	420	1.0525	7.89044E-002	-4.29012E-006	0.00000E+000	8.00000E-002	-7.15939E-004	10	..........a	-327.74
	427	1.07	7.20044E-002	-4.42380E-006	0.00000E+000	7.30000E-002	-7.02605E-004	10	..........a	-327.74
	434	1.0875	6.50177E-002	-4.45722E-006	0.00000E+000	6.60000E-002	-7.15939E-004	10	..........a	-327.74
	441	1.105	5.79844E-002	-4.18987E-006	0.00000E+000	5.90000E-002	-6.89272E-004	10	..........a	-327.74
	448	1.1225	5.09211E-002	-4.35696E-006	0.00000E+000	5.20000E-002	-7.49272E-004	10	..........a	-327.74
	455	1.14	4.39377E-002	-4.29012E-006	0.00000E+000	4.50000E-002	-7.49272E-004	10	..........a	-327.74
	462	1.1575	3.70077E-002	-4.42380E-006	0.00000E+000	3.80000E-002	-7.22606E-004	10	..........a	-327.74
	469	1.175	2.99677E-002	-4.49064E-006	0.00000E+000	3.10000E-002	-7.29272E-004	10	..........a	-327.74
	476	1.1925	2.29577E-002	-4.49064E-006	0.00000E+000	2.40000E-002	-6.69272E-004	10	..........a	-327.74
	483	1.21	1.59744E-002	-4.32354E-006	0.00000E+000	1.70000E-002	-7.22606E-004	10	..........a	-327.74
	490	1.2275	9.02439E-003	-4.62432E-006	0.00000E+000	9.99999E-003	-7.29272E-004	10	..........a	-327.74
	497	1.245	1.98773E-003	-4.62432E-006	0.00000E+000	2.99999E-003	-6.75939E-004	10	..........a	-327.74
	504	1.2625	-5.05560E-003	-4.42380E-006	0.00000E+000	-4.00001E-003	-7.15939E-004	10	..........a	-327.74
	511	1.28	-1.20823E-002	-4.59090E-006	0.00000E+000	-1.10000E-002	-7.49272E-004	10	..........a	-327.74
	518	1.2975	-1.90223E-002	-4.55748E-006	0.00000E+000	-1.80000E-002	-7.82606E-004	10	..........a	-327.74
	525	1.315	-2.59723E-002	-4.55748E-006	0.00000E+000	-2.50000E-002	-6.95939E-004	10	..........a	-327.74
	532	1.3325	-3.30089E-002	-4.55748E-006	0.00000E+000	-3.20000E-002	-6.95939E-004	10	..........a	-327.74
	539	1.35	-3.99723E-002	-4.45722E-006	0.00000E+000	-3.90000E-002	-7.89272E-004	10	..........a	-327.74
	546	1.3675	-4.69623E-002	-4.42380E-006	0.00000E+000	-4.60000E-002	-7.02605E-004	10	..........a	-327.74
	553	1.385	-5.39823E-002	-4.59090E-006	0.00000E+000	-5.30000E-002	-6.82606E-004	10	..........a	-327.74
	560	1.4025	-6.10789E-002	-4.55748E-006	0.00000E+000	-6.00000E-002	-6.75939E-004	10	..........a	-327.74
	567	1.42	-6.79856E-002	-4.82484E-006	0.00000E+000	-6.70000E-002	-6.82606E-004	10	..........a	-327.74
	574	1.4375	-7.50023E-002	-4.49064E-006	0.00000E+000	-7.40000E-002	-7.42605E-004	10	..........a	-327.74
	581	1.455	-8.19689E-002	-4.65774E-006	0.00000E+000	-8.10000E-002	-7.55939E-004	10	..........a	-327.74
	588	1.4725	-8.90789E-002	-4.52406E-006	0.00000E+000	-8.80000E-002	-7.42605E-004	10	..........a	-327.74
	595	1.49	-9.59756E-002	-4.89168E-006	0.00000E+000	-9.50000E-002	-7.55939E-004	10	..........a	-327.74
	602	1.5075	-1.02936E-001	-4.49064E-006	0.00000E+000	-1.02000E-001	-7.55939E-004	10	..........a	-327.74
	609	1.525	-1.09982E-001	-4.89168E-006	0.00000E+000	-1.09000E-001	-7.35939E-004	10	..........a	-327.74
	616	1.5425	-1.16992E-001	-4.62432E-006	0.00000E+000	-1.16000E-001	-7.29272E-004	10	..........a	-327.74
	623	1.56	-1.23939E-001	-4.72458E-006	0.00000E+000	-1.23000E-001	-7.49272E-004	10	..........a	-327.74
	630	1.5775	-1.30976E-001	-4.49064E-006	0.00000E+000	-1.30000E-001	-6.82606E-004	10	..........a	-327.74
	637	1.595	-1.37986E-001	-4.75800E-006	0.00000E+000	-1.37000E-001	-8.35939E-004	10	..........a	-327.74
	644	1.6125	-1.44966E-001	-4.79142E-006	0.00000E+000	-1.44000E-001	-7.09272E-004	10	..........a	-327.74
	651	1.63	-1.51949E-001	-4.99194E-006	0.00000E+000	-1.51000E-001	-7.42605E-004	10	..........a	-327.74
	658	1.6475	-1.58926E-001	-4.79142E-006	0.00000E+000	-1.58000E-001	-7.42605E-004	10	..........a	-327.74
	665	1.665	-1.65942E-001	-5.05878E-006	0.00000E+000	-1.65000E-001	-7.29272E-004	10	..........a	-327.74
	672	1.6825	-1.72946E-001	-5.09220E-006	0.00000E+000	-1.72000E-001	-6.95939E-004	10	..........a	-327.74
	679	1.7	-1.79922E-001	-5.09220E-006	0.00000E+000	-1.79000E-001	-7.02605E-004	10	..........a	-327.74
	686	1.7175	-1.86952E-001	-5.45982E-006	0.00000E+000	-1.86000E-001	-7.62605E-004	10	..........a	-327.74
	693	1.735	-1.93916E-001	-5.22588E-006	0.00000E+000	-1.93000E-001	-7.49272E-004	10	..........a	-327.74
	700	1.7525	-2.00929E-001	-5.59350E-006	0.00000E+000	-2.00000E-001	-6.95939E-004	10	..........a	-327.74
	707	1.77	-2.07899E-001	-5.86086E-006	0.00000E+000	-2.07000E-001	-6.82606E-004	10	..........a	-327.74
	714	1.7875	-2.14872E-001	-6.32873E-006	0.00000E+000	-2.14000E-001	-7.22606E-004	10	..........a	-327.74
	721	1.805	-2.21879E-001	-6.52925E-006	0.00000E+000	-2.21000E-001	-7.55939E-004	10	..........a	-327.74
	728	1.8225	-2.28862E-001	-7.36475E-006	0.00000E+000	-2.28000E-001	-6.89272E-004	10	..........a	-327.74
	735	1.84	-2.35879E-001	-7.56526E-006	0.00000E+000	-2.35000E-001	-7.22606E-004	10	..........a	-327.74
	742	1.8575	-2.42916E-001	-7.83262E-006	0.00000E+000	-2.42000E-001	-7.15939E-004	10	..........a	-327.74
	749	1.875	-2.49866E-001	-8.26708E-006	0.00000E+000	-2.49000E-001	-6.89272E-004	10	..........a	-327.74
	756	1.8925	-2.56872E-001	-8.30050E-006	0.00000E+000	-2.56000E-001	-7.35939E-004	10	..........a	-327.74
	763	1.91	-2.63916E-001	-9.16942E-006	0.00000E+000	-2.63000E-001	-7.09272E-004	10	..........a	-327.74
	770	1.9275	-2.70832E-001	-1.00049E-005	0.00000E+000	-2.70000E-001	-7.55939E-004	10	..........a	-327.74
	777	1.945	-2.77912E-001	-1.03725E-005	0.00000E+000	-2.77000E-001	-7.49272E-004	10	..........a	-327.74
	784	1.9625	-2.84919E-001	-1.13751E-005	0.00000E+000	-2.84000E-001	-7.82606E-004	10	..........a	-327.74
	791	1.98	-2.91819E-001	-1.21772E-005	0.00000E+000	-2.91000E-001	-7.49272E-004	10	..........a	-327.74
	798	1.9975	-2.98889E-001	-1.28456E-005	0.00000E+000	-2.98000E-001	-7.95939E-004	10	..........a	-327.74
	805	2.015	-3.05899E-001	-1.33135E-005	0.00000E+000	-3.05000E-001	-7.35939E-004	10	..........a	-327.74
	812	2.0325	-3.12832E-001	-1.47839E-005	0.00000E+000	-3.12000E-001	-7.49272E-004	10	..........a	-327.74
	819	2.05	-3.19852E-001	-1.55860E-005	0.00000E+000	-3.19000E-001	-7.09272E-004	10	..........a	-327.74
	826	2.0675	-3.26872E-001	-1.64884E-005	0.00000E+000	-3.26000E-001	-7.42605E-004	10	..........a	-327.74
	833	2.085	-3.33836E-001	-1.69562E-005	0.00000E+000	-3.33000E-001	-7.42605E-004	10	..........a	-327.74
	840	2.1025	-3.40852E-001	-1.79588E-005	0.00000E+000	-3.40000E-001	-6.62606E-004	10	..........a	-327.74
	847	2.12	-3.47859E-001	-1.91285E-005	0.00000E+000	-3.47000E-001	-7.09272E-004	10	..........a	-327.74
	854	2.1375	-3.54826E-001	-2.01311E-005	0.00000E+000	-3.54000E-001	-7.62605E-004	10	..........a	-327.74
	861	2.155	-3.61886E-001	-2.07995E-005	0.00000E+000	-3.61000E-001	-7.22606E-004	10	..........a	-327.74
	868	2.1725	-3.68916E-001	-2.15013E-005	0.00000E+000	-3.68000E-001	-6.75939E-004	10	..........a	-327.74
	875	2.19	-3.75849E-001	-2.25373E-005	0.00000E+000	-3.75000E-001	-6.62606E-004	10	..........a	-327.74
	882	2.2075	-3.82846E-001	-2.38407E-005	0.00000E+000	-3.82000E-001	-7.35939E-004	10	..........a	-327.74
	889	2.225	-3.89792E-001	-2.42083E-005	0.00000E+000	-3.89000E-001	-7.22606E-004	10	..........a	-327.74
	896	2.2425	-3.96816E-001	-2.50104E-005	0.00000E+000	-3.96000E-001	-6.55939E-004	10	..........a	-327.74
	903	2.26	-4.03792E-001	-2.59127E-005	0.00000E+000	-4.03000E-001	-7.55939E-004	10	..........a	-327.74
	910	2.2775	-4.10849E-001	-2.70156E-005	0.00000E+000	-4.10000E-001	-7.69272E-004	10	..........a	-327.74
	917	2.295	-4.17882E-001	-2.84526E-005	0.00000E+000	-4.17000E-001	-7.62605E-004	10	..........a	-327.74
	924	2.3125	-4.24832E-001	-3.05247E-005	0.00000E+000	-4.24000E-001	-7.35939E-004	10	..........a	-327.74
	931	2.33	-4.31832E-001	-3.39001E-005	0.00000E+000	-4.31000E-001	-7.09272E-004	10	..........a	-327.74
	938	2.3475	-4.38782E-001	-3.87459E-005	0.00000E+000	-4.38000E-001	-7.02605E-004	10	..........a	-327.74
	945	2.365	-4.45872E-001	-4.45944E-005	0.00000E+000	-4.45000E-001	-7.55939E-004	10	..........a	-327.74
	952	2.3825	-4.52846E-001	-5.26820E-005	0.00000E+000	-4.52000E-001	-7.02605E-004	10	..........a	-327.74
	959	2.4	-4.59732E-001	-6.32427E-005	0.00000E+000	-4.59000E-001	-7.55939E-004	10	..........a	-327.74
	966	2.4175	-4.66776E-001	-7.62764E-005	0.00000E+000	-4.66000E-001	-8.15939E-004	10	..........a	-327.74
	973	2.435	-4.73802E-001	-9.39220E-005	0.00000E+000	-4.73000E-001	-7.69272E-004	10	..........a	-327.74
	980	2.4525	-4.80819E-001	-1.14977E-004	0.00000E+000	-4.80000E-001	-6.75939E-004	10	..........a	-327.74
	987	2.47	-4.87799E-001	-1.42113E-004	0.00000E+000	-4.87000E-001	-7.82606E-004	10	..........a	-327.74
	994	2.4875	-4.94816E-001	-1.74597E-004	0.00000E+000	-4.94000E-001	-7.42605E-004	10	..........a	-327.74
	1001	2.505	-5.01812E-001	-2.13231E-004	0.00000E+000	-5.01000E-001	-7.42605E-004	10	..........a	-327.74
	1008	2.5225	-5.08796E-001	-2.59116E-004	0.00000E+000	-5.08000E-001	-7.69272E-004	10	..........a	-327.74
	1015	2.54	-5.15802E-001	-3.08811E-004	0.00000E+000	-5.15000E-001	-7.42605E-004	10	..........a	-327.74
	1022	2.5575	-5.22809E-001	-3.62183E-004	0.00000E+000	-5.22000E-001	-7.69272E-004	10	..........a	-327.74
	1029	2.575	-5.29812E-001	-4.16289E-004	0.00000E+000	-5.29000E-001	-7.29272E-004	10	..........a	-327.74
	1036	2.5925	-5.36769E-001	-4.66453E-004	0.00000E+000	-5.36000E-001	-7.49272E-004	10	..........a	-327.74
	1043	2.61	-5.43829E-001	-5.08762E-004	0.00000E+000	-5.43000E-001	-7.22606E-004	10	..........a	-327.74
	1050	2.6275	-5.50792E-001	-5.38673E-004	0.00000E+000	-5.50000E-001	-7.09272E-004	10	..........a	-327.74
	1057	2.645	-5.57776E-001	-5.55048E-004	0.00000E+000	-5.57000E-001	-7.29272E-004	10	..........a	-327.74
	1064	2.6625	-5.64776E-001	-5.55383E-004	0.00000E+000	-5.64000E-001	-7.02605E-004	10	..........a	-327.74
	1071	2.68	-5.71712E-001	-5.40711E-004	0.00000E+000	-5.71000E-001	-6.89272E-004	10	..........a	-327.74
	1078	2.6975	-5.78759E-001	-5.16683E-004	0.00000E+000	-5.78000E-001	-7.22606E-004	10	..........a	-327.74
	1085	2.715	-5.85772E-001	-4.87507E-004	0.00000E+000	-5.85000E-001	-7.02605E-004	10	..........a	-327.74
	1092	2.7325	-5.92749E-001	-4.57830E-004	0.00000E+000	-5.92000E-001	-7.62605E-004	10	..........a	-327.74
	1099	2.75	-5.99796E-001	-4.31462E-004	0.00000E+000	-5.99000E-001	-7.82606E-004	10	..........a	-327.74
	1106	2.7675	-6.06766E-001	-4.07433E-004	0.00000E+000	-6.06000E-001	-7.22606E-004	10	..........a	-327.74
	1113	2.785	-6.13769E-001	-3.86379E-004	0.00000E+000	-6.13000E-001	-6.95939E-004	10	..........a	-327.74
	1120	2.8025	-6.20749E-001	-3.68399E-004	0.00000E+000	-6.20000E-001	-7.55939E-004	10	..........a	-327.74
	1127	2.82	-6.27726E-001	-3.53026E-004	0.00000E+000	-6.27000E-001	-7.15939E-004	10	..........a	-327.74
	1134	2.8375	-6.34722E-001	-3.39424E-004	0.00000E+000	-6.34000E-001	-7.29272E-004	10	..........a	-327.74
	1141	2.855	-6.41682E-001	-3.27326E-004	0.00000E+000	-6.41000E-001	-6.89272E-004	10	..........a	-327.74
	1148	2.8725	-6.48712E-001	-3.16364E-004	0.00000E+000	-6.48000E-001	-7.75939E-004	10	..........a	-327.74
	1155	2.89	-6.55709E-001	-3.06372E-004	0.00000E+000	-6.55000E-001	-6.95939E-004	10	..........a	-327.74
	1162	2.9075	-6.62692E-001	-2.97515E-004	0.00000E+000	-6.62000E-001	-7.69272E-004	10	..........a	-327.74
	1169	2.925	-6.69736E-001	-2.89829E-004	0.00000E+000	-6.69000E-001	-6.55939E-004	10	..........a	-327.74
	1176	2.9425	-6.76766E-001	-2.82309E-004	0.00000E+000	-6.76000E-001	-6.82606E-004	10	..........a	-327.74
	1183	2.96	-6.83702E-001	-2.74924E-004	0.00000E+000	-6.83000E-001	-7.62605E-004	10	..........a	-327.74
	1190	2.9775	-6.90749E-001	-2.68373E-004	0.00000E+000	-6.90000E-001	-7.42605E-004	10	..........a	-327.74
	1197	2.995	-6.97702E-001	-2.62224E-004	0.00000E+000	-6.97000E-001	-7.02605E-004	10	..........a	-327.74
	1204	3.0125	-7.04659E-001	-2.57077E-004	0.00000E+000	-7.04000E-001	-7.29272E-004	10	..........a	-327.74
	1211	3.03	-7.11746E-001	-2.51597E-004	0.00000E+000	-7.11000E-001	-7.09272E-004	10	..........a	-327.74
	1218	3.0475	-7.18686E-001	-2.46183E-004	0.00000E+000	-7.18000E-001	-7.42605E-004	10	..........a	-327.74
	1225	3.065	-7.25679E-001	-2.41638E-004	0.00000E+000	-7.25000E-001	-7.75939E-004	10	..........a	-327.74
	1232	3.0825	-7.32706E-001	-2.37694E-004	0.00000E+000	-7.32000E-001	-7.35939E-004	10	..........a	-327.74
	1239	3.1	-7.39682E-001	-2.33049E-004	0.00000E+000	-7.39000E-001	-7.35939E-004	10	..........a	-327.74
	1246	3.1175	-7.46732E-001	-2.29205E-004	0.00000E+000	-7.46000E-001	-7.29272E-004	10	..........a	-327.74
	1253	3.135	-7.53742E-001	-2.25362E-004	0.00000E+000	-7.53000E-001	-7.35939E-004	10	..........a	-327.74
	1260	3.1525	-7.60642E-001	-2.21552E-004	0.00000E+000	-7.60000E-001	-7.55939E-004	10	..........a	-327.74
	1267	3.17	-7.67732E-001	-2.18210E-004	0.00000E+000	-7.67000E-001	-7.09272E-004	10	..........a	-327.74
	1274	3.1875	-7.74702E-001	-2.14801E-004	0.00000E+000	-7.74000E-001	-7.35939E-004	10	..........a	-327.74
	1281	3.205	-7.81659E-001	-2.12495E-004	0.00000E+000	-7.81000E-001	-7.22606E-004	10	..........a	-327.74
	1288	3.2225	-7.88676E-001	-2.08786E-004	0.00000E+000	-7.88000E-001	-7.49272E-004	10	..........a	-327.74
	1295	3.24	-7.95632E-001	-2.06848E-004	0.00000E+000	-7.95000E-001	-7.42605E-004	10	..........a	-327.74
	1302	3.2575	-8.02716E-001	-2.03907E-004	0.00000E+000	-8.02000E-001	-7.55939E-004	10	..........a	-327.74
	1309	3.275	-8.09696E-001	-2.01233E-004	0.00000E+000	-8.09000E-001	-7.42605E-004	10	..........a	-327.74
	1316	3.2925	-8.16679E-001	-1.99395E-004	0.00000E+000	-8.16000E-001	-7.29272E-004	10	..........a	-327.74
	1323	3.31	-8.23622E-001	-1.96688E-004	0.00000E+000	-8.23000E-001	-6.82606E-004	10	..........a	-327.74
	1330	3.3275	-8.30639E-001	-1.94215E-004	0.00000E+000	-8.30000E-001	-7.42605E-004	10	..........a	-327.74
	1337	3.345	-8.37639E-001	-1.92277E-004	0.00000E+000	-8.37000E-001	-7.75939E-004	10	..........a	-327.74
	1344	3.3625	-8.44626E-001	-1.89870E-004	0.00000E+000	-8.44000E-001	-7.62605E-004	10	..........a	-327.74
	1351	3.38	-8.51612E-001	-1.88300E-004	0.00000E+000	-8.51000E-001	-7.62605E-004	10	..........a	-327.74
	1358	3.3975	-8.58626E-001	-1.86495E-004	0.00000E+000	-8.58000E-001	-7.75939E-004	10	..........a	-327.74
	1365	3.415	-8.65639E-001	-1.84523E-004	0.00000E+000	-8.65000E-001	-7.69272E-004	10	..........a	-327.74
	1372	3.4325	-8.72536E-001	-1.83420E-004	0.00000E+000	-8.72000E-001	-7.09272E-004	10	..........a	-327.74
	1379	3.45	-8.79612E-001	-1.81482E-004	0.00000E+000	-8.79000E-001	-7.22606E-004	10	..........a	-327.74
	1386	3.4675	-8.86626E-001	-1.79610E-004	0.00000E+000	-8.86000E-001	-7.69272E-004	10	..........a	-327.74
	1393	3.485	-8.93612E-001	-1.77605E-004	0.00000E+000	-8.93000E-001	-7.49272E-004	10	..........a	-327.74
	1400	3.5025	-9.00599E-001	-1.76569E-004	0.00000E+000	-9.00000E-001	-7.82606E-004	10	..........a	-327.74
	1407	3.52	-9.07579E-001	-1.75266E-004	0.00000E+000	-9.07000E-001	-7.75939E-004	10	..........a	-327.74
	1414	3.5375	-9.14599E-001	-1.73160E-004	0.00000E+000	-9.14000E-001	-7.55939E-004	10	..........a	-327.74
	1421	3.555	-9.21612E-001	-1.71957E-004	0.00000E+000	-9.21000E-001	-7.75939E-004	10	..........a	-327.74
	1428	3.5725	-9.28516E-001	-1.70453E-004	0.00000E+000	-9.28000E-001	-7.49272E-004	10	..........a	-327.74
	1435	3.59	-9.35596E-001	-1.69351E-004	0.00000E+000	-9.35000E-001	-7.69272E-004	10	..........a	-327.74
	1442	3.6075	-9.42539E-001	-1.68314E-004	0.00000E+000	-9.42000E-001	-7.55939E-004	10	..........a	-327.74
	1449	3.625	-9.49579E-001	-1.66644E-004	0.00000E+000	-9.49000E-001	-7.62605E-004	10	..........a	-327.74
	1456	3.6425	-9.56672E-001	-1.65507E-004	0.00000E+000	-9.56000E-001	-7.35939E-004	10	..........a	-327.74
	1463	3.66	-9.63579E-001	-1.64638E-004	0.00000E+000	-9.63000E-001	-7.29272E-004	10	..........a	-327.74
	1470	3.6775	-9.70652E-001	-1.63870E-004	0.00000E+000	-9.70000E-001	-7.35939E-004	10	..........a	-327.74
	1477	3.695	-9.77562E-001	-1.62232E-004	0.00000E+000	-9.77000E-001	-7.22606E-004	10	..........a	-327.74
	1484	3.7125	-9.84516E-001	-1.61196E-004	0.00000E+000	-9.84000E-001	-7.69272E-004	10	..........a	-327.74
	1491	3.73	-9.91562E-001	-1.60193E-004	0.00000E+000	-9.91000E-001	-7.55939E-004	10	..........a	-327.74
	1498	3.7475	-9.98546E-001	-1.59759E-004	0.00000E+000	-9.98000E-001	-7.55939E-004	10	..........a	-327.74
	1505	3.765	-9.95539E-001	-1.53342E-004	0.00000E+000	-9.95000E-001	-7.35939E-004	10	..........a	-327.74
	1512	3.7825	-9.88572E-001	-1.49767E-004	0.00000E+000	-9.88000E-001	-7.35939E-004	10	..........a	-327.74
	1519	3.8	-9.81592E-001	-1.47694E-004	0.00000E+000	-9.81000E-001	-7.29272E-004	10	..........a	-327.74
	1526	3.8175	-9.74549E-001	-1.44921E-004	0.00000E+000	-9.74000E-001	-8.15939E-004	10	..........a	-327.74
	1533	3.835	-9.67569E-001	-1.43651E-004	0.00000E+000	-9.67000E-001	-7.49272E-004	10	..........a	-327.74
	1540	3.8525	-9.60529E-001	-1.41412E-004	0.00000E+000	-9.60000E-001	-7.42605E-004	10	..........a	-327.74
	1547	3.87	-9.53566E-001	-1.39874E-004	0.00000E+000	-9.53000E-001	-7.22606E-004	10	..........a	-327.74
	1554	3.8875	-9.46646E-001	-1.38638E-004	0.00000E+000	-9.46000E-001	-7.49272E-004	10	..........a	-327.74
	1561	3.905	-9.39616E-001	-1.37468E-004	0.00000E+000	-9.39000E-001	-7.69272E-004	10	..........a	-327.74
	1568	3.9225	-9.32672E-001	-1.36165E-004	0.00000E+000	-9.32000E-001	-7.55939E-004	10	..........a	-327.74
	1575	3.94	-9.25566E-001	-1.35195E-004	0.00000E+000	-9.25000E-001	-7.22606E-004	10	..........a	-327.74
	1582	3.9575	-9.18639E-001	-1.33391E-004	0.00000E+000	-9.18000E-001	-7.55939E-004	10	..........a	-327.74
	1589	3.975	-9.11599E-001	-1.32589E-004	0.00000E+000	-9.11000E-001	-7.15939E-004	10	..........a	-327.74
	1596	3.9925	-9.04596E-001	-1.31954E-004	0.00000E+000	-9.04000E-001	-8.09272E-004	10	..........a	-327.74
	1603	4.01	-8.97559E-001	-1.30550E-004	0.00000E+000	-8.97000E-001	-7.42605E-004	10	..........a	-327.74
	1610	4.0275	-8.90629E-001	-1.29681E-004	0.00000E+000	-8.90000E-001	-6.82606E-004	10	..........a	-327.74
	1617	4.045	-8.83619E-001	-1.28779E-004	0.00000E+000	-8.83000E-001	-7.69272E-004	10	..........a	-327.74
	1624	4.0625	-8.76592E-001	-1.28010E-004	0.00000E+000	-8.76000E-001	-7.22606E-004	10	..........a	-327.74
	1631	4.08	-8.69569E-001	-1.27442E-004	0.00000E+000	-8.69000E-001	-7.42605E-004	10	..........a	-327.74
	1638	4.0975	-8.62616E-001	-1.26874E-004	0.00000E+000	-8.62000E-001	-7.75939E-004	10	..........a	-327.74
	1645	4.115	-8.55629E-001	-1.25771E-004	0.00000E+000	-8.55000E-001	-7.75939E-004	10	..........a	-327.74
	1652	4.1325	-8.48556E-001	-1.25002E-004	0.00000E+000	-8.48000E-001	-7.09272E-004	10	..........a	-327.74
	1659	4.15	-8.41672E-001	-1.24134E-004	0.00000E+000	-8.41000E-001	-7.62605E-004	10	..........a	-327.74
	1666	4.1675	-8.34629E-001	-1.22997E-004	0.00000E+000	-8.34000E-001	-7.62605E-004	10	..........a	-327.74
	1673	4.185	-8.27566E-001	-1.22596E-004	0.00000E+000	-8.27000E-001	-7.49272E-004	10	..........a	-327.74
	1680	4.2025	-8.20669E-001	-1.21427E-004	0.00000E+000	-8.20000E-001	-7.15939E-004	10	..........a	-327.74
	1687	4.22	-8.13686E-001	-1.21159E-004	0.00000E+000	-8.13000E-001	-7.02605E-004	10	..........a	-327.74
	1694	4.2375	-8.06732E-001	-1.20624E-004	0.00000E+000	-8.06000E-001	-7.22606E-004	10	..........a	-327.74
	1701	4.255	-7.99692E-001	-1.19856E-004	0.00000E+000	-7.99000E-001	-7.15939E-004	10	..........a	-327.74
	1708	4.2725	-7.92686E-001	-1.18987E-004	0.00000E+000	-7.92000E-001	-7.15939E-004	10	..........a	-327.74
	1715	4.29	-7.85662E-001	-1.18452E-004	0.00000E+000	-7.85000E-001	-7.22606E-004	10	..........a	-327.74
	1722	4.3075	-7.78659E-001	-1.18018E-004	0.00000E+000	-7.78000E-001	-6.75939E-004	10	..........a	-327.74
	1729	4.325	-7.71722E-001	-1.17249E-004	0.00000E+000	-7.71000E-001	-7.22606E-004	10	..........a	-327.74
	1736	4.3425	-7.64752E-001	-1.16514E-004	0.00000E+000	-7.64000E-001	-7.22606E-004	10	..........a	-327.74
	1743	4.36	-7.57709E-001	-1.16380E-004	0.00000E+000	-7.57000E-001	-7.09272E-004	10	..........a	-327.74
	1750	4.3775	-7.50736E-001	-1.15244E-004	0.00000E+000	-7.50000E-001	-7.29272E-004	10	..........a	-327.74
	1757	4.395	-7.43676E-001	-1.14809E-004	0.00000E+000	-7.43000E-001	-7.09272E-004	10	..........a	-327.74
	1764	4.4125	-7.36676E-001	-1.13707E-004	0.00000E+000	-7.36000E-001	-7.49272E-004	10	..........a	-327.74
	1771	4.43	-7.29696E-001	-1.13306E-004	0.00000E+000	-7.29000E-001	-7.82606E-004	10	..........a	-327.74
	1778	4.4475	-7.22686E-001	-1.12704E-004	0.00000E+000	-7.22000E-001	-8.02606E-004	10	..........a	-327.74
	1785	4.465	-7.15699E-001	-1.12069E-004	0.00000E+000	-7.15000E-001	-7.55939E-004	10	..........a	-327.74
	1792	4.4825	-7.08706E-001	-1.11534E-004	0.00000E+000	-7.08000E-001	-7.35939E-004	10	..........a	-327.74
	1799	4.5	-7.01736E-001	-1.10298E-004	0.00000E+000	-7.01000E-001	-7.09272E-004	10	..........a	-327.74
	1806	4.5175	-6.94732E-001	-1.09696E-004	0.00000E+000	-6.94000E-001	-6.82606E-004	10	..........a	-327.74
	1813	4.535	-6.87756E-001	-1.09195E-004	0.00000E+000	-6.87000E-001	-8.02606E-004	10	..........a	-327.74
	1820	4.5525	-6.80706E-001	-1.08493E-004	0.00000E+000	-6.80000E-001	-7.62605E-004	10	..........a	-327.74
	1827	4.57	-6.73792E-001	-1.07524E-004	0.00000E+000	-6.73000E-001	-7.62605E-004	10	..........a	-327.74
	1834	4.5875	-6.66726E-001	-1.06287E-004	0.00000E+000	-6.66000E-001	-7.62605E-004	10	..........a	-327.74
	1841	4.605	-6.59716E-001	-1.05418E-004	0.00000E+000	-6.59000E-001	-7.55939E-004	10	..........a	-327.74
	1848	4.6225	-6.52729E-001	-1.04349E-004	0.00000E+000	-6.52000E-001	-7.35939E-004	10	..........a	-327.74
	1855	4.64	-6.45656E-001	-1.03246E-004	0.00000E+000	-6.45000E-001	-7.49272E-004	10	..........a	-327.74
	1862	4.6575	-6.38782E-001	-1.01308E-004	0.00000E+000	-6.38000E-001	-7.09272E-004	10	..........a	-327.74
	1869	4.675	-6.31749E-001	-9.93360E-005	0.00000E+000	-6.31000E-001	-6.82606E-004	10	..........a	-327.74
	1876	4.6925	-6.24699E-001	-9.70969E-005	0.00000E+000	-6.24000E-001	-7.35939E-004	10	..........a	-327.74
	1883	4.71	-6.17692E-001	-9.43565E-005	0.00000E+000	-6.17000E-001	-7.42605E-004	10	..........a	-327.74
	1890	4.7275	-6.10776E-001	-9.08474E-005	0.00000E+000	-6.10000E-001	-7.62605E-004	10	..........a	-327.74
	1897	4.745	-6.03766E-001	-8.70041E-005	0.00000E+000	-6.03000E-001	-6.75939E-004	10	..........a	-327.74
	1904	4.7625	-5.96802E-001	-8.13896E-005	0.00000E+000	-5.96000E-001	-7.75939E-004	10	..........a	-327.74
	1911	4.78	-5.89806E-001	-7.46388E-005	0.00000E+000	-5.89000E-001	-7.69272E-004	10	..........a	-327.74
	1918	4.7975	-5.82766E-001	-6.54149E-005	0.00000E+000	-5.82000E-001	-7.09272E-004	10	..........a	-327.74
	1925	4.815	-5.75742E-001	-5.41190E-005	0.00000E+000	-5.75000E-001	-7.15939E-004	10	..........a	-327.74
	1932	4.8325	-5.68839E-001	-3.71418E-005	0.00000E+000	-5.68000E-001	-7.15939E-004	10	..........a	-327.74
	1939	4.85	-5.61759E-001	-1.60539E-005	0.00000E+000	-5.61000E-001	-7.29272E-004	10	..........a	-327.74
	1946	4.8675	-5.54799E-001	1.27540E-005	0.00000E+000	-5.54000E-001	-7.49272E-004	10	..........a	-327.74
	1953	4.885	-5.47722E-001	5.12202E-005	0.00000E+000	-5.47000E-001	-8.02606E-004	10	..........a	-327.74
	1960	4.9025	-5.40812E-001	9.98794E-005	0.00000E+000	-5.40000E-001	-7.95939E-004	10	..........a	-327.74
	1967	4.92	-5.33842E-001	1.55958E-004	0.00000E+000	-5.33000E-001	-6.95939E-004	10	..........a	-327.74
	1974	4.9375	-5.26786E-001	2.17417E-004	0.00000E+000	-5.26000E-001	-7.22606E-004	10	..........a	-327.74
	1981	4.955	-5.19832E-001	2.76436E-004	0.00000E+000	-5.19000E-001	-8.02606E-004	10	..........a	-327.74
	1988	4.9725	-5.12812E-001	3.25129E-004	0.00000E+000	-5.12000E-001	-7.69272E-004	10	..........a	-327.74
	1995	4.99	-5.05819E-001	3.58983E-004	0.00000E+000	-5.05000E-001	-7.89272E-004	10	..........a	-327.74
	2002	5.0075	-4.98819E-001	3.76829E-004	0.00000E+000	-4.98000E-001	-7.42605E-004	10	..........a	-327.74
	2009	5.025	-4.91779E-001	3.80372E-004	0.00000E+000	-4.91000E-001	-7.42605E-004	10	..........a	-327.74
	2016	5.0425	-4.84826E-001	3.72752E-004	0.00000E+000	-4.84000E-001	-7.62605E-004	10	..........a	-327.74
	2023	5.06	-4.77836E-001	3.59250E-004	0.00000E+000	-4.77000E-001	-7.95939E-004	10	..........a	-327.74
	2030	5.0775	-4.70856E-001	3.42173E-004	0.00000E+000	-4.70000E-001	-7.62605E-004	10	..........a	-327.74
	2037	5.095	-4.63866E-001	3.22823E-004	0.00000E+000	-4.63000E-001	-8.09272E-004	10	..........a	-327.74
	2044	5.1125	-4.56832E-001	3.03473E-004	0.00000E+000	-4.56000E-001	-8.02606E-004	10	..........a	-327.74
	2051	5.13	-4.49832E-001	2.84657E-004	0.00000E+000	-4.49000E-001	-7.62605E-004	10	..........a	-327.74
	2058	5.1475	-4.42886E-001	2.66912E-004	0.00000E+000	-4.42000E-001	-7.49272E-004	10	..........a	-327.74
	2065	5.165	-4.35812E-001	2.50736E-004	0.00000E+000	-4.35000E-001	-7.49272E-004	10	..........a	-327.74
	2072	5.1825	-4.28839E-001	2.35230E-004	0.00000E+000	-4.28000E-001	-7.09272E-004	10	..........a	-327.74
	2079	5.2	-4.21919E-001	2.21193E-004	0.00000E+000	-4.21000E-001	-7.49272E-004	10	..........a	-327.74
	2086	5.2175	-4.14859E-001	2.08460E-004	0.00000E+000	-4.14000E-001	-7.62605E-004	10	..........a	-327.74
	2093	5.235	-4.07869E-001	1.97465E-004	0.00000E+000	-4.07000E-001	-8.15939E-004	10	..........a	-327.74
	2100	5.2525	-4.00849E-001	1.87874E-004	0.00000E+000	-4.00000E-001	-7.89272E-004	10	..........a	-327.74
	2107	5.27	-3.93842E-001	1.78951E-004	0.00000E+000	-3.93000E-001	-8.29272E-004	10	..........a	-327.74
	2114	5.2875	-3.86846E-001	1.70195E-004	0.00000E+000	-3.86000E-001	-7.82606E-004	10	..........a	-327.74
	2121	5.305	-3.79816E-001	1.62575E-004	0.00000E+000	-3.79000E-001	-7.49272E-004	10	..........a	-327.74
	2128	5.3225	-3.72892E-001	1.56192E-004	0.00000E+000	-3.72000E-001	-8.15939E-004	10	..........a	-327.74
	2135	5.34	-3.65889E-001	1.50009E-004	0.00000E+000	-3.65000E-001	-8.02606E-004	10	..........a	-327.74
	2142	5.3575	-3.58886E-001	1.44261E-004	0.00000E+000	-3.58000E-001	-7.82606E-004	10	..........a	-327.74
	2149	5.375	-3.51896E-001	1.39047E-004	0.00000E+000	-3.51000E-001	-7.89272E-004	10	..........a	-327.74
	2156	5.3925	-3.44966E-001	1.33968E-004	0.00000E+000	-3.44000E-001	-7.95939E-004	10	..........a	-327.74
	2163	5.41	-3.37816E-001	1.29356E-004	0.00000E+000	-3.37000E-001	-8.02606E-004	10	..........a	-327.74
	2170	5.4275	-3.30856E-001	1.24744E-004	0.00000E+000	-3.30000E-001	-8.09272E-004	10	..........a	-327.74
	2177	5.445	-3.23869E-001	1.20800E-004	0.00000E+000	-3.23000E-001	-7.49272E-004	10	..........a	-327.74
	2184	5.4625	-3.16929E-001	1.17224E-004	0.00000E+000	-3.16000E-001	-7.55939E-004	10	..........a	-327.74
	2191	5.48	-3.09849E-001	1.13782E-004	0.00000E+000	-3.09000E-001	-7.82606E-004	10	..........a	-327.74
	2198	5.4975	-3.02862E-001	1.10808E-004	0.00000E+000	-3.02000E-001	-7.69272E-004	10	..........a	-327.74
	2205	5.515	-2.95899E-001	1.07733E-004	0.00000E+000	-2.95000E-001	-7.49272E-004	10	..........a	-327.74
	2212	5.5325	-2.88862E-001	1.04491E-004	0.00000E+000	-2.88000E-001	-7.82606E-004	10	..........a	-327.74
	2219	5.55	-2.81926E-001	1.01717E-004	0.00000E+000	-2.81000E-001	-7.89272E-004	10	..........a	-327.74
	2226	5.5675	-2.74946E-001	9.92444E-005	0.00000E+000	-2.74000E-001	-8.09272E-004	10	..........a	-327.74
	2233	5.585	-2.67779E-001	9.69384E-005	0.00000E+000	-2.67000E-001	-7.89272E-004	10	..........a	-327.74
	2240	5.6025	-2.60912E-001	9.46993E-005	0.00000E+000	-2.60000E-001	-7.89272E-004	10	..........a	-327.74
	2247	5.62	-2.53912E-001	9.22931E-005	0.00000E+000	-2.53000E-001	-8.15939E-004	10	..........a	-327.74
	2254	5.6375	-2.46886E-001	9.05218E-005	0.00000E+000	-2.46000E-001	-7.69272E-004	10	..........a	-327.74
	2261	5.655	-2.39939E-001	8.80822E-005	0.00000E+000	-2.39000E-001	-7.89272E-004	10	..........a	-327.74
	2268	5.6725	-2.32906E-001	8.65783E-005	0.00000E+000	-2.32000E-001	-7.62605E-004	10	..........a	-327.74
	2275	5.69	-2.25946E-001	8.40718E-005	0.00000E+000	-2.25000E-001	-7.95939E-004	10	..........a	-327.74
	2282	5.7075	-2.18922E-001	8.30358E-005	0.00000E+000	-2.18000E-001	-7.75939E-004	10	..........a	-327.74
	2289	5.725	-2.11826E-001	8.11643E-005	0.00000E+000	-2.11000E-001	-7.62605E-004	10	..........a	-327.74
	2296	5.7425	-2.04896E-001	7.97273E-005	0.00000E+000	-2.04000E-001	-7.62605E-004	10	..........a	-327.74
	2303	5.76	-1.97952E-001	7.83570E-005	0.00000E+000	-1.97000E-001	-7.49272E-004	10	..........a	-327.74
	2310	5.7775	-1.90896E-001	7.66192E-005	0.00000E+000	-1.90000E-001	-7.89272E-004	10	..........a	-327.74
	2317	5.795	-1.83932E-001	7.52490E-005	0.00000E+000	-1.83000E-001	-7.62605E-004	10	..........a	-327.74
	2324	5.8125	-1.76956E-001	7.39790E-005	0.00000E+000	-1.76000E-001	-7.75939E-004	10	..........a	-327.74
	2331	5.83	-1.69929E-001	7.24417E-005	0.00000E+000	-1.69000E-001	-7.42605E-004	10	..........a	-327.74
	2338	5.8475	-1.63072E-001	7.15394E-005	0.00000E+000	-1.62000E-001	-7.62605E-004	10	..........a	-327.74
	2345	5.865	-1.55939E-001	7.00355E-005	0.00000E+000	-1.55000E-001	-7.62605E-004	10	..........a	-327.74
	2352	5.8825	-1.48942E-001	6.87321E-005	0.00000E+000	-1.48000E-001	-8.35939E-004	10	..........a	-327.74
	2359	5.9	-1.41949E-001	6.76961E-005	0.00000E+000	-1.41000E-001	-7.62605E-004	10	..........a	-327.74
	2366	5.9175	-1.34902E-001	6.67269E-005	0.00000E+000	-1.34000E-001	-7.95939E-004	10	..........a	-327.74
	2373	5.935	-1.27952E-001	6.57578E-005	0.00000E+000	-1.27000E-001	-7.89272E-004	10	..........a	-327.74
	2380	5.9525	-1.20919E-001	6.43876E-005	0.00000E+000	-1.20000E-001	-8.09272E-004	10	..........a	-327.74
	2387	5.97	-1.13906E-001	6.39531E-005	0.00000E+000	-1.13000E-001	-7.62605E-004	10	..........a	-327.74
	2394	5.9875	-1.06956E-001	6.28503E-005	0.00000E+000	-1.06000E-001	-7.75939E-004	10	..........a	-327.74
	2401	6.005	-9.99456E-002	6.15803E-005	0.00000E+000	-9.90000E-002	-7.82606E-004	10	..........a	-327.74
	2408	6.0225	-9.29956E-002	6.07782E-005	0.00000E+000	-9.20000E-002	-7.89272E-004	10	..........a	-327.74
	2415	6.04	-8.59456E-002	6.03772E-005	0.00000E+000	-8.50000E-002	-7.89272E-004	10	..........a	-327.74
	2422	6.0575	-7.89256E-002	5.96420E-005	0.00000E+000	-7.80000E-002	-7.69272E-004	10	..........a	-327.74
	2429	6.075	-7.19989E-002	5.92743E-005	0.00000E+000	-7.10000E-002	-7.29272E-004	10	..........a	-327.74
	2436	6.0925	-6.49489E-002	5.86059E-005	0.00000E+000	-6.40000E-002	-7.35939E-004	10	..........a	-327.74
	2443	6.11	-5.79523E-002	5.79710E-005	0.00000E+000	-5.70000E-002	-7.22606E-004	10	..........a	-327.74
	2450	6.1275	-5.10589E-002	5.68347E-005	0.00000E+000	-5.00000E-002	-7.55939E-004	10	..........a	-327.74
	2457	6.145	-4.39689E-002	5.65339E-005	0.00000E+000	-4.30000E-002	-7.62605E-004	10	..........a	-327.74
	2464	6.1625	-3.69189E-002	5.60660E-005	0.00000E+000	-3.60000E-002	-7.62605E-004	10	..........a	-327.74
	2471	6.18	-2.99723E-002	5.58655E-005	0.00000E+000	-2.90000E-002	-7.49272E-004	10	..........a	-327.74
	2478	6.1975	-2.29723E-002	5.56316E-005	0.00000E+000	-2.20000E-002	-7.62605E-004	10	..........a	-327.74
	2485	6.215	-1.60089E-002	5.51303E-005	0.00000E+000	-1.50000E-002	-8.09272E-004	10	..........a	-327.74
	2492	6.2325	-9.02560E-003	5.47961E-005	0.00000E+000	-8.00000E-003	-7.55939E-004	10	..........a	-327.74
	2499	6.25	-1.94894E-003	5.50969E-005	0.00000E+000	-1.00000E-003	-8.22606E-004	10	..........a	-327.74
	2506	6.2675	4.97106E-003	5.50300E-005	0.00000E+000	5.99998E-003	-8.09272E-004	10	..........a	-327.74
	2513	6.285	1.20377E-002	5.41945E-005	0.00000E+000	1.30000E-002	-7.55939E-004	10	..........a	-327.74
	2520	6.3025	1.89744E-002	5.39940E-005	0.00000E+000	2.00000E-002	-8.09272E-004	10	..........a	-327.74
	2527	6.32	2.59277E-002	5.36264E-005	0.00000E+000	2.70000E-002	-7.49272E-004	10	..........a	-327.74
	2534	6.3375	3.30244E-002	5.31585E-005	0.00000E+000	3.40000E-002	-7.49272E-004	10	..........a	-327.74
	2541	6.355	3.99577E-002	5.27241E-005	0.00000E+000	4.10000E-002	-7.82606E-004	10	..........a	-327.74
	2548	6.3725	4.69811E-002	5.20222E-005	0.00000E+000	4.80000E-002	-8.15939E-004	10	..........a	-327.74
	2555	6.39	5.40077E-002	5.18217E-005	0.00000E+000	5.50000E-002	-7.95939E-004	10	..........a	-327.74
	2562	6.4075	6.10077E-002	5.11199E-005	0.00000E+000	6.20000E-002	-8.02606E-004	10	..........a	-327.74
	2569	6.425	6.80244E-002	5.06854E-005	0.00000E+000	6.90000E-002	-7.35939E-004	10	..........a	-327.74
	2576	6.4425	7.50077E-002	5.01507E-005	0.00000E+000	7.60000E-002	-8.09272E-004	10	..........a	-327.74
	2583	6.46	8.19944E-002	4.87471E-005	0.00000E+000	8.30000E-002	-7.95939E-004	10	..........a	-327.74
	2590	6.4775	8.90177E-002	4.83795E-005	0.00000E+000	9.00000E-002	-8.22606E-004	10	..........a	-327.74
	2597	6.495	9.59577E-002	4.76108E-005	0.00000E+000	9.70000E-002	-7.82606E-004	10	..........a	-327.74
	2604	6.5125	1.02981E-001	4.70427E-005	0.00000E+000	1.04000E-001	-7.82606E-004	10	..........a	-327.74
	2611	6.53	1.10018E-001	4.60735E-005	0.00000E+000	1.11000E-001	-7.42605E-004	10	..........a	-327.74
	2618	6.5475	1.16914E-001	4.54720E-005	0.00000E+000	1.18000E-001	-8.09272E-004	10	..........a	-327.74
	2625	6.565	1.23908E-001	4.44694E-005	0.00000E+000	1.25000E-001	-7.89272E-004	10	..........a	-327.74
	2632	6.5825	1.30918E-001	4.37007E-005	0.00000E+000	1.32000E-001	-7.62605E-004	10	..........a	-327.74
	2639	6.6	1.37951E-001	4.30991E-005	0.00000E+000	1.39000E-001	-7.35939E-004	10	..........a	-327.74
	2646	6.6175	1.44924E-001	4.24642E-005	0.00000E+000	1.46000E-001	-7.75939E-004	10	..........a	-327.74
	2653	6.635	1.51964E-001	4.17624E-005	0.00000E+000	1.53000E-001	-7.29272E-004	10	..........a	-327.74
	2660	6.6525	1.58944E-001	4.07263E-005	0.00000E+000	1.60000E-001	-7.89272E-004	10	..........a	-327.74
	2667	6.67	1.65981E-001	4.01248E-005	0.00000E+000	1.67000E-001	-7.55939E-004	10	..........a	-327.74
	2674	6.6875	1.72894E-001	3.96235E-005	0.00000E+000	1.74000E-001	-7.55939E-004	10	..........a	-327.74
	2681	6.705	1.79891E-001	3.91556E-005	0.00000E+000	1.81000E-001	-7.55939E-004	10	..........a	-327.74
	2688	6.7225	1.86928E-001	3.83870E-005	0.00000E+000	1.88000E-001	-7.95939E-004	10	..........a	-327.74
	2695	6.74	1.93864E-001	3.77854E-005	0.00000E+000	1.95000E-001	-7.69272E-004	10	..........a	-327.74
	2702	6.7575	2.01004E-001	3.71504E-005	0.00000E+000	2.02000E-001	-7.69272E-004	10	..........a	-327.74
	2709	6.775	2.07904E-001	3.65154E-005	0.00000E+000	2.09000E-001	-8.22606E-004	10	..........a	-327.74
	2716	6.7925	2.14894E-001	3.63484E-005	0.00000E+000	2.16000E-001	-7.89272E-004	10	..........a	-327.74
	2723	6.81	2.21918E-001	3.59807E-005	0.00000E+000	2.23000E-001	-7.69272E-004	10	..........a	-327.74
	2730	6.8275	2.28861E-001	3.50450E-005	0.00000E+000	2.30000E-001	-8.02606E-004	10	..........a	-327.74
	2737	6.845	2.35888E-001	3.45437E-005	0.00000E+000	2.37000E-001	-8.22606E-004	10	..........a	-327.74
	2744	6.8625	2.42921E-001	3.43766E-005	0.00000E+000	2.44000E-001	-7.55939E-004	10	..........a	-327.74
	2751	6.88	2.49918E-001	3.37750E-005	0.00000E+000	2.51000E-001	-7.82606E-004	10	..........a	-327.74
	2758	6.8975	2.56948E-001	3.30398E-005	0.00000E+000	2.58000E-001	-6.95939E-004	10	..........a	-327.74
	2765	6.915	2.63904E-001	3.27724E-005	0.00000E+000	2.65000E-001	-7.82606E-004	10	..........a	-327.74
	2772	6.9325	2.70934E-001	3.24048E-005	0.00000E+000	2.72000E-001	-8.09272E-004	10	..........a	-327.74
	2779	6.95	2.77938E-001	3.19704E-005	0.00000E+000	2.79000E-001	-7.89272E-004	10	..........a	-327.74
	2786	6.9675	2.84904E-001	3.15359E-005	0.00000E+000	2.86000E-001	-7.75939E-004	10	..........a	-327.74
	2793	6.985	2.91888E-001	3.11683E-005	0.00000E+000	2.93000E-001	-7.55939E-004	10	..........a	-327.74
	2800	7.0025	2.98848E-001	3.09678E-005	0.00000E+000	3.00000E-001	-7.62605E-004	10	..........a	-327.74
	2807	7.02	3.05861E-001	3.09343E-005	0.00000E+000	3.07000E-001	-8.62605E-004	10	..........a	-327.74
	2814	7.0375	3.12888E-001	3.05667E-005	0.00000E+000	3.14000E-001	-7.82606E-004	10	..........a	-327.74
	2821	7.055	3.19898E-001	3.02325E-005	0.00000E+000	3.21000E-001	-7.29272E-004	10	..........a	-327.74
	2828	7.0725	3.26911E-001	2.95975E-005	0.00000E+000	3.28000E-001	-7.35939E-004	10	..........a	-327.74
	2835	7.09	3.33938E-001	2.93970E-005	0.00000E+000	3.35000E-001	-7.82606E-004	10	..........a	-327.74
	2842	7.1075	3.40881E-001	2.95975E-005	0.00000E+000	3.42000E-001	-8.29272E-004	10	..........a	-327.74
	2849	7.125	3.47758E-001	2.91965E-005	0.00000E+000	3.49000E-001	-7.89272E-004	10	..........a	-327.74
	2856	7.1425	3.54878E-001	2.90294E-005	0.00000E+000	3.56000E-001	-8.42605E-004	10	..........a	-327.74
	2863	7.16	3.61831E-001	2.86284E-005	0.00000E+000	3.63000E-001	-8.09272E-004	10	..........a	-327.74
	2870	7.1775	3.68878E-001	2.82608E-005	0.00000E+000	3.70000E-001	-8.15939E-004	10	..........a	-327.74
	2877	7.195	3.75818E-001	2.83610E-005	0.00000E+000	3.77000E-001	-7.29272E-004	10	..........a	-327.74
	2884	7.2125	3.82841E-001	2.79934E-005	0.00000E+000	3.84000E-001	-7.82606E-004	10	..........a	-327.74
	2891	7.23	3.89864E-001	2.79266E-005	0.00000E+000	3.91000E-001	-7.75939E-004	10	..........a	-327.74
	2898	7.2475	3.96831E-001	2.75589E-005	0.00000E+000	3.98000E-001	-7.49272E-004	10	..........a	-327.74
	2905	7.265	4.03748E-001	2.75589E-005	0.00000E+000	4.05000E-001	-8.29272E-004	10	..........a	-327.74
	2912	7.2825	4.10828E-001	2.72916E-005	0.00000E+000	4.12000E-001	-7.35939E-004	10	..........a	-327.74
	2919	7.3	4.17811E-001	2.70576E-005	0.00000E+000	4.19000E-001	-7.55939E-004	10	..........a	-327.74
	2926	7.3175	4.24748E-001	2.68571E-005	0.00000E+000	4.26000E-001	-7.49272E-004	10	..........a	-327.74
	2933	7.335	4.31804E-001	2.64895E-005	0.00000E+000	4.33000E-001	-6.55939E-004	10	..........a	-327.74
	2940	7.3525	4.38821E-001	2.63558E-005	0.00000E+000	4.40000E-001	-7.35939E-004	10	..........a	-327.74
	2947	7.37	4.45858E-001	2.58211E-005	0.00000E+000	4.47000E-001	-7.62605E-004	10	..........a	-327.74
	2954	7.3875	4.52841E-001	2.58545E-005	0.00000E+000	4.54000E-001	-7.42605E-004	10	..........a	-327.74
	2961	7.405	4.59861E-001	2.52530E-005	0.00000E+000	4.61000E-001	-7.22606E-004	10	..........a	-327.74
	2968	7.4225	4.66801E-001	2.50190E-005	0.00000E+000	4.68000E-001	-7.55939E-004	10	..........a	-327.74
	2975	7.44	4.73794E-001	2.51861E-005	0.00000E+000	4.75000E-001	-7.42605E-004	10	..........a	-327.74
	2982	7.4575	4.80854E-001	2.47517E-005	0.00000E+000	4.82000E-001	-8.15939E-004	10	..........a	-327.74
	2989	7.475	4.87908E-001	2.42504E-005	0.00000E+000	4.89000E-001	-7.89272E-004	10	..........a	-327.74
	2996	7.4925	4.94784E-001	2.42838E-005	0.00000E+000	4.96000E-001	-7.42605E-004	10	..........a	-327.74
	3000	7.5025	4.98821E-001	2.41835E-005	0.00000E+000	5.00000E-001	-7.42605E-004	10	..........a	-327.74
CURVE2	TABLE
	Pt	T	Vf	Im	Vu	Sig	Ach	IERange	Over	Temp
	#	s	V vs. Ref.	A	V	V	V	#	bits	deg C
	3001	7.505	4.98798E-001	2.34483E-005	0.00000E+000	5.00000E-001	-7.75939E-004	10	..........a	-327.74