File: data/02-SI/Figures_S9_S11_RDE/18btmapaq-rde/1mkcl-18btmapaq-nitrogen-600mvpers.DTA
EXPLAIN
TAG	CV
TITLE	LABEL	Cyclic Voltammetry	Test &Identifier
DATE	LABEL	1/31/2023	Date
TIME	LABEL	15:21:41	Time
NOTES	NOTES	1	&Notes...

PSTAT	PSTAT	REF3000-21108	Potentiostat
VINIT	POTEN	5.00000E-001	F	Initial &E (V)
VLIMIT1	POTEN	-1.00000E+000	F	Scan Limit &1 (V)
VLIMIT2	POTEN	5.00000E-001	F	Scan Limit &2 (V)
VFINAL	POTEN	5.00000E-001	F	Final &E (V)
SCANRATE	QUANT	5.99999E+002	&Scan Rate (mV/s)
STEPSIZE	QUANT	1.00000E+000	St&ep Size (mV)
CYCLES	IQUANT	1	C&ycles (#)
IMODE	SELECTOR	1	I/E Range &Mode
IRANGE	QUANT	1.00000E+001	&Max Current (mA)
AREA	QUANT	1.00000E+000	Electrode &Area (cm^2)
ELECTRODETYPE	SELECTOR	0	Electrode Type
STRIPPING	TOGGLE	F	Used for Stripping
POLARITY	TOGGLE	F	Signal Polarity
CONDIT	TWOPARAM	F	1.50000E+001	0.00000E+000	Conditionin&g	Time(s)	E(V)
DELAY	TWOPARAM	F	5.00000E+000	0.00000E+000	Init. De&lay	Time(s)	Stab.(mV/s)
EQDELAY	QUANT	0.00000E+000	Equil. &Time (s)
IRCOMP	SELECTOR	0	IRCom&p
PFCOR	QUANT	5.00000E+001	PF Corr. (ohm)
SAMPLINGMODE	SELECTOR	1	Sampling &Mode
EOC	QUANT	0	Open Circuit (V)
PSTATMODEL	IQUANT	5	Pstat Model
PSTATSECTION	LABEL	REF3000-21108	Pstat Section
PSTATSERIALNO	LABEL	21108	Pstat Serial Number
CTRLMODE	IQUANT	1	Control Mode
ELECTROMETER	IQUANT	0	RE=0 or CS=1
IESTAB	IQUANT	2	I/E Stability
CASPEED	IQUANT	4	Control Amp Speed
CONVENTION	IQUANT	1	Current Convention
ICHRANGE	IQUANT	2	Ich Range
ICHRANGEMODE	TOGGLE	F	Ich Auto Range
ICHOFFSETENABLE	TOGGLE	F	Ich Offset Enable
ICHOFFSET	QUANT	0	Ich Offset (V)
ICHFILTER	IQUANT	1	Ich Filter
VCHRANGE	IQUANT	2	Vch Range
VCHRANGEMODE	TOGGLE	F	Vch Auto Range
VCHOFFSETENABLE	TOGGLE	F	Vch Offset Enable
VCHOFFSET	QUANT	0	Vch Offset (V)
VCHFILTER	IQUANT	1	Vch Filter
ACHRANGE	IQUANT	2	Ach Range
ACHOFFSETENABLE	TOGGLE	F	Ach Offset Enable
ACHOFFSET	QUANT	0	Ach Offset (V)
ACHFILTER	IQUANT	0	Ach Filter
IERANGELOWERLIMIT	IQUANT	2	I/E Range Lower Limit
IERANGEMODE	TOGGLE	F	I/E AutoRange
IERANGE	IQUANT	10	I/E Range
POSFEEDENABLE	TOGGLE	F	Positive Feedback IR Comp
POSFEEDRESISTANCE	QUANT	0	Positive Feedback Resistance (ohm)
ACHSELECT	IQUANT	0	Ach Select
SENSECABLEID	IQUANT	14	Sense Cable ID
PWRCABLEID	IQUANT	7	Power Cable ID
DCCALDATE	LABEL	11/9/2022	DC Calibration Date
ACCALDATE	LABEL	11/9/2022	AC Calibration Date
THERMOSELECT	IQUANT	1	Thermo Select
FRAMEWORKVERSION	LABEL	7.8.2	Framework Version
INSTRUMENTVERSION	LABEL	4.40	Instrument Version
COMPLIANCEVOLTAGE	IQUANT	0	Compliance Voltage
CURVE1	TABLE
	Pt	T	Vf	Im	Vu	Sig	Ach	IERange	Over	Temp
	#	s	V vs. Ref.	A	V	V	V	#	bits	deg C
	0	0.001667	4.98736E-001	1.73432E-005	0.00000E+000	5.00000E-001	-8.39272E-004	10	..........a	-327.74
	7	0.013333	4.91761E-001	1.16285E-005	0.00000E+000	4.93000E-001	-8.39272E-004	10	..........a	-327.74
	14	0.025	4.84796E-001	7.86873E-006	0.00000E+000	4.86000E-001	-7.89272E-004	10	..........a	-327.74
	21	0.036667	4.77781E-001	5.86354E-006	0.00000E+000	4.79000E-001	-7.99272E-004	10	..........a	-327.74
	28	0.048333	4.70771E-001	4.66042E-006	0.00000E+000	4.72000E-001	-8.59272E-004	10	..........a	-327.74
	35	0.06	4.63746E-001	2.20407E-006	0.00000E+000	4.65000E-001	-8.09272E-004	10	..........a	-327.74
	42	0.071667	4.56811E-001	1.95342E-006	0.00000E+000	4.58000E-001	-8.59272E-004	10	..........a	-327.74
	49	0.083333	4.49686E-001	1.30173E-006	0.00000E+000	4.51000E-001	-8.09272E-004	10	..........a	-327.74
	56	0.095	4.42741E-001	-1.20475E-006	0.00000E+000	4.44000E-001	-7.79272E-004	10	..........a	-327.74
	63	0.106667	4.35741E-001	-7.53583E-007	0.00000E+000	4.37000E-001	-8.19272E-004	10	..........a	-327.74
	70	0.118333	4.28766E-001	-2.35773E-006	0.00000E+000	4.30000E-001	-8.19272E-004	10	..........a	-327.74
	77	0.13	4.21791E-001	-2.35773E-006	0.00000E+000	4.23000E-001	-8.59272E-004	10	..........a	-327.74
	84	0.141667	4.14766E-001	-3.51072E-006	0.00000E+000	4.16000E-001	-7.69272E-004	10	..........a	-327.74
	91	0.153333	4.07756E-001	-3.41046E-006	0.00000E+000	4.09000E-001	-7.99272E-004	10	..........a	-327.74
	98	0.165	4.00736E-001	-3.91175E-006	0.00000E+000	4.02000E-001	-8.29272E-004	10	..........a	-327.74
	105	0.176667	3.93756E-001	-4.86422E-006	0.00000E+000	3.95000E-001	-7.99272E-004	10	..........a	-327.74
	112	0.188333	3.86781E-001	-5.61616E-006	0.00000E+000	3.88000E-001	-8.19272E-004	10	..........a	-327.74
	119	0.2	3.79731E-001	-5.51590E-006	0.00000E+000	3.81000E-001	-8.19272E-004	10	..........a	-327.74
	126	0.211667	3.72671E-001	-5.76655E-006	0.00000E+000	3.74000E-001	-7.99272E-004	10	..........a	-327.74
	133	0.223333	3.65796E-001	-6.06733E-006	0.00000E+000	3.67000E-001	-7.89272E-004	10	..........a	-327.74
	140	0.235	3.58761E-001	-7.37070E-006	0.00000E+000	3.60000E-001	-8.99272E-004	10	..........a	-327.74
	147	0.246667	3.51751E-001	-8.52369E-006	0.00000E+000	3.53000E-001	-7.79272E-004	10	..........a	-327.74
	154	0.258333	3.44776E-001	-7.22031E-006	0.00000E+000	3.46000E-001	-8.29272E-004	10	..........a	-327.74
	161	0.27	3.37761E-001	-8.37330E-006	0.00000E+000	3.39000E-001	-7.29272E-004	10	..........a	-327.74
	168	0.281667	3.30796E-001	-7.82187E-006	0.00000E+000	3.32000E-001	-7.69272E-004	10	..........a	-327.74
	175	0.293333	3.23766E-001	-8.82447E-006	0.00000E+000	3.25000E-001	-7.59272E-004	10	..........a	-327.74
	182	0.305	3.16781E-001	-7.87200E-006	0.00000E+000	3.18000E-001	-7.89272E-004	10	..........a	-327.74
	189	0.316667	3.09771E-001	-9.02498E-006	0.00000E+000	3.11000E-001	-8.09272E-004	10	..........a	-327.74
	196	0.328333	3.02811E-001	-8.07252E-006	0.00000E+000	3.04000E-001	-7.09272E-004	10	..........a	-327.74
	203	0.34	2.95786E-001	-8.17278E-006	0.00000E+000	2.97000E-001	-8.29272E-004	10	..........a	-327.74
	210	0.351667	2.88781E-001	-8.57382E-006	0.00000E+000	2.90000E-001	-7.79272E-004	10	..........a	-327.74
	217	0.363333	2.81786E-001	-9.02498E-006	0.00000E+000	2.83000E-001	-7.89272E-004	10	..........a	-327.74
	224	0.375	2.74816E-001	-8.02239E-006	0.00000E+000	2.76000E-001	-7.99272E-004	10	..........a	-327.74
	231	0.386667	2.67791E-001	-8.57382E-006	0.00000E+000	2.69000E-001	-8.39272E-004	10	..........a	-327.74
	238	0.398333	2.60811E-001	-8.97485E-006	0.00000E+000	2.62000E-001	-8.29272E-004	10	..........a	-327.74
	245	0.41	2.53876E-001	-7.92213E-006	0.00000E+000	2.55000E-001	-7.69272E-004	10	..........a	-327.74
	252	0.421667	2.46821E-001	-9.02498E-006	0.00000E+000	2.48000E-001	-7.49272E-004	10	..........a	-327.74
	259	0.433333	2.39786E-001	-9.17537E-006	0.00000E+000	2.41000E-001	-7.39272E-004	10	..........a	-327.74
	266	0.445	2.32876E-001	-9.42602E-006	0.00000E+000	2.34000E-001	-8.29272E-004	10	..........a	-327.74
	273	0.456667	2.25761E-001	-8.62395E-006	0.00000E+000	2.27000E-001	-7.59272E-004	10	..........a	-327.74
	280	0.468333	2.18826E-001	-8.72421E-006	0.00000E+000	2.20000E-001	-8.19272E-004	10	..........a	-327.74
	287	0.48	2.11791E-001	-8.37330E-006	0.00000E+000	2.13000E-001	-7.99272E-004	10	..........a	-327.74
	294	0.491667	2.04836E-001	-8.12265E-006	0.00000E+000	2.06000E-001	-8.19272E-004	10	..........a	-327.74
	301	0.503333	1.97876E-001	-8.92472E-006	0.00000E+000	1.99000E-001	-7.99272E-004	10	..........a	-327.74
	308	0.515	1.90886E-001	-8.17278E-006	0.00000E+000	1.92000E-001	-7.89272E-004	10	..........a	-327.74
	315	0.526667	1.83841E-001	-9.52628E-006	0.00000E+000	1.85000E-001	-7.89272E-004	10	..........a	-327.74
	322	0.538333	1.76926E-001	-8.67408E-006	0.00000E+000	1.78000E-001	-7.99272E-004	10	..........a	-327.74
	329	0.55	1.69806E-001	-8.57382E-006	0.00000E+000	1.71000E-001	-7.49272E-004	10	..........a	-327.74
	336	0.561667	1.62841E-001	-9.07511E-006	0.00000E+000	1.64000E-001	-8.29272E-004	10	..........a	-327.74
	343	0.573333	1.55841E-001	-9.77693E-006	0.00000E+000	1.57000E-001	-8.49272E-004	10	..........a	-327.74
	350	0.585	1.48821E-001	-9.32576E-006	0.00000E+000	1.50000E-001	-7.89272E-004	10	..........a	-327.74
	357	0.596667	1.41901E-001	-9.22550E-006	0.00000E+000	1.43000E-001	-8.19272E-004	10	..........a	-327.74
	364	0.608333	1.34886E-001	-9.07511E-006	0.00000E+000	1.36000E-001	-7.59272E-004	10	..........a	-327.74
	371	0.62	1.27896E-001	-9.87719E-006	0.00000E+000	1.29000E-001	-7.89272E-004	10	..........a	-327.74
	378	0.631667	1.20946E-001	-9.47615E-006	0.00000E+000	1.22000E-001	-8.19272E-004	10	..........a	-327.74
	385	0.643333	1.13906E-001	-9.37589E-006	0.00000E+000	1.15000E-001	-7.79272E-004	10	..........a	-327.74
	392	0.655	1.06896E-001	-9.62654E-006	0.00000E+000	1.08000E-001	-8.59272E-004	10	..........a	-327.74
	399	0.666667	9.98860E-002	-9.37589E-006	0.00000E+000	1.01000E-001	-8.09272E-004	10	..........a	-327.74
	406	0.678333	9.27960E-002	-9.52628E-006	0.00000E+000	9.40000E-002	-7.79272E-004	10	..........a	-327.74
	413	0.69	8.58810E-002	-9.12524E-006	0.00000E+000	8.70000E-002	-7.89272E-004	10	..........a	-327.74
	420	0.701667	7.88860E-002	-1.00777E-005	0.00000E+000	8.00000E-002	-7.99272E-004	10	..........a	-327.74
	427	0.713333	7.18910E-002	-9.27563E-006	0.00000E+000	7.30000E-002	-7.59272E-004	10	..........a	-327.74
	434	0.725	6.50060E-002	-9.92732E-006	0.00000E+000	6.60000E-002	-7.59272E-004	10	..........a	-327.74
	441	0.736667	5.79060E-002	-9.37589E-006	0.00000E+000	5.90000E-002	-7.99272E-004	10	..........a	-327.74
	448	0.748333	5.09210E-002	-1.00276E-005	0.00000E+000	5.20000E-002	-7.89272E-004	10	..........a	-327.74
	455	0.76	4.39410E-002	-9.87719E-006	0.00000E+000	4.50000E-002	-8.09272E-004	10	..........a	-327.74
	462	0.771667	3.69260E-002	-9.62654E-006	0.00000E+000	3.80000E-002	-7.69272E-004	10	..........a	-327.74
	469	0.783333	2.98960E-002	-1.02281E-005	0.00000E+000	3.10000E-002	-7.89272E-004	10	..........a	-327.74
	476	0.795	2.29160E-002	-9.72680E-006	0.00000E+000	2.40000E-002	-7.69272E-004	10	..........a	-327.74
	483	0.806667	1.58460E-002	-9.62654E-006	0.00000E+000	1.70000E-002	-8.29272E-004	10	..........a	-327.74
	490	0.818333	8.96100E-003	-9.42602E-006	0.00000E+000	9.99999E-003	-8.39272E-004	10	..........a	-327.74
	497	0.83	1.89600E-003	-1.04286E-005	0.00000E+000	2.99999E-003	-8.39272E-004	10	..........a	-327.74
	504	0.841667	-5.10900E-003	-1.02281E-005	0.00000E+000	-4.00001E-003	-8.59272E-004	10	..........a	-327.74
	511	0.853333	-1.20990E-002	-9.17537E-006	0.00000E+000	-1.10000E-002	-8.69272E-004	10	..........a	-327.74
	518	0.865	-1.90940E-002	-1.02281E-005	0.00000E+000	-1.80000E-002	-7.89272E-004	10	..........a	-327.74
	525	0.876667	-2.60440E-002	-9.67667E-006	0.00000E+000	-2.50000E-002	-8.19272E-004	10	..........a	-327.74
	532	0.888333	-3.30890E-002	-1.01780E-005	0.00000E+000	-3.20000E-002	-7.69272E-004	10	..........a	-327.74
	539	0.9	-4.00190E-002	-9.17537E-006	0.00000E+000	-3.90000E-002	-7.99272E-004	10	..........a	-327.74
	546	0.911667	-4.70240E-002	-1.06793E-005	0.00000E+000	-4.60000E-002	-7.59272E-004	10	..........a	-327.74
	553	0.923333	-5.40640E-002	-1.05289E-005	0.00000E+000	-5.30000E-002	-7.89272E-004	10	..........a	-327.74
	560	0.935	-6.10640E-002	-9.57641E-006	0.00000E+000	-6.00000E-002	-7.99272E-004	10	..........a	-327.74
	567	0.946667	-6.80490E-002	-1.00777E-005	0.00000E+000	-6.70000E-002	-7.89272E-004	10	..........a	-327.74
	574	0.95833	-7.51190E-002	-1.00777E-005	0.00000E+000	-7.40000E-002	-8.09272E-004	10	..........a	-327.74
	581	0.97	-8.20590E-002	-1.01780E-005	0.00000E+000	-8.10000E-002	-7.59272E-004	10	..........a	-327.74
	588	0.98167	-8.90590E-002	-9.62654E-006	0.00000E+000	-8.80000E-002	-8.09272E-004	10	..........a	-327.74
	595	0.99333	-9.60890E-002	-9.77693E-006	0.00000E+000	-9.50000E-002	-7.99272E-004	10	..........a	-327.74
	602	1.005	-1.02994E-001	-1.06793E-005	0.00000E+000	-1.02000E-001	-8.09272E-004	10	..........a	-327.74
	609	1.01667	-1.10034E-001	-1.09800E-005	0.00000E+000	-1.09000E-001	-7.59272E-004	10	..........a	-327.74
	616	1.02833	-1.17039E-001	-1.05289E-005	0.00000E+000	-1.16000E-001	-7.49272E-004	10	..........a	-327.74
	623	1.04	-1.24044E-001	-1.04787E-005	0.00000E+000	-1.23000E-001	-7.39272E-004	10	..........a	-327.74
	630	1.05167	-1.31069E-001	-9.77693E-006	0.00000E+000	-1.30000E-001	-8.79272E-004	10	..........a	-327.74
	637	1.06333	-1.38089E-001	-9.92732E-006	0.00000E+000	-1.37000E-001	-8.39272E-004	10	..........a	-327.74
	644	1.075	-1.45039E-001	-9.92732E-006	0.00000E+000	-1.44000E-001	-7.49272E-004	10	..........a	-327.74
	651	1.08667	-1.52064E-001	-1.04787E-005	0.00000E+000	-1.51000E-001	-7.59272E-004	10	..........a	-327.74
	658	1.09833	-1.58959E-001	-1.10302E-005	0.00000E+000	-1.58000E-001	-7.99272E-004	10	..........a	-327.74
	665	1.11	-1.66029E-001	-1.01780E-005	0.00000E+000	-1.65000E-001	-7.79272E-004	10	..........a	-327.74
	672	1.12167	-1.73074E-001	-1.11806E-005	0.00000E+000	-1.72000E-001	-8.09272E-004	10	..........a	-327.74
	679	1.13333	-1.79969E-001	-1.14312E-005	0.00000E+000	-1.79000E-001	-7.49272E-004	10	..........a	-327.74
	686	1.145	-1.87034E-001	-1.12808E-005	0.00000E+000	-1.86000E-001	-7.99272E-004	10	..........a	-327.74
	693	1.15667	-1.94004E-001	-1.11806E-005	0.00000E+000	-1.93000E-001	-7.39272E-004	10	..........a	-327.74
	700	1.16833	-2.01049E-001	-1.23335E-005	0.00000E+000	-2.00000E-001	-7.59272E-004	10	..........a	-327.74
	707	1.18	-2.08009E-001	-1.25341E-005	0.00000E+000	-2.07000E-001	-7.79272E-004	10	..........a	-327.74
	714	1.19167	-2.14949E-001	-1.12307E-005	0.00000E+000	-2.14000E-001	-8.19272E-004	10	..........a	-327.74
	721	1.20333	-2.21979E-001	-1.19325E-005	0.00000E+000	-2.21000E-001	-8.09272E-004	10	..........a	-327.74
	728	1.215	-2.28969E-001	-1.26343E-005	0.00000E+000	-2.28000E-001	-7.99272E-004	10	..........a	-327.74
	735	1.22667	-2.36009E-001	-1.29351E-005	0.00000E+000	-2.35000E-001	-7.69272E-004	10	..........a	-327.74
	742	1.23833	-2.42994E-001	-1.34865E-005	0.00000E+000	-2.42000E-001	-7.79272E-004	10	..........a	-327.74
	749	1.25	-2.50004E-001	-1.28348E-005	0.00000E+000	-2.49000E-001	-7.59272E-004	10	..........a	-327.74
	756	1.26167	-2.56929E-001	-1.41382E-005	0.00000E+000	-2.56000E-001	-7.79272E-004	10	..........a	-327.74
	763	1.27333	-2.64049E-001	-1.57424E-005	0.00000E+000	-2.63000E-001	-7.89272E-004	10	..........a	-327.74
	770	1.285	-2.70979E-001	-1.41382E-005	0.00000E+000	-2.70000E-001	-7.59272E-004	10	..........a	-327.74
	777	1.29667	-2.77944E-001	-1.62938E-005	0.00000E+000	-2.77000E-001	-7.89272E-004	10	..........a	-327.74
	784	1.30833	-2.84999E-001	-1.63439E-005	0.00000E+000	-2.84000E-001	-7.59272E-004	10	..........a	-327.74
	791	1.32	-2.91949E-001	-1.73465E-005	0.00000E+000	-2.91000E-001	-7.29272E-004	10	..........a	-327.74
	798	1.33167	-2.98979E-001	-1.82488E-005	0.00000E+000	-2.98000E-001	-8.09272E-004	10	..........a	-327.74
	805	1.34333	-3.05959E-001	-1.88003E-005	0.00000E+000	-3.05000E-001	-8.19272E-004	10	..........a	-327.74
	812	1.355	-3.13044E-001	-1.93016E-005	0.00000E+000	-3.12000E-001	-8.29272E-004	10	..........a	-327.74
	819	1.36667	-3.19954E-001	-2.04044E-005	0.00000E+000	-3.19000E-001	-8.39272E-004	10	..........a	-327.74
	826	1.37833	-3.26949E-001	-2.07553E-005	0.00000E+000	-3.26000E-001	-7.89272E-004	10	..........a	-327.74
	833	1.39	-3.33924E-001	-2.11564E-005	0.00000E+000	-3.33000E-001	-7.59272E-004	10	..........a	-327.74
	840	1.40167	-3.40939E-001	-2.28608E-005	0.00000E+000	-3.40000E-001	-7.79272E-004	10	..........a	-327.74
	847	1.41333	-3.47909E-001	-2.34623E-005	0.00000E+000	-3.47000E-001	-7.79272E-004	10	..........a	-327.74
	854	1.425	-3.54959E-001	-2.56179E-005	0.00000E+000	-3.54000E-001	-7.49272E-004	10	..........a	-327.74
	861	1.43667	-3.61929E-001	-2.68712E-005	0.00000E+000	-3.61000E-001	-7.99272E-004	10	..........a	-327.74
	868	1.44833	-3.69014E-001	-2.73725E-005	0.00000E+000	-3.68000E-001	-8.19272E-004	10	..........a	-327.74
	875	1.46	-3.75919E-001	-2.89766E-005	0.00000E+000	-3.75000E-001	-8.09272E-004	10	..........a	-327.74
	882	1.47167	-3.82894E-001	-2.93275E-005	0.00000E+000	-3.82000E-001	-7.89272E-004	10	..........a	-327.74
	889	1.48333	-3.89904E-001	-3.16836E-005	0.00000E+000	-3.89000E-001	-8.69272E-004	10	..........a	-327.74
	896	1.495	-3.96914E-001	-3.22350E-005	0.00000E+000	-3.96000E-001	-7.59272E-004	10	..........a	-327.74
	903	1.50667	-4.03944E-001	-3.42402E-005	0.00000E+000	-4.03000E-001	-7.19272E-004	10	..........a	-327.74
	910	1.51833	-4.10899E-001	-3.58444E-005	0.00000E+000	-4.10000E-001	-7.99272E-004	10	..........a	-327.74
	917	1.53	-4.17964E-001	-3.81503E-005	0.00000E+000	-4.17000E-001	-7.79272E-004	10	..........a	-327.74
	924	1.54167	-4.24874E-001	-4.05566E-005	0.00000E+000	-4.24000E-001	-7.39272E-004	10	..........a	-327.74
	931	1.55333	-4.31964E-001	-4.43664E-005	0.00000E+000	-4.31000E-001	-7.79272E-004	10	..........a	-327.74
	938	1.565	-4.38914E-001	-5.08332E-005	0.00000E+000	-4.38000E-001	-8.49272E-004	10	..........a	-327.74
	945	1.57667	-4.45939E-001	-5.77511E-005	0.00000E+000	-4.45000E-001	-7.79272E-004	10	..........a	-327.74
	952	1.58833	-4.52894E-001	-6.76767E-005	0.00000E+000	-4.52000E-001	-8.39272E-004	10	..........a	-327.74
	959	1.6	-4.59879E-001	-8.01590E-005	0.00000E+000	-4.59000E-001	-8.19272E-004	10	..........a	-327.74
	966	1.61167	-4.66869E-001	-9.53985E-005	0.00000E+000	-4.66000E-001	-7.99272E-004	10	..........a	-327.74
	973	1.62333	-4.73899E-001	-1.15851E-004	0.00000E+000	-4.73000E-001	-8.29272E-004	10	..........a	-327.74
	980	1.635	-4.80924E-001	-1.42069E-004	0.00000E+000	-4.80000E-001	-7.69272E-004	10	..........a	-327.74
	987	1.64667	-4.87934E-001	-1.72799E-004	0.00000E+000	-4.87000E-001	-7.89272E-004	10	..........a	-327.74
	994	1.65833	-4.94904E-001	-2.10446E-004	0.00000E+000	-4.94000E-001	-7.69272E-004	10	..........a	-327.74
	1001	1.67	-5.01859E-001	-2.55763E-004	0.00000E+000	-5.01000E-001	-7.69272E-004	10	..........a	-327.74
	1008	1.68167	-5.08879E-001	-3.06495E-004	0.00000E+000	-5.08000E-001	-7.89272E-004	10	..........a	-327.74
	1015	1.69333	-5.15814E-001	-3.63392E-004	0.00000E+000	-5.15000E-001	-7.79272E-004	10	..........a	-327.74
	1022	1.705	-5.22934E-001	-4.24951E-004	0.00000E+000	-5.22000E-001	-8.39272E-004	10	..........a	-327.74
	1029	1.71667	-5.29854E-001	-4.86911E-004	0.00000E+000	-5.29000E-001	-7.89272E-004	10	..........a	-327.74
	1036	1.72833	-5.36884E-001	-5.44611E-004	0.00000E+000	-5.36000E-001	-8.29272E-004	10	..........a	-327.74
	1043	1.74	-5.43909E-001	-5.94139E-004	0.00000E+000	-5.43000E-001	-7.29272E-004	10	..........a	-327.74
	1050	1.75167	-5.50839E-001	-6.34543E-004	0.00000E+000	-5.50000E-001	-8.49272E-004	10	..........a	-327.74
	1057	1.76333	-5.57849E-001	-6.61964E-004	0.00000E+000	-5.57000E-001	-8.09272E-004	10	..........a	-327.74
	1064	1.775	-5.64869E-001	-6.71038E-004	0.00000E+000	-5.64000E-001	-8.09272E-004	10	..........a	-327.74
	1071	1.78667	-5.71819E-001	-6.65122E-004	0.00000E+000	-5.71000E-001	-7.79272E-004	10	..........a	-327.74
	1078	1.79833	-5.78884E-001	-6.43817E-004	0.00000E+000	-5.78000E-001	-7.89272E-004	10	..........a	-327.74
	1085	1.81	-5.85914E-001	-6.12486E-004	0.00000E+000	-5.85000E-001	-7.79272E-004	10	..........a	-327.74
	1092	1.82167	-5.92859E-001	-5.78950E-004	0.00000E+000	-5.92000E-001	-8.39272E-004	10	..........a	-327.74
	1099	1.83333	-5.99889E-001	-5.45613E-004	0.00000E+000	-5.99000E-001	-8.09272E-004	10	..........a	-327.74
	1106	1.845	-6.06814E-001	-5.15235E-004	0.00000E+000	-6.06000E-001	-8.29272E-004	10	..........a	-327.74
	1113	1.85667	-6.13869E-001	-4.88064E-004	0.00000E+000	-6.13000E-001	-7.79272E-004	10	..........a	-327.74
	1120	1.86833	-6.20829E-001	-4.65957E-004	0.00000E+000	-6.20000E-001	-7.69272E-004	10	..........a	-327.74
	1127	1.88	-6.27784E-001	-4.44853E-004	0.00000E+000	-6.27000E-001	-8.09272E-004	10	..........a	-327.74
	1134	1.89167	-6.34854E-001	-4.28109E-004	0.00000E+000	-6.34000E-001	-8.39272E-004	10	..........a	-327.74
	1141	1.90333	-6.41819E-001	-4.12168E-004	0.00000E+000	-6.41000E-001	-7.79272E-004	10	..........a	-327.74
	1148	1.915	-6.48739E-001	-3.98783E-004	0.00000E+000	-6.48000E-001	-8.09272E-004	10	..........a	-327.74
	1155	1.92667	-6.55804E-001	-3.86201E-004	0.00000E+000	-6.55000E-001	-7.79272E-004	10	..........a	-327.74
	1162	1.93833	-6.62809E-001	-3.74872E-004	0.00000E+000	-6.62000E-001	-7.29272E-004	10	..........a	-327.74
	1169	1.95	-6.69859E-001	-3.64595E-004	0.00000E+000	-6.69000E-001	-7.49272E-004	10	..........a	-327.74
	1176	1.96167	-6.76809E-001	-3.55521E-004	0.00000E+000	-6.76000E-001	-7.59272E-004	10	..........a	-327.74
	1183	1.97333	-6.83774E-001	-3.45997E-004	0.00000E+000	-6.83000E-001	-8.19272E-004	10	..........a	-327.74
	1190	1.985	-6.90819E-001	-3.38026E-004	0.00000E+000	-6.90000E-001	-7.69272E-004	10	..........a	-327.74
	1197	1.99667	-6.97864E-001	-3.32111E-004	0.00000E+000	-6.97000E-001	-8.29272E-004	10	..........a	-327.74
	1204	2.00833	-7.04794E-001	-3.23188E-004	0.00000E+000	-7.04000E-001	-7.79272E-004	10	..........a	-327.74
	1211	2.02	-7.11794E-001	-3.16320E-004	0.00000E+000	-7.11000E-001	-8.19272E-004	10	..........a	-327.74
	1218	2.03167	-7.18814E-001	-3.10104E-004	0.00000E+000	-7.18000E-001	-7.69272E-004	10	..........a	-327.74
	1225	2.04333	-7.25749E-001	-3.03988E-004	0.00000E+000	-7.25000E-001	-7.49272E-004	10	..........a	-327.74
	1232	2.055	-7.32769E-001	-2.98875E-004	0.00000E+000	-7.32000E-001	-7.79272E-004	10	..........a	-327.74
	1239	2.06667	-7.39774E-001	-2.92809E-004	0.00000E+000	-7.39000E-001	-7.29272E-004	10	..........a	-327.74
	1246	2.07833	-7.46769E-001	-2.87897E-004	0.00000E+000	-7.46000E-001	-8.29272E-004	10	..........a	-327.74
	1253	2.09	-7.53839E-001	-2.82533E-004	0.00000E+000	-7.53000E-001	-7.89272E-004	10	..........a	-327.74
	1260	2.10167	-7.60769E-001	-2.78472E-004	0.00000E+000	-7.60000E-001	-8.19272E-004	10	..........a	-327.74
	1267	2.11333	-7.67819E-001	-2.73760E-004	0.00000E+000	-7.67000E-001	-7.99272E-004	10	..........a	-327.74
	1274	2.125	-7.74779E-001	-2.70251E-004	0.00000E+000	-7.74000E-001	-7.99272E-004	10	..........a	-327.74
	1281	2.13667	-7.81774E-001	-2.66140E-004	0.00000E+000	-7.81000E-001	-7.79272E-004	10	..........a	-327.74
	1288	2.14833	-7.88799E-001	-2.62631E-004	0.00000E+000	-7.88000E-001	-7.99272E-004	10	..........a	-327.74
	1295	2.16	-7.95719E-001	-2.58019E-004	0.00000E+000	-7.95000E-001	-7.59272E-004	10	..........a	-327.74
	1302	2.17167	-8.02799E-001	-2.54811E-004	0.00000E+000	-8.02000E-001	-8.19272E-004	10	..........a	-327.74
	1309	2.18333	-8.09769E-001	-2.51753E-004	0.00000E+000	-8.09000E-001	-8.19272E-004	10	..........a	-327.74
	1316	2.195	-8.16749E-001	-2.48495E-004	0.00000E+000	-8.16000E-001	-8.29272E-004	10	..........a	-327.74
	1323	2.20667	-8.23724E-001	-2.46038E-004	0.00000E+000	-8.23000E-001	-8.29272E-004	10	..........a	-327.74
	1330	2.21833	-8.30714E-001	-2.42680E-004	0.00000E+000	-8.30000E-001	-8.39272E-004	10	..........a	-327.74
	1337	2.23	-8.37684E-001	-2.40223E-004	0.00000E+000	-8.37000E-001	-7.89272E-004	10	..........a	-327.74
	1344	2.24167	-8.44749E-001	-2.36915E-004	0.00000E+000	-8.44000E-001	-7.99272E-004	10	..........a	-327.74
	1351	2.25333	-8.51709E-001	-2.35762E-004	0.00000E+000	-8.51000E-001	-8.39272E-004	10	..........a	-327.74
	1358	2.265	-8.58699E-001	-2.31952E-004	0.00000E+000	-8.58000E-001	-8.69272E-004	10	..........a	-327.74
	1365	2.27667	-8.65684E-001	-2.30297E-004	0.00000E+000	-8.65000E-001	-7.49272E-004	10	..........a	-327.74
	1372	2.28833	-8.72649E-001	-2.27490E-004	0.00000E+000	-8.72000E-001	-8.19272E-004	10	..........a	-327.74
	1379	2.3	-8.79739E-001	-2.25585E-004	0.00000E+000	-8.79000E-001	-7.99272E-004	10	..........a	-327.74
	1386	2.31167	-8.86664E-001	-2.22928E-004	0.00000E+000	-8.86000E-001	-7.59272E-004	10	..........a	-327.74
	1393	2.32333	-8.93689E-001	-2.21074E-004	0.00000E+000	-8.93000E-001	-8.09272E-004	10	..........a	-327.74
	1400	2.335	-9.00724E-001	-2.19219E-004	0.00000E+000	-9.00000E-001	-8.19272E-004	10	..........a	-327.74
	1407	2.34667	-9.07674E-001	-2.17013E-004	0.00000E+000	-9.07000E-001	-7.79272E-004	10	..........a	-327.74
	1414	2.35833	-9.14644E-001	-2.14657E-004	0.00000E+000	-9.14000E-001	-7.99272E-004	10	..........a	-327.74
	1421	2.37	-9.21644E-001	-2.13554E-004	0.00000E+000	-9.21000E-001	-7.89272E-004	10	..........a	-327.74
	1428	2.38167	-9.28689E-001	-2.11649E-004	0.00000E+000	-9.28000E-001	-7.39272E-004	10	..........a	-327.74
	1435	2.39333	-9.35659E-001	-2.10045E-004	0.00000E+000	-9.35000E-001	-8.19272E-004	10	..........a	-327.74
	1442	2.405	-9.42639E-001	-2.08040E-004	0.00000E+000	-9.42000E-001	-8.79272E-004	10	..........a	-327.74
	1449	2.41667	-9.49594E-001	-2.06887E-004	0.00000E+000	-9.49000E-001	-8.59272E-004	10	..........a	-327.74
	1456	2.42833	-9.56704E-001	-2.05834E-004	0.00000E+000	-9.56000E-001	-8.19272E-004	10	..........a	-327.74
	1463	2.44	-9.63659E-001	-2.03929E-004	0.00000E+000	-9.63000E-001	-7.89272E-004	10	..........a	-327.74
	1470	2.45167	-9.70719E-001	-2.03027E-004	0.00000E+000	-9.70000E-001	-8.29272E-004	10	..........a	-327.74
	1477	2.46333	-9.77644E-001	-2.01824E-004	0.00000E+000	-9.77000E-001	-7.39272E-004	10	..........a	-327.74
	1484	2.475	-9.84619E-001	-2.00671E-004	0.00000E+000	-9.84000E-001	-8.19272E-004	10	..........a	-327.74
	1491	2.48667	-9.91669E-001	-2.00069E-004	0.00000E+000	-9.91000E-001	-8.59272E-004	10	..........a	-327.74
	1498	2.49833	-9.98629E-001	-1.97412E-004	0.00000E+000	-9.98000E-001	-8.29272E-004	10	..........a	-327.74
	1505	2.51	-9.95619E-001	-1.89091E-004	0.00000E+000	-9.95000E-001	-7.59272E-004	10	..........a	-327.74
	1512	2.52167	-9.88634E-001	-1.83426E-004	0.00000E+000	-9.88000E-001	-7.79272E-004	10	..........a	-327.74
	1519	2.53333	-9.81684E-001	-1.80017E-004	0.00000E+000	-9.81000E-001	-7.69272E-004	10	..........a	-327.74
	1526	2.545	-9.74644E-001	-1.77561E-004	0.00000E+000	-9.74000E-001	-7.89272E-004	10	..........a	-327.74
	1533	2.55667	-9.67679E-001	-1.75556E-004	0.00000E+000	-9.67000E-001	-7.69272E-004	10	..........a	-327.74
	1540	2.56833	-9.60624E-001	-1.72047E-004	0.00000E+000	-9.60000E-001	-7.49272E-004	10	..........a	-327.74
	1547	2.58	-9.53704E-001	-1.70844E-004	0.00000E+000	-9.53000E-001	-7.99272E-004	10	..........a	-327.74
	1554	2.59167	-9.46669E-001	-1.69340E-004	0.00000E+000	-9.46000E-001	-8.29272E-004	10	..........a	-327.74
	1561	2.60333	-9.39654E-001	-1.67435E-004	0.00000E+000	-9.39000E-001	-7.69272E-004	10	..........a	-327.74
	1568	2.615	-9.32714E-001	-1.66031E-004	0.00000E+000	-9.32000E-001	-8.49272E-004	10	..........a	-327.74
	1575	2.62667	-9.25674E-001	-1.64377E-004	0.00000E+000	-9.25000E-001	-8.29272E-004	10	..........a	-327.74
	1582	2.63833	-9.18674E-001	-1.63625E-004	0.00000E+000	-9.18000E-001	-7.99272E-004	10	..........a	-327.74
	1589	2.65	-9.11659E-001	-1.61269E-004	0.00000E+000	-9.11000E-001	-8.09272E-004	10	..........a	-327.74
	1596	2.66167	-9.04584E-001	-1.59915E-004	0.00000E+000	-9.04000E-001	-8.09272E-004	10	..........a	-327.74
	1603	2.67333	-8.97704E-001	-1.58762E-004	0.00000E+000	-8.97000E-001	-7.69272E-004	10	..........a	-327.74
	1610	2.685	-8.90634E-001	-1.57810E-004	0.00000E+000	-8.90000E-001	-7.99272E-004	10	..........a	-327.74
	1617	2.69667	-8.83684E-001	-1.56707E-004	0.00000E+000	-8.83000E-001	-8.09272E-004	10	..........a	-327.74
	1624	2.70833	-8.76744E-001	-1.56306E-004	0.00000E+000	-8.76000E-001	-7.99272E-004	10	..........a	-327.74
	1631	2.72	-8.69759E-001	-1.55404E-004	0.00000E+000	-8.69000E-001	-7.59272E-004	10	..........a	-327.74
	1638	2.73167	-8.62694E-001	-1.52596E-004	0.00000E+000	-8.62000E-001	-7.79272E-004	10	..........a	-327.74
	1645	2.74333	-8.55759E-001	-1.53048E-004	0.00000E+000	-8.55000E-001	-8.09272E-004	10	..........a	-327.74
	1652	2.755	-8.48654E-001	-1.51995E-004	0.00000E+000	-8.48000E-001	-7.99272E-004	10	..........a	-327.74
	1659	2.76667	-8.41699E-001	-1.50842E-004	0.00000E+000	-8.41000E-001	-8.29272E-004	10	..........a	-327.74
	1666	2.77833	-8.34694E-001	-1.49438E-004	0.00000E+000	-8.34000E-001	-7.99272E-004	10	..........a	-327.74
	1673	2.79	-8.27734E-001	-1.49037E-004	0.00000E+000	-8.27000E-001	-8.49272E-004	10	..........a	-327.74
	1680	2.80167	-8.20729E-001	-1.47985E-004	0.00000E+000	-8.20000E-001	-7.79272E-004	10	..........a	-327.74
	1687	2.81333	-8.13824E-001	-1.46681E-004	0.00000E+000	-8.13000E-001	-7.99272E-004	10	..........a	-327.74
	1694	2.825	-8.06744E-001	-1.46380E-004	0.00000E+000	-8.06000E-001	-7.99272E-004	10	..........a	-327.74
	1701	2.83667	-7.99804E-001	-1.45127E-004	0.00000E+000	-7.99000E-001	-8.89272E-004	10	..........a	-327.74
	1708	2.84833	-7.92754E-001	-1.44175E-004	0.00000E+000	-7.92000E-001	-8.09272E-004	10	..........a	-327.74
	1715	2.86	-7.85729E-001	-1.42671E-004	0.00000E+000	-7.85000E-001	-8.29272E-004	10	..........a	-327.74
	1722	2.87167	-7.78789E-001	-1.42520E-004	0.00000E+000	-7.78000E-001	-8.19272E-004	10	..........a	-327.74
	1729	2.88333	-7.71719E-001	-1.40916E-004	0.00000E+000	-7.71000E-001	-7.89272E-004	10	..........a	-327.74
	1736	2.895	-7.64784E-001	-1.40816E-004	0.00000E+000	-7.64000E-001	-7.99272E-004	10	..........a	-327.74
	1743	2.90667	-7.57789E-001	-1.39112E-004	0.00000E+000	-7.57000E-001	-8.29272E-004	10	..........a	-327.74
	1750	2.91833	-7.50819E-001	-1.39112E-004	0.00000E+000	-7.50000E-001	-7.99272E-004	10	..........a	-327.74
	1757	2.93	-7.43804E-001	-1.38510E-004	0.00000E+000	-7.43000E-001	-7.69272E-004	10	..........a	-327.74
	1764	2.94167	-7.36829E-001	-1.37207E-004	0.00000E+000	-7.36000E-001	-7.29272E-004	10	..........a	-327.74
	1771	2.95333	-7.29789E-001	-1.35803E-004	0.00000E+000	-7.29000E-001	-7.69272E-004	10	..........a	-327.74
	1778	2.965	-7.22774E-001	-1.34199E-004	0.00000E+000	-7.22000E-001	-7.99272E-004	10	..........a	-327.74
	1785	2.97667	-7.15804E-001	-1.34800E-004	0.00000E+000	-7.15000E-001	-7.59272E-004	10	..........a	-327.74
	1792	2.98833	-7.08754E-001	-1.32294E-004	0.00000E+000	-7.08000E-001	-7.59272E-004	10	..........a	-327.74
	1799	3	-7.01884E-001	-1.31843E-004	0.00000E+000	-7.01000E-001	-8.39272E-004	10	..........a	-327.74
	1806	3.01167	-6.94759E-001	-1.30489E-004	0.00000E+000	-6.94000E-001	-8.29272E-004	10	..........a	-327.74
	1813	3.02333	-6.87789E-001	-1.30188E-004	0.00000E+000	-6.87000E-001	-7.89272E-004	10	..........a	-327.74
	1820	3.035	-6.80784E-001	-1.28284E-004	0.00000E+000	-6.80000E-001	-7.19272E-004	10	..........a	-327.74
	1827	3.04667	-6.73779E-001	-1.26880E-004	0.00000E+000	-6.73000E-001	-7.89272E-004	10	..........a	-327.74
	1834	3.05833	-6.66789E-001	-1.24925E-004	0.00000E+000	-6.66000E-001	-8.09272E-004	10	..........a	-327.74
	1841	3.07	-6.59769E-001	-1.23772E-004	0.00000E+000	-6.59000E-001	-7.59272E-004	10	..........a	-327.74
	1848	3.08167	-6.52814E-001	-1.22017E-004	0.00000E+000	-6.52000E-001	-7.79272E-004	10	..........a	-327.74
	1855	3.09333	-6.45829E-001	-1.20263E-004	0.00000E+000	-6.45000E-001	-8.29272E-004	10	..........a	-327.74
	1862	3.105	-6.38789E-001	-1.17857E-004	0.00000E+000	-6.38000E-001	-7.89272E-004	10	..........a	-327.74
	1869	3.11667	-6.31839E-001	-1.15350E-004	0.00000E+000	-6.31000E-001	-7.79272E-004	10	..........a	-327.74
	1876	3.12833	-6.24819E-001	-1.12242E-004	0.00000E+000	-6.24000E-001	-8.39272E-004	10	..........a	-327.74
	1883	3.14	-6.17869E-001	-1.07530E-004	0.00000E+000	-6.17000E-001	-7.49272E-004	10	..........a	-327.74
	1890	3.15167	-6.10844E-001	-1.04823E-004	0.00000E+000	-6.10000E-001	-6.69272E-004	10	..........a	-327.74
	1897	3.16333	-6.03814E-001	-9.76042E-005	0.00000E+000	-6.03000E-001	-7.39272E-004	10	..........a	-327.74
	1904	3.175	-5.96909E-001	-9.15385E-005	0.00000E+000	-5.96000E-001	-7.99272E-004	10	..........a	-327.74
	1911	3.18667	-5.89819E-001	-8.19637E-005	0.00000E+000	-5.89000E-001	-8.09272E-004	10	..........a	-327.74
	1918	3.19833	-5.82834E-001	-7.01331E-005	0.00000E+000	-5.82000E-001	-8.29272E-004	10	..........a	-327.74
	1925	3.21	-5.75854E-001	-5.38409E-005	0.00000E+000	-5.75000E-001	-8.19272E-004	10	..........a	-327.74
	1932	3.22167	-5.68899E-001	-3.46413E-005	0.00000E+000	-5.68000E-001	-7.99272E-004	10	..........a	-327.74
	1939	3.23333	-5.61879E-001	-8.72421E-006	0.00000E+000	-5.61000E-001	-8.29272E-004	10	..........a	-327.74
	1946	3.245	-5.54879E-001	2.80710E-005	0.00000E+000	-5.54000E-001	-7.89272E-004	10	..........a	-327.74
	1953	3.25667	-5.47809E-001	7.22854E-005	0.00000E+000	-5.47000E-001	-8.29272E-004	10	..........a	-327.74
	1960	3.26833	-5.40879E-001	1.29483E-004	0.00000E+000	-5.40000E-001	-8.39272E-004	10	..........a	-327.74
	1967	3.28	-5.33884E-001	1.94552E-004	0.00000E+000	-5.33000E-001	-8.59272E-004	10	..........a	-327.74
	1974	3.29167	-5.26834E-001	2.68092E-004	0.00000E+000	-5.26000E-001	-8.69272E-004	10	..........a	-327.74
	1981	3.30333	-5.19929E-001	3.37471E-004	0.00000E+000	-5.19000E-001	-8.59272E-004	10	..........a	-327.74
	1988	3.315	-5.12819E-001	3.97978E-004	0.00000E+000	-5.12000E-001	-7.89272E-004	10	..........a	-327.74
	1995	3.32667	-5.05894E-001	4.42644E-004	0.00000E+000	-5.05000E-001	-7.79272E-004	10	..........a	-327.74
	2002	3.33833	-4.98889E-001	4.70065E-004	0.00000E+000	-4.98000E-001	-8.49272E-004	10	..........a	-327.74
	2009	3.35	-4.91884E-001	4.77985E-004	0.00000E+000	-4.91000E-001	-7.89272E-004	10	..........a	-327.74
	2016	3.36167	-4.84929E-001	4.71769E-004	0.00000E+000	-4.84000E-001	-8.19272E-004	10	..........a	-327.74
	2023	3.37333	-4.77864E-001	4.57181E-004	0.00000E+000	-4.77000E-001	-7.69272E-004	10	..........a	-327.74
	2030	3.385	-4.70919E-001	4.34874E-004	0.00000E+000	-4.70000E-001	-8.09272E-004	10	..........a	-327.74
	2037	3.39667	-4.63899E-001	4.12165E-004	0.00000E+000	-4.63000E-001	-8.19272E-004	10	..........a	-327.74
	2044	3.40833	-4.56884E-001	3.87902E-004	0.00000E+000	-4.56000E-001	-8.09272E-004	10	..........a	-327.74
	2051	3.42	-4.49899E-001	3.62135E-004	0.00000E+000	-4.49000E-001	-7.99272E-004	10	..........a	-327.74
	2058	3.43167	-4.42929E-001	3.39878E-004	0.00000E+000	-4.42000E-001	-8.09272E-004	10	..........a	-327.74
	2065	3.44333	-4.35869E-001	3.19124E-004	0.00000E+000	-4.35000E-001	-7.99272E-004	10	..........a	-327.74
	2072	3.455	-4.28929E-001	2.99523E-004	0.00000E+000	-4.28000E-001	-8.09272E-004	10	..........a	-327.74
	2079	3.46667	-4.21934E-001	2.82579E-004	0.00000E+000	-4.21000E-001	-7.79272E-004	10	..........a	-327.74
	2086	3.47833	-4.14894E-001	2.67841E-004	0.00000E+000	-4.14000E-001	-7.59272E-004	10	..........a	-327.74
	2093	3.49	-4.07934E-001	2.52251E-004	0.00000E+000	-4.07000E-001	-7.69272E-004	10	..........a	-327.74
	2100	3.50167	-4.00874E-001	2.40521E-004	0.00000E+000	-4.00000E-001	-8.69272E-004	10	..........a	-327.74
	2107	3.51333	-3.93929E-001	2.28840E-004	0.00000E+000	-3.93000E-001	-8.59272E-004	10	..........a	-327.74
	2114	3.525	-3.86924E-001	2.18965E-004	0.00000E+000	-3.86000E-001	-8.19272E-004	10	..........a	-327.74
	2121	3.53667	-3.79904E-001	2.09591E-004	0.00000E+000	-3.79000E-001	-8.29272E-004	10	..........a	-327.74
	2128	3.54833	-3.72904E-001	2.01520E-004	0.00000E+000	-3.72000E-001	-7.99272E-004	10	..........a	-327.74
	2135	3.56	-3.65929E-001	1.93499E-004	0.00000E+000	-3.65000E-001	-8.39272E-004	10	..........a	-327.74
	2142	3.57167	-3.58874E-001	1.85679E-004	0.00000E+000	-3.58000E-001	-7.99272E-004	10	..........a	-327.74
	2149	3.58333	-3.51979E-001	1.79814E-004	0.00000E+000	-3.51000E-001	-7.99272E-004	10	..........a	-327.74
	2156	3.595	-3.44994E-001	1.73247E-004	0.00000E+000	-3.44000E-001	-8.29272E-004	10	..........a	-327.74
	2163	3.60667	-3.37904E-001	1.67482E-004	0.00000E+000	-3.37000E-001	-8.19272E-004	10	..........a	-327.74
	2170	3.61833	-3.30939E-001	1.61566E-004	0.00000E+000	-3.30000E-001	-7.99272E-004	10	..........a	-327.74
	2177	3.63	-3.23949E-001	1.57656E-004	0.00000E+000	-3.23000E-001	-8.39272E-004	10	..........a	-327.74
	2184	3.64167	-3.17019E-001	1.52493E-004	0.00000E+000	-3.16000E-001	-8.39272E-004	10	..........a	-327.74
	2191	3.65333	-3.09914E-001	1.49084E-004	0.00000E+000	-3.09000E-001	-8.39272E-004	10	..........a	-327.74
	2198	3.665	-3.02919E-001	1.44873E-004	0.00000E+000	-3.02000E-001	-8.19272E-004	10	..........a	-327.74
	2205	3.67667	-2.95984E-001	1.39610E-004	0.00000E+000	-2.95000E-001	-8.39272E-004	10	..........a	-327.74
	2212	3.68833	-2.88919E-001	1.36852E-004	0.00000E+000	-2.88000E-001	-8.29272E-004	10	..........a	-327.74
	2219	3.7	-2.81924E-001	1.33594E-004	0.00000E+000	-2.81000E-001	-8.09272E-004	10	..........a	-327.74
	2226	3.71167	-2.74984E-001	1.29985E-004	0.00000E+000	-2.74000E-001	-8.39272E-004	10	..........a	-327.74
	2233	3.72333	-2.67904E-001	1.25774E-004	0.00000E+000	-2.67000E-001	-8.49272E-004	10	..........a	-327.74
	2240	3.735	-2.60944E-001	1.23518E-004	0.00000E+000	-2.60000E-001	-8.49272E-004	10	..........a	-327.74
	2247	3.74667	-2.53974E-001	1.20009E-004	0.00000E+000	-2.53000E-001	-8.29272E-004	10	..........a	-327.74
	2254	3.75833	-2.46924E-001	1.18104E-004	0.00000E+000	-2.46000E-001	-8.49272E-004	10	..........a	-327.74
	2261	3.77	-2.40044E-001	1.15397E-004	0.00000E+000	-2.39000E-001	-8.39272E-004	10	..........a	-327.74
	2268	3.78167	-2.32964E-001	1.13191E-004	0.00000E+000	-2.32000E-001	-8.39272E-004	10	..........a	-327.74
	2275	3.79333	-2.25969E-001	1.10785E-004	0.00000E+000	-2.25000E-001	-8.69272E-004	10	..........a	-327.74
	2282	3.805	-2.18939E-001	1.09081E-004	0.00000E+000	-2.18000E-001	-8.59272E-004	10	..........a	-327.74
	2289	3.81667	-2.11944E-001	1.06173E-004	0.00000E+000	-2.11000E-001	-7.89272E-004	10	..........a	-327.74
	2296	3.82833	-2.04954E-001	1.05070E-004	0.00000E+000	-2.04000E-001	-8.09272E-004	10	..........a	-327.74
	2303	3.84	-1.97964E-001	1.02714E-004	0.00000E+000	-1.97000E-001	-8.49272E-004	10	..........a	-327.74
	2310	3.85167	-1.90994E-001	1.00358E-004	0.00000E+000	-1.90000E-001	-8.29272E-004	10	..........a	-327.74
	2317	3.86333	-1.84034E-001	9.88040E-005	0.00000E+000	-1.83000E-001	-7.99272E-004	10	..........a	-327.74
	2324	3.875	-1.76984E-001	9.71497E-005	0.00000E+000	-1.76000E-001	-7.99272E-004	10	..........a	-327.74
	2331	3.88667	-1.70044E-001	9.62474E-005	0.00000E+000	-1.69000E-001	-8.49272E-004	10	..........a	-327.74
	2338	3.89833	-1.63054E-001	9.31895E-005	0.00000E+000	-1.62000E-001	-8.09272E-004	10	..........a	-327.74
	2345	3.91	-1.55984E-001	9.24877E-005	0.00000E+000	-1.55000E-001	-8.59272E-004	10	..........a	-327.74
	2352	3.92167	-1.49044E-001	9.10840E-005	0.00000E+000	-1.48000E-001	-8.59272E-004	10	..........a	-327.74
	2359	3.93333	-1.42034E-001	8.92292E-005	0.00000E+000	-1.41000E-001	-8.09272E-004	10	..........a	-327.74
	2366	3.945	-1.35004E-001	8.77755E-005	0.00000E+000	-1.34000E-001	-8.29272E-004	10	..........a	-327.74
	2373	3.95667	-1.28039E-001	8.67729E-005	0.00000E+000	-1.27000E-001	-7.99272E-004	10	..........a	-327.74
	2380	3.96833	-1.21014E-001	8.54695E-005	0.00000E+000	-1.20000E-001	-7.99272E-004	10	..........a	-327.74
	2387	3.98	-1.14024E-001	8.31635E-005	0.00000E+000	-1.13000E-001	-8.49272E-004	10	..........a	-327.74
	2394	3.99167	-1.07104E-001	8.31134E-005	0.00000E+000	-1.06000E-001	-8.19272E-004	10	..........a	-327.74
	2401	4.00333	-1.00069E-001	8.13087E-005	0.00000E+000	-9.90000E-002	-7.89272E-004	10	..........a	-327.74
	2408	4.015	-9.30190E-002	8.06570E-005	0.00000E+000	-9.20000E-002	-8.39272E-004	10	..........a	-327.74
	2415	4.02667	-8.60640E-002	7.96545E-005	0.00000E+000	-8.50000E-002	-8.19272E-004	10	..........a	-327.74
	2422	4.03833	-7.89890E-002	7.89526E-005	0.00000E+000	-7.80000E-002	-8.09272E-004	10	..........a	-327.74
	2429	4.05	-7.20640E-002	7.77495E-005	0.00000E+000	-7.10000E-002	-8.29272E-004	10	..........a	-327.74
	2436	4.06167	-6.50690E-002	7.70978E-005	0.00000E+000	-6.40000E-002	-8.59272E-004	10	..........a	-327.74
	2443	4.07333	-5.80190E-002	7.58947E-005	0.00000E+000	-5.70000E-002	-8.39272E-004	10	..........a	-327.74
	2450	4.085	-5.10490E-002	7.45412E-005	0.00000E+000	-5.00000E-002	-7.99272E-004	10	..........a	-327.74
	2457	4.09667	-4.40390E-002	7.44911E-005	0.00000E+000	-4.30000E-002	-7.89272E-004	10	..........a	-327.74
	2464	4.10833	-3.70940E-002	7.27366E-005	0.00000E+000	-3.60000E-002	-8.69272E-004	10	..........a	-327.74
	2471	4.12	-3.00640E-002	7.25360E-005	0.00000E+000	-2.90000E-002	-8.29272E-004	10	..........a	-327.74
	2478	4.13167	-2.30440E-002	7.20347E-005	0.00000E+000	-2.20000E-002	-8.29272E-004	10	..........a	-327.74
	2485	4.14333	-1.60690E-002	7.05810E-005	0.00000E+000	-1.50000E-002	-8.39272E-004	10	..........a	-327.74
	2492	4.155	-9.07900E-003	7.00797E-005	0.00000E+000	-8.00000E-003	-7.79272E-004	10	..........a	-327.74
	2499	4.16667	-2.04900E-003	7.00797E-005	0.00000E+000	-1.00000E-003	-8.59272E-004	10	..........a	-327.74
	2506	4.17833	4.96100E-003	6.99293E-005	0.00000E+000	5.99998E-003	-7.69272E-004	10	..........a	-327.74
	2513	4.19	1.19860E-002	6.94781E-005	0.00000E+000	1.30000E-002	-8.39272E-004	10	..........a	-327.74
	2520	4.20167	1.89110E-002	6.85758E-005	0.00000E+000	2.00000E-002	-8.29272E-004	10	..........a	-327.74
	2527	4.21333	2.59010E-002	6.76735E-005	0.00000E+000	2.70000E-002	-8.19272E-004	10	..........a	-327.74
	2534	4.225	3.29510E-002	6.71220E-005	0.00000E+000	3.40000E-002	-8.09272E-004	10	..........a	-327.74
	2541	4.23667	3.98560E-002	6.59690E-005	0.00000E+000	4.10000E-002	-8.29272E-004	10	..........a	-327.74
	2548	4.24833	4.69210E-002	6.69716E-005	0.00000E+000	4.80000E-002	-7.89272E-004	10	..........a	-327.74
	2555	4.26	5.39210E-002	6.57184E-005	0.00000E+000	5.50000E-002	-8.09272E-004	10	..........a	-327.74
	2562	4.27167	6.09210E-002	6.57685E-005	0.00000E+000	6.20000E-002	-7.89272E-004	10	..........a	-327.74
	2569	4.28333	6.79610E-002	6.39137E-005	0.00000E+000	6.90000E-002	-8.49272E-004	10	..........a	-327.74
	2576	4.295	7.49460E-002	6.27106E-005	0.00000E+000	7.60000E-002	-7.79272E-004	10	..........a	-327.74
	2583	4.30667	8.18810E-002	6.21592E-005	0.00000E+000	8.30000E-002	-8.39272E-004	10	..........a	-327.74
	2590	4.31833	8.89460E-002	6.16078E-005	0.00000E+000	9.00000E-002	-8.49272E-004	10	..........a	-327.74
	2597	4.33	9.58460E-002	6.11065E-005	0.00000E+000	9.70000E-002	-8.29272E-004	10	..........a	-327.74
	2604	4.34167	1.02886E-001	6.01039E-005	0.00000E+000	1.04000E-001	-7.79272E-004	10	..........a	-327.74
	2611	4.35333	1.09901E-001	5.89509E-005	0.00000E+000	1.11000E-001	-8.09272E-004	10	..........a	-327.74
	2618	4.365	1.16811E-001	5.82491E-005	0.00000E+000	1.18000E-001	-8.49272E-004	10	..........a	-327.74
	2625	4.37667	1.23906E-001	5.76475E-005	0.00000E+000	1.25000E-001	-7.89272E-004	10	..........a	-327.74
	2632	4.38833	1.30911E-001	5.58930E-005	0.00000E+000	1.32000E-001	-8.49272E-004	10	..........a	-327.74
	2639	4.4	1.37861E-001	5.57426E-005	0.00000E+000	1.39000E-001	-8.79272E-004	10	..........a	-327.74
	2646	4.41167	1.44961E-001	5.54418E-005	0.00000E+000	1.46000E-001	-8.29272E-004	10	..........a	-327.74
	2653	4.42333	1.51886E-001	5.42888E-005	0.00000E+000	1.53000E-001	-8.39272E-004	10	..........a	-327.74
	2660	4.435	1.58881E-001	5.29353E-005	0.00000E+000	1.60000E-001	-8.29272E-004	10	..........a	-327.74
	2667	4.44667	1.65871E-001	5.25844E-005	0.00000E+000	1.67000E-001	-8.19272E-004	10	..........a	-327.74
	2674	4.45833	1.72871E-001	5.22836E-005	0.00000E+000	1.74000E-001	-7.79272E-004	10	..........a	-327.74
	2681	4.47	1.79841E-001	5.13813E-005	0.00000E+000	1.81000E-001	-7.99272E-004	10	..........a	-327.74
	2688	4.48167	1.86851E-001	5.08299E-005	0.00000E+000	1.88000E-001	-8.19272E-004	10	..........a	-327.74
	2695	4.49333	1.93851E-001	4.89751E-005	0.00000E+000	1.95000E-001	-8.69272E-004	10	..........a	-327.74
	2702	4.505	2.00901E-001	4.90252E-005	0.00000E+000	2.02000E-001	-8.29272E-004	10	..........a	-327.74
	2709	4.51667	2.07826E-001	4.79725E-005	0.00000E+000	2.09000E-001	-8.19272E-004	10	..........a	-327.74
	2716	4.52833	2.14831E-001	4.79224E-005	0.00000E+000	2.16000E-001	-8.19272E-004	10	..........a	-327.74
	2723	4.54	2.21886E-001	4.79725E-005	0.00000E+000	2.23000E-001	-8.29272E-004	10	..........a	-327.74
	2730	4.55167	2.28806E-001	4.70702E-005	0.00000E+000	2.30000E-001	-8.39272E-004	10	..........a	-327.74
	2737	4.56333	2.35751E-001	4.60676E-005	0.00000E+000	2.37000E-001	-8.69272E-004	10	..........a	-327.74
	2744	4.575	2.42826E-001	4.60676E-005	0.00000E+000	2.44000E-001	-7.99272E-004	10	..........a	-327.74
	2751	4.58667	2.49766E-001	4.45135E-005	0.00000E+000	2.51000E-001	-8.39272E-004	10	..........a	-327.74
	2758	4.59833	2.56841E-001	4.48644E-005	0.00000E+000	2.58000E-001	-8.69272E-004	10	..........a	-327.74
	2765	4.61	2.63791E-001	4.46138E-005	0.00000E+000	2.65000E-001	-8.09272E-004	10	..........a	-327.74
	2772	4.62167	2.70816E-001	4.33606E-005	0.00000E+000	2.72000E-001	-8.19272E-004	10	..........a	-327.74
	2779	4.63333	2.77871E-001	4.37616E-005	0.00000E+000	2.79000E-001	-8.59272E-004	10	..........a	-327.74
	2786	4.645	2.84841E-001	4.27590E-005	0.00000E+000	2.86000E-001	-8.29272E-004	10	..........a	-327.74
	2793	4.65667	2.91801E-001	4.36613E-005	0.00000E+000	2.93000E-001	-8.69272E-004	10	..........a	-327.74
	2800	4.66833	2.98831E-001	4.16060E-005	0.00000E+000	3.00000E-001	-8.79272E-004	10	..........a	-327.74
	2807	4.68	3.05746E-001	4.22076E-005	0.00000E+000	3.07000E-001	-7.59272E-004	10	..........a	-327.74
	2814	4.69167	3.12836E-001	4.17063E-005	0.00000E+000	3.14000E-001	-8.09272E-004	10	..........a	-327.74
	2821	4.70333	3.19811E-001	4.13554E-005	0.00000E+000	3.21000E-001	-7.79272E-004	10	..........a	-327.74
	2828	4.715	3.26816E-001	4.01523E-005	0.00000E+000	3.28000E-001	-8.19272E-004	10	..........a	-327.74
	2835	4.72667	3.33821E-001	4.02024E-005	0.00000E+000	3.35000E-001	-7.69272E-004	10	..........a	-327.74
	2842	4.73833	3.40751E-001	4.01021E-005	0.00000E+000	3.42000E-001	-8.99272E-004	10	..........a	-327.74
	2849	4.75	3.47756E-001	3.99016E-005	0.00000E+000	3.49000E-001	-8.09272E-004	10	..........a	-327.74
	2856	4.76167	3.54856E-001	3.95507E-005	0.00000E+000	3.56000E-001	-8.39272E-004	10	..........a	-327.74
	2863	4.77333	3.61776E-001	4.02525E-005	0.00000E+000	3.63000E-001	-8.59272E-004	10	..........a	-327.74
	2870	4.785	3.68811E-001	3.97011E-005	0.00000E+000	3.70000E-001	-7.69272E-004	10	..........a	-327.74
	2877	4.79667	3.75771E-001	4.00520E-005	0.00000E+000	3.77000E-001	-8.09272E-004	10	..........a	-327.74
	2884	4.80833	3.82761E-001	3.86985E-005	0.00000E+000	3.84000E-001	-8.49272E-004	10	..........a	-327.74
	2891	4.82	3.89801E-001	3.84980E-005	0.00000E+000	3.91000E-001	-8.09272E-004	10	..........a	-327.74
	2898	4.83167	3.96776E-001	3.84980E-005	0.00000E+000	3.98000E-001	-8.79272E-004	10	..........a	-327.74
	2905	4.84333	4.03716E-001	3.83476E-005	0.00000E+000	4.05000E-001	-8.19272E-004	10	..........a	-327.74
	2912	4.855	4.10791E-001	3.80969E-005	0.00000E+000	4.12000E-001	-8.59272E-004	10	..........a	-327.74
	2919	4.86667	4.17756E-001	3.75956E-005	0.00000E+000	4.19000E-001	-8.19272E-004	10	..........a	-327.74
	2926	4.87833	4.24741E-001	3.62421E-005	0.00000E+000	4.26000E-001	-8.19272E-004	10	..........a	-327.74
	2933	4.89	4.31791E-001	3.66432E-005	0.00000E+000	4.33000E-001	-8.39272E-004	10	..........a	-327.74
	2940	4.90167	4.38751E-001	3.61419E-005	0.00000E+000	4.40000E-001	-8.49272E-004	10	..........a	-327.74
	2947	4.91333	4.45761E-001	3.65429E-005	0.00000E+000	4.47000E-001	-8.29272E-004	10	..........a	-327.74
	2954	4.925	4.52721E-001	3.59414E-005	0.00000E+000	4.54000E-001	-8.39272E-004	10	..........a	-327.74
	2961	4.93667	4.59731E-001	3.59414E-005	0.00000E+000	4.61000E-001	-8.19272E-004	10	..........a	-327.74
	2968	4.94833	4.66756E-001	3.61920E-005	0.00000E+000	4.68000E-001	-7.89272E-004	10	..........a	-327.74
	2975	4.96	4.73741E-001	3.56406E-005	0.00000E+000	4.75000E-001	-7.89272E-004	10	..........a	-327.74
	2982	4.97167	4.80781E-001	3.42369E-005	0.00000E+000	4.82000E-001	-7.89272E-004	10	..........a	-327.74
	2989	4.98333	4.87726E-001	3.43873E-005	0.00000E+000	4.89000E-001	-8.09272E-004	10	..........a	-327.74
	2996	4.995	4.94736E-001	3.48886E-005	0.00000E+000	4.96000E-001	-7.99272E-004	10	..........a	-327.74
	3000	5.00167	4.98731E-001	3.43372E-005	0.00000E+000	5.00000E-001	-8.49272E-004	10	..........a	-327.74
CURVE2	TABLE
	Pt	T	Vf	Im	Vu	Sig	Ach	IERange	Over	Temp
	#	s	V vs. Ref.	A	V	V	V	#	bits	deg C
	3001	5.00333	4.98771E-001	3.25827E-005	0.00000E+000	5.00000E-001	-8.19272E-004	10	..........a	-327.74