File: data/02-SI/Figures_S9_S11_RDE/18btmapaq-rde/1mkcl-18btmapaq-nitrogen-1000mvpers.DTA
EXPLAIN
TAG	CV
TITLE	LABEL	Cyclic Voltammetry	Test &Identifier
DATE	LABEL	1/31/2023	Date
TIME	LABEL	15:22:34	Time
NOTES	NOTES	1	&Notes...

PSTAT	PSTAT	REF3000-21108	Potentiostat
VINIT	POTEN	5.00000E-001	F	Initial &E (V)
VLIMIT1	POTEN	-1.00000E+000	F	Scan Limit &1 (V)
VLIMIT2	POTEN	5.00000E-001	F	Scan Limit &2 (V)
VFINAL	POTEN	5.00000E-001	F	Final &E (V)
SCANRATE	QUANT	9.99998E+002	&Scan Rate (mV/s)
STEPSIZE	QUANT	1.00000E+000	St&ep Size (mV)
CYCLES	IQUANT	1	C&ycles (#)
IMODE	SELECTOR	1	I/E Range &Mode
IRANGE	QUANT	1.00000E+001	&Max Current (mA)
AREA	QUANT	1.00000E+000	Electrode &Area (cm^2)
ELECTRODETYPE	SELECTOR	0	Electrode Type
STRIPPING	TOGGLE	F	Used for Stripping
POLARITY	TOGGLE	F	Signal Polarity
CONDIT	TWOPARAM	F	1.50000E+001	0.00000E+000	Conditionin&g	Time(s)	E(V)
DELAY	TWOPARAM	F	5.00000E+000	0.00000E+000	Init. De&lay	Time(s)	Stab.(mV/s)
EQDELAY	QUANT	0.00000E+000	Equil. &Time (s)
IRCOMP	SELECTOR	0	IRCom&p
PFCOR	QUANT	5.00000E+001	PF Corr. (ohm)
SAMPLINGMODE	SELECTOR	1	Sampling &Mode
EOC	QUANT	0	Open Circuit (V)
PSTATMODEL	IQUANT	5	Pstat Model
PSTATSECTION	LABEL	REF3000-21108	Pstat Section
PSTATSERIALNO	LABEL	21108	Pstat Serial Number
CTRLMODE	IQUANT	1	Control Mode
ELECTROMETER	IQUANT	0	RE=0 or CS=1
IESTAB	IQUANT	2	I/E Stability
CASPEED	IQUANT	4	Control Amp Speed
CONVENTION	IQUANT	1	Current Convention
ICHRANGE	IQUANT	2	Ich Range
ICHRANGEMODE	TOGGLE	F	Ich Auto Range
ICHOFFSETENABLE	TOGGLE	F	Ich Offset Enable
ICHOFFSET	QUANT	0	Ich Offset (V)
ICHFILTER	IQUANT	1	Ich Filter
VCHRANGE	IQUANT	2	Vch Range
VCHRANGEMODE	TOGGLE	F	Vch Auto Range
VCHOFFSETENABLE	TOGGLE	F	Vch Offset Enable
VCHOFFSET	QUANT	0	Vch Offset (V)
VCHFILTER	IQUANT	1	Vch Filter
ACHRANGE	IQUANT	2	Ach Range
ACHOFFSETENABLE	TOGGLE	F	Ach Offset Enable
ACHOFFSET	QUANT	0	Ach Offset (V)
ACHFILTER	IQUANT	0	Ach Filter
IERANGELOWERLIMIT	IQUANT	2	I/E Range Lower Limit
IERANGEMODE	TOGGLE	F	I/E AutoRange
IERANGE	IQUANT	10	I/E Range
POSFEEDENABLE	TOGGLE	F	Positive Feedback IR Comp
POSFEEDRESISTANCE	QUANT	0	Positive Feedback Resistance (ohm)
ACHSELECT	IQUANT	0	Ach Select
SENSECABLEID	IQUANT	14	Sense Cable ID
PWRCABLEID	IQUANT	7	Power Cable ID
DCCALDATE	LABEL	11/9/2022	DC Calibration Date
ACCALDATE	LABEL	11/9/2022	AC Calibration Date
THERMOSELECT	IQUANT	1	Thermo Select
FRAMEWORKVERSION	LABEL	7.8.2	Framework Version
INSTRUMENTVERSION	LABEL	4.40	Instrument Version
COMPLIANCEVOLTAGE	IQUANT	0	Compliance Voltage
CURVE1	TABLE
	Pt	T	Vf	Im	Vu	Sig	Ach	IERange	Over	Temp
	#	s	V vs. Ref.	A	V	V	V	#	bits	deg C
	0	0.001	4.98608E-001	1.08264E-005	0.00000E+000	5.00000E-001	-8.62605E-004	10	..........a	-327.74
	7	0.008	4.91574E-001	2.72208E-006	0.00000E+000	4.93000E-001	-8.62605E-004	10	..........a	-327.74
	14	0.015	4.84558E-001	-2.87574E-006	0.00000E+000	4.86000E-001	-8.62605E-004	10	..........a	-327.74
	21	0.022	4.77499E-001	-3.54414E-006	0.00000E+000	4.79000E-001	-8.79272E-004	10	..........a	-327.74
	28	0.029	4.70583E-001	-5.79997E-006	0.00000E+000	4.72000E-001	-7.95939E-004	10	..........a	-327.74
	35	0.036	4.63566E-001	-7.05322E-006	0.00000E+000	4.65000E-001	-7.95939E-004	10	..........a	-327.74
	42	0.043	4.56549E-001	-8.72421E-006	0.00000E+000	4.58000E-001	-8.29272E-004	10	..........a	-327.74
	49	0.05	4.49524E-001	-8.30646E-006	0.00000E+000	4.51000E-001	-8.29272E-004	10	..........a	-327.74
	56	0.057	4.42599E-001	-1.08129E-005	0.00000E+000	4.44000E-001	-8.62605E-004	10	..........a	-327.74
	63	0.064	4.35541E-001	-1.14813E-005	0.00000E+000	4.37000E-001	-8.62605E-004	10	..........a	-327.74
	70	0.071	4.28558E-001	-1.22333E-005	0.00000E+000	4.30000E-001	-8.12605E-004	10	..........a	-327.74
	77	0.078	4.21608E-001	-1.35701E-005	0.00000E+000	4.23000E-001	-8.29272E-004	10	..........a	-327.74
	84	0.085	4.14566E-001	-1.33194E-005	0.00000E+000	4.16000E-001	-8.12605E-004	10	..........a	-327.74
	91	0.092	4.07574E-001	-1.39043E-005	0.00000E+000	4.09000E-001	-8.29272E-004	10	..........a	-327.74
	98	0.099	4.00574E-001	-1.54917E-005	0.00000E+000	4.02000E-001	-7.95939E-004	10	..........a	-327.74
	105	0.106	3.93649E-001	-1.55753E-005	0.00000E+000	3.95000E-001	-7.95939E-004	10	..........a	-327.74
	112	0.113	3.86633E-001	-1.63272E-005	0.00000E+000	3.88000E-001	-8.29272E-004	10	..........a	-327.74
	119	0.12	3.79583E-001	-1.72463E-005	0.00000E+000	3.81000E-001	-8.29272E-004	10	..........a	-327.74
	126	0.127	3.72608E-001	-1.56588E-005	0.00000E+000	3.74000E-001	-7.95939E-004	10	..........a	-327.74
	133	0.134	3.65649E-001	-1.69121E-005	0.00000E+000	3.67000E-001	-8.95939E-004	10	..........a	-327.74
	140	0.141	3.58624E-001	-1.77476E-005	0.00000E+000	3.60000E-001	-8.45939E-004	10	..........a	-327.74
	147	0.148	3.51649E-001	-1.77476E-005	0.00000E+000	3.53000E-001	-8.79272E-004	10	..........a	-327.74
	154	0.155	3.44591E-001	-1.83324E-005	0.00000E+000	3.46000E-001	-8.45939E-004	10	..........a	-327.74
	161	0.162	3.37649E-001	-1.75805E-005	0.00000E+000	3.39000E-001	-8.12605E-004	10	..........a	-327.74
	168	0.169	3.30666E-001	-1.76640E-005	0.00000E+000	3.32000E-001	-8.12605E-004	10	..........a	-327.74
	175	0.176	3.23599E-001	-1.82488E-005	0.00000E+000	3.25000E-001	-8.79272E-004	10	..........a	-327.74
	182	0.183	3.16591E-001	-1.78311E-005	0.00000E+000	3.18000E-001	-9.12605E-004	10	..........a	-327.74
	189	0.19	3.09683E-001	-1.86666E-005	0.00000E+000	3.11000E-001	-8.12605E-004	10	..........a	-327.74
	196	0.197	3.02599E-001	-1.90008E-005	0.00000E+000	3.04000E-001	-8.45939E-004	10	..........a	-327.74
	203	0.204	2.95641E-001	-2.00034E-005	0.00000E+000	2.97000E-001	-8.45939E-004	10	..........a	-327.74
	210	0.211	2.88591E-001	-1.90008E-005	0.00000E+000	2.90000E-001	-8.45939E-004	10	..........a	-327.74
	217	0.218	2.81599E-001	-1.92514E-005	0.00000E+000	2.83000E-001	-7.62605E-004	10	..........a	-327.74
	224	0.225	2.74649E-001	-1.95021E-005	0.00000E+000	2.76000E-001	-8.45939E-004	10	..........a	-327.74
	231	0.232	2.67633E-001	-1.90008E-005	0.00000E+000	2.69000E-001	-7.29272E-004	10	..........a	-327.74
	238	0.239	2.60641E-001	-1.83324E-005	0.00000E+000	2.62000E-001	-8.95939E-004	10	..........a	-327.74
	245	0.246	2.53724E-001	-1.92514E-005	0.00000E+000	2.55000E-001	-8.45939E-004	10	..........a	-327.74
	252	0.253	2.46666E-001	-1.99198E-005	0.00000E+000	2.48000E-001	-8.62605E-004	10	..........a	-327.74
	259	0.26	2.39616E-001	-1.86666E-005	0.00000E+000	2.41000E-001	-7.95939E-004	10	..........a	-327.74
	266	0.267	2.32641E-001	-1.97527E-005	0.00000E+000	2.34000E-001	-7.95939E-004	10	..........a	-327.74
	273	0.274	2.25691E-001	-1.84995E-005	0.00000E+000	2.27000E-001	-8.62605E-004	10	..........a	-327.74
	280	0.281	2.18733E-001	-1.98363E-005	0.00000E+000	2.20000E-001	-8.29272E-004	10	..........a	-327.74
	287	0.288	2.11658E-001	-1.99198E-005	0.00000E+000	2.13000E-001	-8.45939E-004	10	..........a	-327.74
	294	0.295	2.04708E-001	-1.89172E-005	0.00000E+000	2.06000E-001	-8.45939E-004	10	..........a	-327.74
	301	0.302	1.97708E-001	-1.95856E-005	0.00000E+000	1.99000E-001	-8.79272E-004	10	..........a	-327.74
	308	0.309	1.90691E-001	-2.00869E-005	0.00000E+000	1.92000E-001	-8.62605E-004	10	..........a	-327.74
	315	0.316	1.83683E-001	-1.86666E-005	0.00000E+000	1.85000E-001	-8.45939E-004	10	..........a	-327.74
	322	0.323	1.76724E-001	-1.95856E-005	0.00000E+000	1.78000E-001	-8.45939E-004	10	..........a	-327.74
	329	0.33	1.69633E-001	-1.95856E-005	0.00000E+000	1.71000E-001	-8.12605E-004	10	..........a	-327.74
	336	0.337	1.62708E-001	-1.95856E-005	0.00000E+000	1.64000E-001	-7.95939E-004	10	..........a	-327.74
	343	0.344	1.55683E-001	-2.05882E-005	0.00000E+000	1.57000E-001	-8.12605E-004	10	..........a	-327.74
	350	0.351	1.48616E-001	-2.05882E-005	0.00000E+000	1.50000E-001	-8.79272E-004	10	..........a	-327.74
	357	0.358	1.41733E-001	-1.94185E-005	0.00000E+000	1.43000E-001	-8.12605E-004	10	..........a	-327.74
	364	0.365	1.34699E-001	-2.02540E-005	0.00000E+000	1.36000E-001	-8.12605E-004	10	..........a	-327.74
	371	0.372	1.27691E-001	-1.93350E-005	0.00000E+000	1.29000E-001	-7.45939E-004	10	..........a	-327.74
	378	0.379	1.20749E-001	-1.95021E-005	0.00000E+000	1.22000E-001	-8.12605E-004	10	..........a	-327.74
	385	0.386	1.13749E-001	-1.96692E-005	0.00000E+000	1.15000E-001	-8.62605E-004	10	..........a	-327.74
	392	0.393	1.06733E-001	-2.03376E-005	0.00000E+000	1.08000E-001	-8.79272E-004	10	..........a	-327.74
	399	0.4	9.97077E-002	-2.02540E-005	0.00000E+000	1.01000E-001	-7.95939E-004	10	..........a	-327.74
	406	0.407	9.26743E-002	-1.97527E-005	0.00000E+000	9.40000E-002	-8.62605E-004	10	..........a	-327.74
	413	0.414	8.57160E-002	-2.05882E-005	0.00000E+000	8.70000E-002	-7.79272E-004	10	..........a	-327.74
	420	0.421	7.87077E-002	-1.94185E-005	0.00000E+000	8.00000E-002	-8.62605E-004	10	..........a	-327.74
	427	0.428	7.17243E-002	-2.15073E-005	0.00000E+000	7.30000E-002	-8.62605E-004	10	..........a	-327.74
	434	0.435	6.47493E-002	-2.09224E-005	0.00000E+000	6.60000E-002	-8.29272E-004	10	..........a	-327.74
	441	0.442	5.77910E-002	-1.96692E-005	0.00000E+000	5.90000E-002	-8.45939E-004	10	..........a	-327.74
	448	0.449	5.07410E-002	-2.10060E-005	0.00000E+000	5.20000E-002	-8.45939E-004	10	..........a	-327.74
	455	0.456	4.37660E-002	-2.07553E-005	0.00000E+000	4.50000E-002	-7.95939E-004	10	..........a	-327.74
	462	0.463	3.67327E-002	-2.06718E-005	0.00000E+000	3.80000E-002	-8.45939E-004	10	..........a	-327.74
	469	0.47	2.97827E-002	-2.10895E-005	0.00000E+000	3.10000E-002	-7.95939E-004	10	..........a	-327.74
	476	0.477	2.27660E-002	-2.10060E-005	0.00000E+000	2.40000E-002	-8.12605E-004	10	..........a	-327.74
	483	0.484	1.57077E-002	-2.05047E-005	0.00000E+000	1.70000E-002	-7.95939E-004	10	..........a	-327.74
	490	0.491	8.73267E-003	-2.10895E-005	0.00000E+000	9.99999E-003	-8.62605E-004	10	..........a	-327.74
	497	0.498	1.76600E-003	-2.16744E-005	0.00000E+000	2.99999E-003	-7.62605E-004	10	..........a	-327.74
	504	0.505	-5.27566E-003	-2.14237E-005	0.00000E+000	-4.00001E-003	-8.29272E-004	10	..........a	-327.74
	511	0.512	-1.22757E-002	-2.05882E-005	0.00000E+000	-1.10000E-002	-8.45939E-004	10	..........a	-327.74
	518	0.519	-1.92507E-002	-2.13402E-005	0.00000E+000	-1.80000E-002	-8.79272E-004	10	..........a	-327.74
	525	0.526	-2.61757E-002	-2.00869E-005	0.00000E+000	-2.50000E-002	-8.29272E-004	10	..........a	-327.74
	532	0.533	-3.33090E-002	-2.10895E-005	0.00000E+000	-3.20000E-002	-8.45939E-004	10	..........a	-327.74
	539	0.54	-4.02340E-002	-2.17579E-005	0.00000E+000	-3.90000E-002	-7.79272E-004	10	..........a	-327.74
	546	0.547	-4.72257E-002	-2.11731E-005	0.00000E+000	-4.60000E-002	-8.12605E-004	10	..........a	-327.74
	553	0.554	-5.42007E-002	-2.14237E-005	0.00000E+000	-5.30000E-002	-7.95939E-004	10	..........a	-327.74
	560	0.561	-6.12923E-002	-2.17579E-005	0.00000E+000	-6.00000E-002	-8.79272E-004	10	..........a	-327.74
	567	0.568	-6.82507E-002	-2.17579E-005	0.00000E+000	-6.70000E-002	-8.79272E-004	10	..........a	-327.74
	574	0.575	-7.51840E-002	-2.17579E-005	0.00000E+000	-7.40000E-002	-8.12605E-004	10	..........a	-327.74
	581	0.582	-8.21923E-002	-2.14237E-005	0.00000E+000	-8.10000E-002	-8.12605E-004	10	..........a	-327.74
	588	0.589	-8.91673E-002	-2.07553E-005	0.00000E+000	-8.80000E-002	-7.62605E-004	10	..........a	-327.74
	595	0.596	-9.61923E-002	-2.00034E-005	0.00000E+000	-9.50000E-002	-7.95939E-004	10	..........a	-327.74
	602	0.603	-1.03184E-001	-2.17579E-005	0.00000E+000	-1.02000E-001	-8.45939E-004	10	..........a	-327.74
	609	0.61	-1.10201E-001	-2.12566E-005	0.00000E+000	-1.09000E-001	-7.45939E-004	10	..........a	-327.74
	616	0.617	-1.17234E-001	-2.05882E-005	0.00000E+000	-1.16000E-001	-7.95939E-004	10	..........a	-327.74
	623	0.624	-1.24176E-001	-2.11731E-005	0.00000E+000	-1.23000E-001	-8.45939E-004	10	..........a	-327.74
	630	0.631	-1.31167E-001	-2.19250E-005	0.00000E+000	-1.30000E-001	-7.95939E-004	10	..........a	-327.74
	637	0.638	-1.38151E-001	-2.06718E-005	0.00000E+000	-1.37000E-001	-8.12605E-004	10	..........a	-327.74
	644	0.645	-1.45167E-001	-2.30112E-005	0.00000E+000	-1.44000E-001	-7.95939E-004	10	..........a	-327.74
	651	0.652	-1.52267E-001	-2.26770E-005	0.00000E+000	-1.51000E-001	-8.12605E-004	10	..........a	-327.74
	658	0.659	-1.59159E-001	-2.13402E-005	0.00000E+000	-1.58000E-001	-8.29272E-004	10	..........a	-327.74
	665	0.666	-1.66192E-001	-2.25934E-005	0.00000E+000	-1.65000E-001	-7.95939E-004	10	..........a	-327.74
	672	0.673	-1.73176E-001	-2.20086E-005	0.00000E+000	-1.72000E-001	-8.45939E-004	10	..........a	-327.74
	679	0.68	-1.80217E-001	-2.21757E-005	0.00000E+000	-1.79000E-001	-8.12605E-004	10	..........a	-327.74
	686	0.687	-1.87234E-001	-2.29276E-005	0.00000E+000	-1.86000E-001	-7.95939E-004	10	..........a	-327.74
	693	0.694	-1.94184E-001	-2.20086E-005	0.00000E+000	-1.93000E-001	-8.12605E-004	10	..........a	-327.74
	700	0.701	-2.01201E-001	-2.34289E-005	0.00000E+000	-2.00000E-001	-8.12605E-004	10	..........a	-327.74
	707	0.708	-2.08201E-001	-2.37631E-005	0.00000E+000	-2.07000E-001	-8.95939E-004	10	..........a	-327.74
	714	0.715	-2.15134E-001	-2.34289E-005	0.00000E+000	-2.14000E-001	-7.45939E-004	10	..........a	-327.74
	721	0.722	-2.22134E-001	-2.37631E-005	0.00000E+000	-2.21000E-001	-8.29272E-004	10	..........a	-327.74
	728	0.729	-2.29092E-001	-2.46822E-005	0.00000E+000	-2.28000E-001	-8.12605E-004	10	..........a	-327.74
	735	0.736	-2.36167E-001	-2.48493E-005	0.00000E+000	-2.35000E-001	-8.45939E-004	10	..........a	-327.74
	742	0.743	-2.43092E-001	-2.43480E-005	0.00000E+000	-2.42000E-001	-7.62605E-004	10	..........a	-327.74
	749	0.75	-2.50101E-001	-2.56848E-005	0.00000E+000	-2.49000E-001	-8.29272E-004	10	..........a	-327.74
	756	0.757	-2.57134E-001	-2.52670E-005	0.00000E+000	-2.56000E-001	-7.45939E-004	10	..........a	-327.74
	763	0.764	-2.64101E-001	-2.64367E-005	0.00000E+000	-2.63000E-001	-7.62605E-004	10	..........a	-327.74
	770	0.771	-2.71067E-001	-2.72722E-005	0.00000E+000	-2.70000E-001	-7.95939E-004	10	..........a	-327.74
	777	0.778	-2.78167E-001	-2.81912E-005	0.00000E+000	-2.77000E-001	-8.45939E-004	10	..........a	-327.74
	784	0.785	-2.85117E-001	-2.84419E-005	0.00000E+000	-2.84000E-001	-7.79272E-004	10	..........a	-327.74
	791	0.792	-2.92192E-001	-2.81077E-005	0.00000E+000	-2.91000E-001	-8.12605E-004	10	..........a	-327.74
	798	0.799	-2.99151E-001	-2.95280E-005	0.00000E+000	-2.98000E-001	-8.29272E-004	10	..........a	-327.74
	805	0.806	-3.06101E-001	-3.01964E-005	0.00000E+000	-3.05000E-001	-7.95939E-004	10	..........a	-327.74
	812	0.813	-3.13142E-001	-3.21181E-005	0.00000E+000	-3.12000E-001	-8.29272E-004	10	..........a	-327.74
	819	0.82	-3.20092E-001	-3.22016E-005	0.00000E+000	-3.19000E-001	-7.95939E-004	10	..........a	-327.74
	826	0.827	-3.27059E-001	-3.31207E-005	0.00000E+000	-3.26000E-001	-8.45939E-004	10	..........a	-327.74
	833	0.834	-3.34084E-001	-3.34549E-005	0.00000E+000	-3.33000E-001	-7.95939E-004	10	..........a	-327.74
	840	0.841	-3.41101E-001	-3.43739E-005	0.00000E+000	-3.40000E-001	-8.79272E-004	10	..........a	-327.74
	847	0.848	-3.48051E-001	-3.56271E-005	0.00000E+000	-3.47000E-001	-8.79272E-004	10	..........a	-327.74
	854	0.855	-3.55117E-001	-3.67133E-005	0.00000E+000	-3.54000E-001	-8.45939E-004	10	..........a	-327.74
	861	0.862	-3.62067E-001	-3.77994E-005	0.00000E+000	-3.61000E-001	-7.79272E-004	10	..........a	-327.74
	868	0.869	-3.69142E-001	-3.97211E-005	0.00000E+000	-3.68000E-001	-9.12605E-004	10	..........a	-327.74
	875	0.876	-3.76126E-001	-4.08908E-005	0.00000E+000	-3.75000E-001	-8.62605E-004	10	..........a	-327.74
	882	0.883	-3.83059E-001	-4.25618E-005	0.00000E+000	-3.82000E-001	-8.45939E-004	10	..........a	-327.74
	889	0.89	-3.90109E-001	-4.29795E-005	0.00000E+000	-3.89000E-001	-7.79272E-004	10	..........a	-327.74
	896	0.897	-3.97117E-001	-4.59037E-005	0.00000E+000	-3.96000E-001	-8.45939E-004	10	..........a	-327.74
	903	0.904	-4.04042E-001	-4.73241E-005	0.00000E+000	-4.03000E-001	-8.29272E-004	10	..........a	-327.74
	910	0.911	-4.11109E-001	-5.10838E-005	0.00000E+000	-4.10000E-001	-7.79272E-004	10	..........a	-327.74
	917	0.918	-4.18084E-001	-5.39245E-005	0.00000E+000	-4.17000E-001	-8.79272E-004	10	..........a	-327.74
	924	0.925	-4.25051E-001	-5.82691E-005	0.00000E+000	-4.24000E-001	-8.79272E-004	10	..........a	-327.74
	931	0.932	-4.32051E-001	-6.45353E-005	0.00000E+000	-4.31000E-001	-8.12605E-004	10	..........a	-327.74
	938	0.939	-4.39067E-001	-7.20547E-005	0.00000E+000	-4.38000E-001	-8.29272E-004	10	..........a	-327.74
	945	0.946	-4.46067E-001	-8.21642E-005	0.00000E+000	-4.45000E-001	-8.79272E-004	10	..........a	-327.74
	952	0.953	-4.53084E-001	-9.53650E-005	0.00000E+000	-4.52000E-001	-8.12605E-004	10	..........a	-327.74
	959	0.96	-4.60067E-001	-1.09485E-004	0.00000E+000	-4.59000E-001	-8.12605E-004	10	..........a	-327.74
	966	0.967	-4.67076E-001	-1.31626E-004	0.00000E+000	-4.66000E-001	-8.62605E-004	10	..........a	-327.74
	973	0.974	-4.74042E-001	-1.56356E-004	0.00000E+000	-4.73000E-001	-8.12605E-004	10	..........a	-327.74
	980	0.981	-4.81042E-001	-1.88105E-004	0.00000E+000	-4.80000E-001	-8.12605E-004	10	..........a	-327.74
	987	0.988	-4.88034E-001	-2.26872E-004	0.00000E+000	-4.87000E-001	-7.45939E-004	10	..........a	-327.74
	994	0.995	-4.95017E-001	-2.72490E-004	0.00000E+000	-4.94000E-001	-8.12605E-004	10	..........a	-327.74
	1001	1.002	-5.02051E-001	-3.25043E-004	0.00000E+000	-5.01000E-001	-8.29272E-004	10	..........a	-327.74
	1008	1.009	-5.09076E-001	-3.88039E-004	0.00000E+000	-5.08000E-001	-8.79272E-004	10	..........a	-327.74
	1015	1.016	-5.16001E-001	-4.55463E-004	0.00000E+000	-5.15000E-001	-8.62605E-004	10	..........a	-327.74
	1022	1.023	-5.23034E-001	-5.27984E-004	0.00000E+000	-5.22000E-001	-7.79272E-004	10	..........a	-327.74
	1029	1.03	-5.30026E-001	-6.01842E-004	0.00000E+000	-5.29000E-001	-7.95939E-004	10	..........a	-327.74
	1036	1.037	-5.37026E-001	-6.74112E-004	0.00000E+000	-5.36000E-001	-8.29272E-004	10	..........a	-327.74
	1043	1.044	-5.44001E-001	-7.38195E-004	0.00000E+000	-5.43000E-001	-8.12605E-004	10	..........a	-327.74
	1050	1.051	-5.51034E-001	-7.93588E-004	0.00000E+000	-5.50000E-001	-8.12605E-004	10	..........a	-327.74
	1057	1.058	-5.58009E-001	-8.34110E-004	0.00000E+000	-5.57000E-001	-8.45939E-004	10	..........a	-327.74
	1064	1.065	-5.64942E-001	-8.62350E-004	0.00000E+000	-5.64000E-001	-7.95939E-004	10	..........a	-327.74
	1071	1.072	-5.72034E-001	-8.73629E-004	0.00000E+000	-5.71000E-001	-8.45939E-004	10	..........a	-327.74
	1078	1.079	-5.78976E-001	-8.64188E-004	0.00000E+000	-5.78000E-001	-8.29272E-004	10	..........a	-327.74
	1085	1.086	-5.86017E-001	-8.37702E-004	0.00000E+000	-5.85000E-001	-8.29272E-004	10	..........a	-327.74
	1092	1.093	-5.93051E-001	-8.01358E-004	0.00000E+000	-5.92000E-001	-7.95939E-004	10	..........a	-327.74
	1099	1.1	-5.99976E-001	-7.58247E-004	0.00000E+000	-5.99000E-001	-7.79272E-004	10	..........a	-327.74
	1106	1.107	-6.06959E-001	-7.16723E-004	0.00000E+000	-6.06000E-001	-7.62605E-004	10	..........a	-327.74
	1113	1.114	-6.13992E-001	-6.80880E-004	0.00000E+000	-6.13000E-001	-8.62605E-004	10	..........a	-327.74
	1120	1.121	-6.20992E-001	-6.46708E-004	0.00000E+000	-6.20000E-001	-8.95939E-004	10	..........a	-327.74
	1127	1.128	-6.27992E-001	-6.16630E-004	0.00000E+000	-6.27000E-001	-8.12605E-004	10	..........a	-327.74
	1134	1.135	-6.34942E-001	-5.91482E-004	0.00000E+000	-6.34000E-001	-8.45939E-004	10	..........a	-327.74
	1141	1.142	-6.41976E-001	-5.70093E-004	0.00000E+000	-6.41000E-001	-7.79272E-004	10	..........a	-327.74
	1148	1.149	-6.48926E-001	-5.50041E-004	0.00000E+000	-6.48000E-001	-7.95939E-004	10	..........a	-327.74
	1155	1.156	-6.55951E-001	-5.33331E-004	0.00000E+000	-6.55000E-001	-8.45939E-004	10	..........a	-327.74
	1162	1.163	-6.62959E-001	-5.16455E-004	0.00000E+000	-6.62000E-001	-8.12605E-004	10	..........a	-327.74
	1169	1.17	-6.69951E-001	-5.01165E-004	0.00000E+000	-6.69000E-001	-7.95939E-004	10	..........a	-327.74
	1176	1.177	-6.77009E-001	-4.88967E-004	0.00000E+000	-6.76000E-001	-8.62605E-004	10	..........a	-327.74
	1183	1.184	-6.83934E-001	-4.77771E-004	0.00000E+000	-6.83000E-001	-8.79272E-004	10	..........a	-327.74
	1190	1.191	-6.90926E-001	-4.65740E-004	0.00000E+000	-6.90000E-001	-8.12605E-004	10	..........a	-327.74
	1197	1.198	-6.97917E-001	-4.54210E-004	0.00000E+000	-6.97000E-001	-8.29272E-004	10	..........a	-327.74
	1204	1.205	-7.04967E-001	-4.43432E-004	0.00000E+000	-7.04000E-001	-8.79272E-004	10	..........a	-327.74
	1211	1.212	-7.11951E-001	-4.34158E-004	0.00000E+000	-7.11000E-001	-8.29272E-004	10	..........a	-327.74
	1218	1.219	-7.18892E-001	-4.26388E-004	0.00000E+000	-7.18000E-001	-8.29272E-004	10	..........a	-327.74
	1225	1.226	-7.25951E-001	-4.17198E-004	0.00000E+000	-7.25000E-001	-8.12605E-004	10	..........a	-327.74
	1232	1.233	-7.32959E-001	-4.10180E-004	0.00000E+000	-7.32000E-001	-7.95939E-004	10	..........a	-327.74
	1239	1.24	-7.39951E-001	-4.02577E-004	0.00000E+000	-7.39000E-001	-8.12605E-004	10	..........a	-327.74
	1246	1.247	-7.46934E-001	-3.94556E-004	0.00000E+000	-7.46000E-001	-8.29272E-004	10	..........a	-327.74
	1253	1.254	-7.53909E-001	-3.86953E-004	0.00000E+000	-7.53000E-001	-8.29272E-004	10	..........a	-327.74
	1260	1.261	-7.60926E-001	-3.80185E-004	0.00000E+000	-7.60000E-001	-7.95939E-004	10	..........a	-327.74
	1267	1.268	-7.67951E-001	-3.75256E-004	0.00000E+000	-7.67000E-001	-8.29272E-004	10	..........a	-327.74
	1274	1.275	-7.74901E-001	-3.68405E-004	0.00000E+000	-7.74000E-001	-8.29272E-004	10	..........a	-327.74
	1281	1.282	-7.81917E-001	-3.64645E-004	0.00000E+000	-7.81000E-001	-8.29272E-004	10	..........a	-327.74
	1288	1.289	-7.88934E-001	-3.58295E-004	0.00000E+000	-7.88000E-001	-8.45939E-004	10	..........a	-327.74
	1295	1.296	-7.95867E-001	-3.52280E-004	0.00000E+000	-7.95000E-001	-8.29272E-004	10	..........a	-327.74
	1302	1.303	-8.02942E-001	-3.48102E-004	0.00000E+000	-8.02000E-001	-8.29272E-004	10	..........a	-327.74
	1309	1.31	-8.09951E-001	-3.43925E-004	0.00000E+000	-8.09000E-001	-8.12605E-004	10	..........a	-327.74
	1316	1.317	-8.16892E-001	-3.38327E-004	0.00000E+000	-8.16000E-001	-8.12605E-004	10	..........a	-327.74
	1323	1.324	-8.23901E-001	-3.34484E-004	0.00000E+000	-8.23000E-001	-8.45939E-004	10	..........a	-327.74
	1330	1.331	-8.30909E-001	-3.32061E-004	0.00000E+000	-8.30000E-001	-8.12605E-004	10	..........a	-327.74
	1337	1.338	-8.37926E-001	-3.26212E-004	0.00000E+000	-8.37000E-001	-8.45939E-004	10	..........a	-327.74
	1344	1.345	-8.44842E-001	-3.22536E-004	0.00000E+000	-8.44000E-001	-8.45939E-004	10	..........a	-327.74
	1351	1.352	-8.51817E-001	-3.20113E-004	0.00000E+000	-8.51000E-001	-8.29272E-004	10	..........a	-327.74
	1358	1.359	-8.58834E-001	-3.16019E-004	0.00000E+000	-8.58000E-001	-8.95939E-004	10	..........a	-327.74
	1365	1.366	-8.65876E-001	-3.12844E-004	0.00000E+000	-8.65000E-001	-8.45939E-004	10	..........a	-327.74
	1372	1.373	-8.72826E-001	-3.09753E-004	0.00000E+000	-8.72000E-001	-8.12605E-004	10	..........a	-327.74
	1379	1.38	-8.79892E-001	-3.05158E-004	0.00000E+000	-8.79000E-001	-8.79272E-004	10	..........a	-327.74
	1386	1.387	-8.86842E-001	-3.03403E-004	0.00000E+000	-8.86000E-001	-7.95939E-004	10	..........a	-327.74
	1393	1.394	-8.93884E-001	-3.00312E-004	0.00000E+000	-8.93000E-001	-8.62605E-004	10	..........a	-327.74
	1400	1.401	-9.00834E-001	-2.97471E-004	0.00000E+000	-9.00000E-001	-8.12605E-004	10	..........a	-327.74
	1407	1.408	-9.07801E-001	-2.95048E-004	0.00000E+000	-9.07000E-001	-7.95939E-004	10	..........a	-327.74
	1414	1.415	-9.14792E-001	-2.92542E-004	0.00000E+000	-9.14000E-001	-7.95939E-004	10	..........a	-327.74
	1421	1.422	-9.21842E-001	-2.89534E-004	0.00000E+000	-9.21000E-001	-8.29272E-004	10	..........a	-327.74
	1428	1.429	-9.28867E-001	-2.86192E-004	0.00000E+000	-9.28000E-001	-8.45939E-004	10	..........a	-327.74
	1435	1.436	-9.35817E-001	-2.85357E-004	0.00000E+000	-9.35000E-001	-8.29272E-004	10	..........a	-327.74
	1442	1.443	-9.42792E-001	-2.81931E-004	0.00000E+000	-9.42000E-001	-7.62605E-004	10	..........a	-327.74
	1449	1.45	-9.49851E-001	-2.81096E-004	0.00000E+000	-9.49000E-001	-8.62605E-004	10	..........a	-327.74
	1456	1.457	-9.56859E-001	-2.77754E-004	0.00000E+000	-9.56000E-001	-7.45939E-004	10	..........a	-327.74
	1463	1.464	-9.63826E-001	-2.76083E-004	0.00000E+000	-9.63000E-001	-8.62605E-004	10	..........a	-327.74
	1470	1.471	-9.70784E-001	-2.73994E-004	0.00000E+000	-9.70000E-001	-8.45939E-004	10	..........a	-327.74
	1477	1.478	-9.77842E-001	-2.73158E-004	0.00000E+000	-9.77000E-001	-8.12605E-004	10	..........a	-327.74
	1484	1.485	-9.84742E-001	-2.69733E-004	0.00000E+000	-9.84000E-001	-8.79272E-004	10	..........a	-327.74
	1491	1.492	-9.91784E-001	-2.68563E-004	0.00000E+000	-9.91000E-001	-8.45939E-004	10	..........a	-327.74
	1498	1.499	-9.98792E-001	-2.66140E-004	0.00000E+000	-9.98000E-001	-8.29272E-004	10	..........a	-327.74
	1505	1.506	-9.95767E-001	-2.51268E-004	0.00000E+000	-9.95000E-001	-8.62605E-004	10	..........a	-327.74
	1512	1.513	-9.88809E-001	-2.44334E-004	0.00000E+000	-9.88000E-001	-8.45939E-004	10	..........a	-327.74
	1519	1.52	-9.81834E-001	-2.39822E-004	0.00000E+000	-9.81000E-001	-8.45939E-004	10	..........a	-327.74
	1526	1.527	-9.74784E-001	-2.33472E-004	0.00000E+000	-9.74000E-001	-8.12605E-004	10	..........a	-327.74
	1533	1.534	-9.67892E-001	-2.30130E-004	0.00000E+000	-9.67000E-001	-7.79272E-004	10	..........a	-327.74
	1540	1.541	-9.60817E-001	-2.26872E-004	0.00000E+000	-9.60000E-001	-8.45939E-004	10	..........a	-327.74
	1547	1.548	-9.53851E-001	-2.24115E-004	0.00000E+000	-9.53000E-001	-8.95939E-004	10	..........a	-327.74
	1554	1.555	-9.46851E-001	-2.21608E-004	0.00000E+000	-9.46000E-001	-8.29272E-004	10	..........a	-327.74
	1561	1.562	-9.39759E-001	-2.19269E-004	0.00000E+000	-9.39000E-001	-8.12605E-004	10	..........a	-327.74
	1568	1.569	-9.32884E-001	-2.16930E-004	0.00000E+000	-9.32000E-001	-8.45939E-004	10	..........a	-327.74
	1575	1.576	-9.25834E-001	-2.13671E-004	0.00000E+000	-9.25000E-001	-8.79272E-004	10	..........a	-327.74
	1582	1.583	-9.18834E-001	-2.11415E-004	0.00000E+000	-9.18000E-001	-8.62605E-004	10	..........a	-327.74
	1589	1.59	-9.11801E-001	-2.10663E-004	0.00000E+000	-9.11000E-001	-8.45939E-004	10	..........a	-327.74
	1596	1.597	-9.04842E-001	-2.08742E-004	0.00000E+000	-9.04000E-001	-8.45939E-004	10	..........a	-327.74
	1603	1.604	-8.97842E-001	-2.06319E-004	0.00000E+000	-8.97000E-001	-8.29272E-004	10	..........a	-327.74
	1610	1.611	-8.90784E-001	-2.04397E-004	0.00000E+000	-8.90000E-001	-7.95939E-004	10	..........a	-327.74
	1617	1.618	-8.83784E-001	-2.03979E-004	0.00000E+000	-8.83000E-001	-8.12605E-004	10	..........a	-327.74
	1624	1.625	-8.76884E-001	-2.03060E-004	0.00000E+000	-8.76000E-001	-7.95939E-004	10	..........a	-327.74
	1631	1.632	-8.69901E-001	-2.00972E-004	0.00000E+000	-8.69000E-001	-8.45939E-004	10	..........a	-327.74
	1638	1.639	-8.62801E-001	-1.99301E-004	0.00000E+000	-8.62000E-001	-7.79272E-004	10	..........a	-327.74
	1645	1.646	-8.55851E-001	-1.96961E-004	0.00000E+000	-8.55000E-001	-7.95939E-004	10	..........a	-327.74
	1652	1.653	-8.48859E-001	-1.96627E-004	0.00000E+000	-8.48000E-001	-8.62605E-004	10	..........a	-327.74
	1659	1.66	-8.41876E-001	-1.94622E-004	0.00000E+000	-8.41000E-001	-7.95939E-004	10	..........a	-327.74
	1666	1.667	-8.34817E-001	-1.94538E-004	0.00000E+000	-8.34000E-001	-7.95939E-004	10	..........a	-327.74
	1673	1.674	-8.27801E-001	-1.92282E-004	0.00000E+000	-8.27000E-001	-8.62605E-004	10	..........a	-327.74
	1680	1.681	-8.20859E-001	-1.90361E-004	0.00000E+000	-8.20000E-001	-8.95939E-004	10	..........a	-327.74
	1687	1.688	-8.13951E-001	-1.88189E-004	0.00000E+000	-8.13000E-001	-8.45939E-004	10	..........a	-327.74
	1694	1.695	-8.06884E-001	-1.87102E-004	0.00000E+000	-8.06000E-001	-8.12605E-004	10	..........a	-327.74
	1701	1.702	-7.99967E-001	-1.86100E-004	0.00000E+000	-7.99000E-001	-8.12605E-004	10	..........a	-327.74
	1708	1.709	-7.92967E-001	-1.85181E-004	0.00000E+000	-7.92000E-001	-7.95939E-004	10	..........a	-327.74
	1715	1.716	-7.85951E-001	-1.84178E-004	0.00000E+000	-7.85000E-001	-8.62605E-004	10	..........a	-327.74
	1722	1.723	-7.78992E-001	-1.82089E-004	0.00000E+000	-7.78000E-001	-7.95939E-004	10	..........a	-327.74
	1729	1.73	-7.71867E-001	-1.81672E-004	0.00000E+000	-7.71000E-001	-8.29272E-004	10	..........a	-327.74
	1736	1.737	-7.64976E-001	-1.80084E-004	0.00000E+000	-7.64000E-001	-7.95939E-004	10	..........a	-327.74
	1743	1.744	-7.57951E-001	-1.77745E-004	0.00000E+000	-7.57000E-001	-8.62605E-004	10	..........a	-327.74
	1750	1.751	-7.50934E-001	-1.76325E-004	0.00000E+000	-7.50000E-001	-8.12605E-004	10	..........a	-327.74
	1757	1.758	-7.43934E-001	-1.75489E-004	0.00000E+000	-7.43000E-001	-7.95939E-004	10	..........a	-327.74
	1764	1.765	-7.36984E-001	-1.73902E-004	0.00000E+000	-7.36000E-001	-8.45939E-004	10	..........a	-327.74
	1771	1.772	-7.29976E-001	-1.73317E-004	0.00000E+000	-7.29000E-001	-8.62605E-004	10	..........a	-327.74
	1778	1.779	-7.22959E-001	-1.71729E-004	0.00000E+000	-7.22000E-001	-8.29272E-004	10	..........a	-327.74
	1785	1.786	-7.15976E-001	-1.69641E-004	0.00000E+000	-7.15000E-001	-8.45939E-004	10	..........a	-327.74
	1792	1.793	-7.08959E-001	-1.68721E-004	0.00000E+000	-7.08000E-001	-8.62605E-004	10	..........a	-327.74
	1799	1.8	-7.01992E-001	-1.67385E-004	0.00000E+000	-7.01000E-001	-8.12605E-004	10	..........a	-327.74
	1806	1.807	-6.94967E-001	-1.65964E-004	0.00000E+000	-6.94000E-001	-8.12605E-004	10	..........a	-327.74
	1813	1.814	-6.87951E-001	-1.65212E-004	0.00000E+000	-6.87000E-001	-7.79272E-004	10	..........a	-327.74
	1820	1.821	-6.80942E-001	-1.63541E-004	0.00000E+000	-6.80000E-001	-8.29272E-004	10	..........a	-327.74
	1827	1.828	-6.73909E-001	-1.60032E-004	0.00000E+000	-6.73000E-001	-8.29272E-004	10	..........a	-327.74
	1834	1.835	-6.66926E-001	-1.57025E-004	0.00000E+000	-6.66000E-001	-8.12605E-004	10	..........a	-327.74
	1841	1.842	-6.59942E-001	-1.55855E-004	0.00000E+000	-6.59000E-001	-8.29272E-004	10	..........a	-327.74
	1848	1.849	-6.52942E-001	-1.51093E-004	0.00000E+000	-6.52000E-001	-8.95939E-004	10	..........a	-327.74
	1855	1.856	-6.45959E-001	-1.49589E-004	0.00000E+000	-6.45000E-001	-7.95939E-004	10	..........a	-327.74
	1862	1.863	-6.38959E-001	-1.46915E-004	0.00000E+000	-6.38000E-001	-8.62605E-004	10	..........a	-327.74
	1869	1.87	-6.31951E-001	-1.41986E-004	0.00000E+000	-6.31000E-001	-8.29272E-004	10	..........a	-327.74
	1876	1.877	-6.25051E-001	-1.37307E-004	0.00000E+000	-6.24000E-001	-8.29272E-004	10	..........a	-327.74
	1883	1.884	-6.18001E-001	-1.31291E-004	0.00000E+000	-6.17000E-001	-8.29272E-004	10	..........a	-327.74
	1890	1.891	-6.10992E-001	-1.22853E-004	0.00000E+000	-6.10000E-001	-7.95939E-004	10	..........a	-327.74
	1897	1.898	-6.04042E-001	-1.14581E-004	0.00000E+000	-6.03000E-001	-8.29272E-004	10	..........a	-327.74
	1904	1.905	-5.97017E-001	-1.04472E-004	0.00000E+000	-5.96000E-001	-8.29272E-004	10	..........a	-327.74
	1911	1.912	-5.90051E-001	-9.11876E-005	0.00000E+000	-5.89000E-001	-8.79272E-004	10	..........a	-327.74
	1918	1.919	-5.83026E-001	-7.46448E-005	0.00000E+000	-5.82000E-001	-8.79272E-004	10	..........a	-327.74
	1925	1.926	-5.76026E-001	-5.29219E-005	0.00000E+000	-5.75000E-001	-7.95939E-004	10	..........a	-327.74
	1932	1.933	-5.69084E-001	-2.61025E-005	0.00000E+000	-5.68000E-001	-8.45939E-004	10	..........a	-327.74
	1939	1.94	-5.62026E-001	9.23894E-006	0.00000E+000	-5.61000E-001	-8.12605E-004	10	..........a	-327.74
	1946	1.947	-5.55001E-001	5.26847E-005	0.00000E+000	-5.54000E-001	-8.29272E-004	10	..........a	-327.74
	1953	1.954	-5.48126E-001	1.08245E-004	0.00000E+000	-5.47000E-001	-8.95939E-004	10	..........a	-327.74
	1960	1.961	-5.41042E-001	1.75001E-004	0.00000E+000	-5.40000E-001	-8.62605E-004	10	..........a	-327.74
	1967	1.968	-5.34026E-001	2.52368E-004	0.00000E+000	-5.33000E-001	-8.62605E-004	10	..........a	-327.74
	1974	1.975	-5.26992E-001	3.39844E-004	0.00000E+000	-5.26000E-001	-8.45939E-004	10	..........a	-327.74
	1981	1.982	-5.20101E-001	4.26569E-004	0.00000E+000	-5.19000E-001	-8.95939E-004	10	..........a	-327.74
	1988	1.989	-5.13084E-001	5.06108E-004	0.00000E+000	-5.12000E-001	-8.12605E-004	10	..........a	-327.74
	1995	1.996	-5.06051E-001	5.70023E-004	0.00000E+000	-5.05000E-001	-9.12605E-004	10	..........a	-327.74
	2002	2.003	-4.99034E-001	6.14304E-004	0.00000E+000	-4.98000E-001	-8.45939E-004	10	..........a	-327.74
	2009	2.01	-4.92084E-001	6.31432E-004	0.00000E+000	-4.91000E-001	-8.62605E-004	10	..........a	-327.74
	2016	2.017	-4.85076E-001	6.30179E-004	0.00000E+000	-4.84000E-001	-8.62605E-004	10	..........a	-327.74
	2023	2.024	-4.78034E-001	6.14555E-004	0.00000E+000	-4.77000E-001	-8.62605E-004	10	..........a	-327.74
	2030	2.031	-4.71034E-001	5.87819E-004	0.00000E+000	-4.70000E-001	-8.95939E-004	10	..........a	-327.74
	2037	2.038	-4.64109E-001	5.56989E-004	0.00000E+000	-4.63000E-001	-8.79272E-004	10	..........a	-327.74
	2044	2.045	-4.57101E-001	5.24405E-004	0.00000E+000	-4.56000E-001	-8.62605E-004	10	..........a	-327.74
	2051	2.052	-4.50026E-001	4.91152E-004	0.00000E+000	-4.49000E-001	-8.62605E-004	10	..........a	-327.74
	2058	2.059	-4.43176E-001	4.60239E-004	0.00000E+000	-4.42000E-001	-9.29272E-004	10	..........a	-327.74
	2065	2.066	-4.35992E-001	4.31498E-004	0.00000E+000	-4.35000E-001	-8.12605E-004	10	..........a	-327.74
	2072	2.073	-4.29084E-001	4.04261E-004	0.00000E+000	-4.28000E-001	-8.29272E-004	10	..........a	-327.74
	2079	2.08	-4.22051E-001	3.80282E-004	0.00000E+000	-4.21000E-001	-8.79272E-004	10	..........a	-327.74
	2086	2.087	-4.15076E-001	3.60397E-004	0.00000E+000	-4.14000E-001	-8.79272E-004	10	..........a	-327.74
	2093	2.094	-4.08117E-001	3.39928E-004	0.00000E+000	-4.07000E-001	-8.29272E-004	10	..........a	-327.74
	2100	2.101	-4.01059E-001	3.23970E-004	0.00000E+000	-4.00000E-001	-8.79272E-004	10	..........a	-327.74
	2107	2.108	-3.94109E-001	3.08931E-004	0.00000E+000	-3.93000E-001	-8.29272E-004	10	..........a	-327.74
	2114	2.115	-3.87142E-001	2.95062E-004	0.00000E+000	-3.86000E-001	-9.12605E-004	10	..........a	-327.74
	2121	2.122	-3.80117E-001	2.81777E-004	0.00000E+000	-3.79000E-001	-8.45939E-004	10	..........a	-327.74
	2128	2.129	-3.73101E-001	2.71167E-004	0.00000E+000	-3.72000E-001	-8.45939E-004	10	..........a	-327.74
	2135	2.136	-3.66067E-001	2.60472E-004	0.00000E+000	-3.65000E-001	-8.62605E-004	10	..........a	-327.74
	2142	2.143	-3.59067E-001	2.50697E-004	0.00000E+000	-3.58000E-001	-7.79272E-004	10	..........a	-327.74
	2149	2.15	-3.52084E-001	2.42593E-004	0.00000E+000	-3.51000E-001	-9.12605E-004	10	..........a	-327.74
	2156	2.157	-3.45142E-001	2.33736E-004	0.00000E+000	-3.44000E-001	-8.62605E-004	10	..........a	-327.74
	2163	2.164	-3.38076E-001	2.26885E-004	0.00000E+000	-3.37000E-001	-8.12605E-004	10	..........a	-327.74
	2170	2.171	-3.31034E-001	2.20536E-004	0.00000E+000	-3.30000E-001	-8.45939E-004	10	..........a	-327.74
	2177	2.178	-3.24076E-001	2.13100E-004	0.00000E+000	-3.23000E-001	-8.45939E-004	10	..........a	-327.74
	2184	2.185	-3.17151E-001	2.07084E-004	0.00000E+000	-3.16000E-001	-7.79272E-004	10	..........a	-327.74
	2191	2.192	-3.10101E-001	2.01486E-004	0.00000E+000	-3.09000E-001	-8.79272E-004	10	..........a	-327.74
	2198	2.199	-3.03134E-001	1.96640E-004	0.00000E+000	-3.02000E-001	-8.95939E-004	10	..........a	-327.74
	2205	2.206	-2.96142E-001	1.89706E-004	0.00000E+000	-2.95000E-001	-8.12605E-004	10	..........a	-327.74
	2212	2.213	-2.89134E-001	1.86615E-004	0.00000E+000	-2.88000E-001	-8.62605E-004	10	..........a	-327.74
	2219	2.22	-2.82092E-001	1.81852E-004	0.00000E+000	-2.81000E-001	-8.62605E-004	10	..........a	-327.74
	2226	2.227	-2.75142E-001	1.77341E-004	0.00000E+000	-2.74000E-001	-8.45939E-004	10	..........a	-327.74
	2233	2.234	-2.68142E-001	1.74249E-004	0.00000E+000	-2.67000E-001	-8.29272E-004	10	..........a	-327.74
	2240	2.241	-2.61159E-001	1.70489E-004	0.00000E+000	-2.60000E-001	-8.45939E-004	10	..........a	-327.74
	2247	2.248	-2.54142E-001	1.66646E-004	0.00000E+000	-2.53000E-001	-7.95939E-004	10	..........a	-327.74
	2254	2.255	-2.47142E-001	1.63471E-004	0.00000E+000	-2.46000E-001	-8.45939E-004	10	..........a	-327.74
	2261	2.262	-2.40209E-001	1.60547E-004	0.00000E+000	-2.39000E-001	-8.45939E-004	10	..........a	-327.74
	2268	2.269	-2.33126E-001	1.56035E-004	0.00000E+000	-2.32000E-001	-9.12605E-004	10	..........a	-327.74
	2275	2.276	-2.26117E-001	1.53278E-004	0.00000E+000	-2.25000E-001	-8.62605E-004	10	..........a	-327.74
	2282	2.283	-2.19109E-001	1.50855E-004	0.00000E+000	-2.18000E-001	-8.29272E-004	10	..........a	-327.74
	2289	2.29	-2.12142E-001	1.48850E-004	0.00000E+000	-2.11000E-001	-8.62605E-004	10	..........a	-327.74
	2296	2.297	-2.05176E-001	1.46594E-004	0.00000E+000	-2.04000E-001	-8.95939E-004	10	..........a	-327.74
	2303	2.304	-1.98176E-001	1.43169E-004	0.00000E+000	-1.97000E-001	-8.62605E-004	10	..........a	-327.74
	2310	2.311	-1.91059E-001	1.41164E-004	0.00000E+000	-1.90000E-001	-8.95939E-004	10	..........a	-327.74
	2317	2.318	-1.84159E-001	1.38323E-004	0.00000E+000	-1.83000E-001	-9.29272E-004	10	..........a	-327.74
	2324	2.325	-1.77176E-001	1.35649E-004	0.00000E+000	-1.76000E-001	-8.29272E-004	10	..........a	-327.74
	2331	2.332	-1.70117E-001	1.34229E-004	0.00000E+000	-1.69000E-001	-8.29272E-004	10	..........a	-327.74
	2338	2.339	-1.63217E-001	1.31388E-004	0.00000E+000	-1.62000E-001	-8.79272E-004	10	..........a	-327.74
	2345	2.346	-1.56126E-001	1.30219E-004	0.00000E+000	-1.55000E-001	-9.12605E-004	10	..........a	-327.74
	2352	2.353	-1.49209E-001	1.26960E-004	0.00000E+000	-1.48000E-001	-7.95939E-004	10	..........a	-327.74
	2359	2.36	-1.42167E-001	1.24370E-004	0.00000E+000	-1.41000E-001	-9.45939E-004	10	..........a	-327.74
	2366	2.367	-1.35176E-001	1.22616E-004	0.00000E+000	-1.34000E-001	-8.95939E-004	10	..........a	-327.74
	2373	2.374	-1.28226E-001	1.20276E-004	0.00000E+000	-1.27000E-001	-8.62605E-004	10	..........a	-327.74
	2380	2.381	-1.21151E-001	1.18355E-004	0.00000E+000	-1.20000E-001	-8.95939E-004	10	..........a	-327.74
	2387	2.388	-1.14167E-001	1.17352E-004	0.00000E+000	-1.13000E-001	-8.29272E-004	10	..........a	-327.74
	2394	2.395	-1.07226E-001	1.14846E-004	0.00000E+000	-1.06000E-001	-7.95939E-004	10	..........a	-327.74
	2401	2.402	-1.00251E-001	1.13175E-004	0.00000E+000	-9.90000E-002	-8.12605E-004	10	..........a	-327.74
	2408	2.409	-9.32007E-002	1.11921E-004	0.00000E+000	-9.20000E-002	-8.45939E-004	10	..........a	-327.74
	2415	2.416	-8.62007E-002	1.09665E-004	0.00000E+000	-8.50000E-002	-8.79272E-004	10	..........a	-327.74
	2422	2.423	-7.91507E-002	1.09331E-004	0.00000E+000	-7.80000E-002	-8.79272E-004	10	..........a	-327.74
	2429	2.43	-7.22257E-002	1.07493E-004	0.00000E+000	-7.10000E-002	-8.79272E-004	10	..........a	-327.74
	2436	2.437	-6.51840E-002	1.06407E-004	0.00000E+000	-6.40000E-002	-9.12605E-004	10	..........a	-327.74
	2443	2.444	-5.81340E-002	1.05070E-004	0.00000E+000	-5.70000E-002	-8.45939E-004	10	..........a	-327.74
	2450	2.451	-5.12340E-002	1.02814E-004	0.00000E+000	-5.00000E-002	-8.29272E-004	10	..........a	-327.74
	2457	2.458	-4.41590E-002	1.01645E-004	0.00000E+000	-4.30000E-002	-8.95939E-004	10	..........a	-327.74
	2464	2.465	-3.72757E-002	1.00642E-004	0.00000E+000	-3.60000E-002	-8.12605E-004	10	..........a	-327.74
	2471	2.472	-3.02257E-002	9.98066E-005	0.00000E+000	-2.90000E-002	-8.62605E-004	10	..........a	-327.74
	2478	2.479	-2.32257E-002	9.87204E-005	0.00000E+000	-2.20000E-002	-8.45939E-004	10	..........a	-327.74
	2485	2.486	-1.62673E-002	9.67988E-005	0.00000E+000	-1.50000E-002	-7.95939E-004	10	..........a	-327.74
	2492	2.493	-9.16733E-003	9.62140E-005	0.00000E+000	-8.00000E-003	-8.29272E-004	10	..........a	-327.74
	2499	2.5	-2.20066E-003	9.52114E-005	0.00000E+000	-1.00000E-003	-8.62605E-004	10	..........a	-327.74
	2506	2.507	4.82434E-003	9.42088E-005	0.00000E+000	5.99998E-003	-8.29272E-004	10	..........a	-327.74
	2513	2.514	1.17660E-002	9.30391E-005	0.00000E+000	1.30000E-002	-8.29272E-004	10	..........a	-327.74
	2520	2.521	1.87743E-002	9.27884E-005	0.00000E+000	2.00000E-002	-9.12605E-004	10	..........a	-327.74
	2527	2.528	2.57577E-002	9.11175E-005	0.00000E+000	2.70000E-002	-8.12605E-004	10	..........a	-327.74
	2534	2.535	3.27577E-002	9.13681E-005	0.00000E+000	3.40000E-002	-8.62605E-004	10	..........a	-327.74
	2541	2.542	3.97577E-002	8.96136E-005	0.00000E+000	4.10000E-002	-8.12605E-004	10	..........a	-327.74
	2548	2.549	4.67577E-002	8.87781E-005	0.00000E+000	4.80000E-002	-8.29272E-004	10	..........a	-327.74
	2555	2.556	5.37993E-002	8.68564E-005	0.00000E+000	5.50000E-002	-8.29272E-004	10	..........a	-327.74
	2562	2.563	6.07660E-002	8.63551E-005	0.00000E+000	6.20000E-002	-8.29272E-004	10	..........a	-327.74
	2569	2.57	6.76910E-002	8.60209E-005	0.00000E+000	6.90000E-002	-8.62605E-004	10	..........a	-327.74
	2576	2.577	7.47743E-002	8.59374E-005	0.00000E+000	7.60000E-002	-8.29272E-004	10	..........a	-327.74
	2583	2.584	8.17827E-002	8.40993E-005	0.00000E+000	8.30000E-002	-8.79272E-004	10	..........a	-327.74
	2590	2.591	8.87243E-002	8.25118E-005	0.00000E+000	9.00000E-002	-9.29272E-004	10	..........a	-327.74
	2597	2.598	9.57827E-002	8.25954E-005	0.00000E+000	9.70000E-002	-7.62605E-004	10	..........a	-327.74
	2604	2.605	1.02674E-001	8.03396E-005	0.00000E+000	1.04000E-001	-8.79272E-004	10	..........a	-327.74
	2611	2.612	1.09733E-001	8.04231E-005	0.00000E+000	1.11000E-001	-8.45939E-004	10	..........a	-327.74
	2618	2.619	1.16708E-001	7.94205E-005	0.00000E+000	1.18000E-001	-8.62605E-004	10	..........a	-327.74
	2625	2.626	1.23758E-001	7.85015E-005	0.00000E+000	1.25000E-001	-8.79272E-004	10	..........a	-327.74
	2632	2.633	1.30741E-001	7.63292E-005	0.00000E+000	1.32000E-001	-8.29272E-004	10	..........a	-327.74
	2639	2.64	1.37716E-001	7.56608E-005	0.00000E+000	1.39000E-001	-7.95939E-004	10	..........a	-327.74
	2646	2.647	1.44758E-001	7.52430E-005	0.00000E+000	1.46000E-001	-8.29272E-004	10	..........a	-327.74
	2653	2.654	1.51766E-001	7.42404E-005	0.00000E+000	1.53000E-001	-8.62605E-004	10	..........a	-327.74
	2660	2.661	1.58691E-001	7.48253E-005	0.00000E+000	1.60000E-001	-8.62605E-004	10	..........a	-327.74
	2667	2.668	1.65741E-001	7.27366E-005	0.00000E+000	1.67000E-001	-8.95939E-004	10	..........a	-327.74
	2674	2.675	1.72658E-001	7.14833E-005	0.00000E+000	1.74000E-001	-8.79272E-004	10	..........a	-327.74
	2681	2.682	1.79749E-001	7.09820E-005	0.00000E+000	1.81000E-001	-8.62605E-004	10	..........a	-327.74
	2688	2.689	1.86716E-001	6.97288E-005	0.00000E+000	1.88000E-001	-7.95939E-004	10	..........a	-327.74
	2695	2.696	1.93674E-001	6.87262E-005	0.00000E+000	1.95000E-001	-8.29272E-004	10	..........a	-327.74
	2702	2.703	2.00658E-001	6.80578E-005	0.00000E+000	2.02000E-001	-8.62605E-004	10	..........a	-327.74
	2709	2.71	2.07658E-001	6.77236E-005	0.00000E+000	2.09000E-001	-8.62605E-004	10	..........a	-327.74
	2716	2.717	2.14674E-001	6.67210E-005	0.00000E+000	2.16000E-001	-8.29272E-004	10	..........a	-327.74
	2723	2.724	2.21758E-001	6.51335E-005	0.00000E+000	2.23000E-001	-8.79272E-004	10	..........a	-327.74
	2730	2.731	2.28649E-001	6.43816E-005	0.00000E+000	2.30000E-001	-8.79272E-004	10	..........a	-327.74
	2737	2.738	2.35683E-001	6.37132E-005	0.00000E+000	2.37000E-001	-8.29272E-004	10	..........a	-327.74
	2744	2.745	2.42691E-001	6.37968E-005	0.00000E+000	2.44000E-001	-8.12605E-004	10	..........a	-327.74
	2751	2.752	2.49658E-001	6.32119E-005	0.00000E+000	2.51000E-001	-8.95939E-004	10	..........a	-327.74
	2758	2.759	2.56608E-001	6.20422E-005	0.00000E+000	2.58000E-001	-8.12605E-004	10	..........a	-327.74
	2765	2.766	2.63658E-001	6.08725E-005	0.00000E+000	2.65000E-001	-8.79272E-004	10	..........a	-327.74
	2772	2.773	2.70674E-001	6.07890E-005	0.00000E+000	2.72000E-001	-8.62605E-004	10	..........a	-327.74
	2779	2.78	2.77674E-001	6.05383E-005	0.00000E+000	2.79000E-001	-8.29272E-004	10	..........a	-327.74
	2786	2.787	2.84649E-001	6.00370E-005	0.00000E+000	2.86000E-001	-8.29272E-004	10	..........a	-327.74
	2793	2.794	2.91674E-001	5.92851E-005	0.00000E+000	2.93000E-001	-8.95939E-004	10	..........a	-327.74
	2800	2.801	2.98658E-001	5.86167E-005	0.00000E+000	3.00000E-001	-8.45939E-004	10	..........a	-327.74
	2807	2.808	3.05624E-001	5.92015E-005	0.00000E+000	3.07000E-001	-8.45939E-004	10	..........a	-327.74
	2814	2.815	3.12608E-001	5.75305E-005	0.00000E+000	3.14000E-001	-8.29272E-004	10	..........a	-327.74
	2821	2.822	3.19691E-001	5.71128E-005	0.00000E+000	3.21000E-001	-8.29272E-004	10	..........a	-327.74
	2828	2.829	3.26616E-001	5.70292E-005	0.00000E+000	3.28000E-001	-8.45939E-004	10	..........a	-327.74
	2835	2.836	3.33666E-001	5.79483E-005	0.00000E+000	3.35000E-001	-8.62605E-004	10	..........a	-327.74
	2842	2.843	3.40599E-001	5.59431E-005	0.00000E+000	3.42000E-001	-8.62605E-004	10	..........a	-327.74
	2849	2.85	3.47641E-001	5.55254E-005	0.00000E+000	3.49000E-001	-8.62605E-004	10	..........a	-327.74
	2856	2.857	3.54658E-001	5.61938E-005	0.00000E+000	3.56000E-001	-8.29272E-004	10	..........a	-327.74
	2863	2.864	3.61633E-001	5.47734E-005	0.00000E+000	3.63000E-001	-8.29272E-004	10	..........a	-327.74
	2870	2.871	3.68633E-001	5.55254E-005	0.00000E+000	3.70000E-001	-8.79272E-004	10	..........a	-327.74
	2877	2.878	3.75624E-001	5.50241E-005	0.00000E+000	3.77000E-001	-8.95939E-004	10	..........a	-327.74
	2884	2.885	3.82616E-001	5.38544E-005	0.00000E+000	3.84000E-001	-7.95939E-004	10	..........a	-327.74
	2891	2.892	3.89649E-001	5.51076E-005	0.00000E+000	3.91000E-001	-8.29272E-004	10	..........a	-327.74
	2898	2.899	3.96591E-001	5.44392E-005	0.00000E+000	3.98000E-001	-8.29272E-004	10	..........a	-327.74
	2905	2.906	4.03624E-001	5.41886E-005	0.00000E+000	4.05000E-001	-8.95939E-004	10	..........a	-327.74
	2912	2.913	4.10616E-001	5.25176E-005	0.00000E+000	4.12000E-001	-8.29272E-004	10	..........a	-327.74
	2919	2.92	4.17574E-001	5.19327E-005	0.00000E+000	4.19000E-001	-8.95939E-004	10	..........a	-327.74
	2926	2.927	4.24599E-001	5.11808E-005	0.00000E+000	4.26000E-001	-9.12605E-004	10	..........a	-327.74
	2933	2.934	4.31558E-001	5.19327E-005	0.00000E+000	4.33000E-001	-8.29272E-004	10	..........a	-327.74
	2940	2.941	4.38608E-001	5.19327E-005	0.00000E+000	4.40000E-001	-8.62605E-004	10	..........a	-327.74
	2947	2.948	4.45583E-001	5.08466E-005	0.00000E+000	4.47000E-001	-8.45939E-004	10	..........a	-327.74
	2954	2.955	4.52549E-001	5.14314E-005	0.00000E+000	4.54000E-001	-8.95939E-004	10	..........a	-327.74
	2961	2.962	4.59616E-001	5.04288E-005	0.00000E+000	4.61000E-001	-8.29272E-004	10	..........a	-327.74
	2968	2.969	4.66583E-001	5.11808E-005	0.00000E+000	4.68000E-001	-7.95939E-004	10	..........a	-327.74
	2975	2.976	4.73591E-001	4.92591E-005	0.00000E+000	4.75000E-001	-9.29272E-004	10	..........a	-327.74
	2982	2.983	4.80466E-001	5.03453E-005	0.00000E+000	4.82000E-001	-8.62605E-004	10	..........a	-327.74
	2989	2.99	4.87549E-001	4.95933E-005	0.00000E+000	4.89000E-001	-8.62605E-004	10	..........a	-327.74
	2996	2.997	4.94591E-001	4.78388E-005	0.00000E+000	4.96000E-001	-8.95939E-004	10	..........a	-327.74
	3000	3.001	4.98549E-001	4.86743E-005	0.00000E+000	5.00000E-001	-9.12605E-004	10	..........a	-327.74
CURVE2	TABLE
	Pt	T	Vf	Im	Vu	Sig	Ach	IERange	Over	Temp
	#	s	V vs. Ref.	A	V	V	V	#	bits	deg C
	3001	3.002	4.98624E-001	4.70033E-005	0.00000E+000	5.00000E-001	-8.29272E-004	10	..........a	-327.74