File: data/02-SI/Figures_S9_S11_RDE/18btmapaq-rde/1mkcl-18btmapaq-nitrogen-700mvpers.DTA
EXPLAIN
TAG	CV
TITLE	LABEL	Cyclic Voltammetry	Test &Identifier
DATE	LABEL	1/31/2023	Date
TIME	LABEL	15:21:55	Time
NOTES	NOTES	1	&Notes...

PSTAT	PSTAT	REF3000-21108	Potentiostat
VINIT	POTEN	5.00000E-001	F	Initial &E (V)
VLIMIT1	POTEN	-1.00000E+000	F	Scan Limit &1 (V)
VLIMIT2	POTEN	5.00000E-001	F	Scan Limit &2 (V)
VFINAL	POTEN	5.00000E-001	F	Final &E (V)
SCANRATE	QUANT	6.97673E+002	&Scan Rate (mV/s)
STEPSIZE	QUANT	1.00000E+000	St&ep Size (mV)
CYCLES	IQUANT	1	C&ycles (#)
IMODE	SELECTOR	1	I/E Range &Mode
IRANGE	QUANT	1.00000E+001	&Max Current (mA)
AREA	QUANT	1.00000E+000	Electrode &Area (cm^2)
ELECTRODETYPE	SELECTOR	0	Electrode Type
STRIPPING	TOGGLE	F	Used for Stripping
POLARITY	TOGGLE	F	Signal Polarity
CONDIT	TWOPARAM	F	1.50000E+001	0.00000E+000	Conditionin&g	Time(s)	E(V)
DELAY	TWOPARAM	F	5.00000E+000	0.00000E+000	Init. De&lay	Time(s)	Stab.(mV/s)
EQDELAY	QUANT	0.00000E+000	Equil. &Time (s)
IRCOMP	SELECTOR	0	IRCom&p
PFCOR	QUANT	5.00000E+001	PF Corr. (ohm)
SAMPLINGMODE	SELECTOR	1	Sampling &Mode
EOC	QUANT	0	Open Circuit (V)
PSTATMODEL	IQUANT	5	Pstat Model
PSTATSECTION	LABEL	REF3000-21108	Pstat Section
PSTATSERIALNO	LABEL	21108	Pstat Serial Number
CTRLMODE	IQUANT	1	Control Mode
ELECTROMETER	IQUANT	0	RE=0 or CS=1
IESTAB	IQUANT	2	I/E Stability
CASPEED	IQUANT	4	Control Amp Speed
CONVENTION	IQUANT	1	Current Convention
ICHRANGE	IQUANT	2	Ich Range
ICHRANGEMODE	TOGGLE	F	Ich Auto Range
ICHOFFSETENABLE	TOGGLE	F	Ich Offset Enable
ICHOFFSET	QUANT	0	Ich Offset (V)
ICHFILTER	IQUANT	1	Ich Filter
VCHRANGE	IQUANT	2	Vch Range
VCHRANGEMODE	TOGGLE	F	Vch Auto Range
VCHOFFSETENABLE	TOGGLE	F	Vch Offset Enable
VCHOFFSET	QUANT	0	Vch Offset (V)
VCHFILTER	IQUANT	1	Vch Filter
ACHRANGE	IQUANT	2	Ach Range
ACHOFFSETENABLE	TOGGLE	F	Ach Offset Enable
ACHOFFSET	QUANT	0	Ach Offset (V)
ACHFILTER	IQUANT	0	Ach Filter
IERANGELOWERLIMIT	IQUANT	2	I/E Range Lower Limit
IERANGEMODE	TOGGLE	F	I/E AutoRange
IERANGE	IQUANT	10	I/E Range
POSFEEDENABLE	TOGGLE	F	Positive Feedback IR Comp
POSFEEDRESISTANCE	QUANT	0	Positive Feedback Resistance (ohm)
ACHSELECT	IQUANT	0	Ach Select
SENSECABLEID	IQUANT	14	Sense Cable ID
PWRCABLEID	IQUANT	7	Power Cable ID
DCCALDATE	LABEL	11/9/2022	DC Calibration Date
ACCALDATE	LABEL	11/9/2022	AC Calibration Date
THERMOSELECT	IQUANT	1	Thermo Select
FRAMEWORKVERSION	LABEL	7.8.2	Framework Version
INSTRUMENTVERSION	LABEL	4.40	Instrument Version
COMPLIANCEVOLTAGE	IQUANT	0	Compliance Voltage
CURVE1	TABLE
	Pt	T	Vf	Im	Vu	Sig	Ach	IERange	Over	Temp
	#	s	V vs. Ref.	A	V	V	V	#	bits	deg C
	0	0.001433	4.98762E-001	2.01004E-005	0.00000E+000	5.00000E-001	-7.84828E-004	10	..........a	-327.74
	7	0.011467	4.91767E-001	1.45566E-005	0.00000E+000	4.93000E-001	-8.84828E-004	10	..........a	-327.74
	14	0.0215	4.84697E-001	1.11950E-005	0.00000E+000	4.85950E-001	-8.95939E-004	10	..........a	-327.74
	21	0.031533	4.77744E-001	9.54365E-006	0.00000E+000	4.78950E-001	-9.51494E-004	10	..........a	-327.74
	28	0.041567	4.70703E-001	7.59743E-006	0.00000E+000	4.71900E-001	-8.62605E-004	10	..........a	-327.74
	35	0.0516	4.63691E-001	6.35894E-006	0.00000E+000	4.64900E-001	-8.51494E-004	10	..........a	-327.74
	42	0.061633	4.56620E-001	6.06406E-006	0.00000E+000	4.57850E-001	-9.07050E-004	10	..........a	-327.74
	49	0.071667	4.49591E-001	4.35375E-006	0.00000E+000	4.50850E-001	-8.07050E-004	10	..........a	-327.74
	56	0.0817	4.42644E-001	3.99989E-006	0.00000E+000	4.43800E-001	-8.62605E-004	10	..........a	-327.74
	63	0.091733	4.35597E-001	3.17423E-006	0.00000E+000	4.36800E-001	-8.73717E-004	10	..........a	-327.74
	70	0.101767	4.28544E-001	1.58187E-006	0.00000E+000	4.29750E-001	-8.40383E-004	10	..........a	-327.74
	77	0.1118	4.21562E-001	1.99470E-006	0.00000E+000	4.22750E-001	-8.51494E-004	10	..........a	-327.74
	84	0.121833	4.14473E-001	1.87675E-006	0.00000E+000	4.15700E-001	-8.62605E-004	10	..........a	-327.74
	91	0.131867	4.07509E-001	7.56205E-007	0.00000E+000	4.08700E-001	-8.29272E-004	10	..........a	-327.74
	98	0.1419	4.00491E-001	3.43373E-007	0.00000E+000	4.01650E-001	-8.51494E-004	10	..........a	-327.74
	105	0.151933	3.93426E-001	-3.64341E-007	0.00000E+000	3.94650E-001	-8.29272E-004	10	..........a	-327.74
	112	0.161967	3.86450E-001	-2.07465E-006	0.00000E+000	3.87650E-001	-8.95939E-004	10	..........a	-327.74
	119	0.172	3.79320E-001	-2.66441E-006	0.00000E+000	3.80600E-001	-8.84828E-004	10	..........a	-327.74
	126	0.182033	3.72415E-001	-2.90031E-006	0.00000E+000	3.73600E-001	-8.51494E-004	10	..........a	-327.74
	133	0.192067	3.65362E-001	-2.31055E-006	0.00000E+000	3.66550E-001	-8.29272E-004	10	..........a	-327.74
	140	0.2021	3.58420E-001	-3.96188E-006	0.00000E+000	3.59550E-001	-8.62605E-004	10	..........a	-327.74
	147	0.212133	3.51391E-001	-2.90031E-006	0.00000E+000	3.52500E-001	-7.84828E-004	10	..........a	-327.74
	154	0.222167	3.44344E-001	-5.14141E-006	0.00000E+000	3.45500E-001	-8.18161E-004	10	..........a	-327.74
	161	0.2322	3.37273E-001	-3.84393E-006	0.00000E+000	3.38450E-001	-8.40383E-004	10	..........a	-327.74
	168	0.242233	3.30297E-001	-4.37472E-006	0.00000E+000	3.31450E-001	-8.29272E-004	10	..........a	-327.74
	175	0.252267	3.23197E-001	-3.31315E-006	0.00000E+000	3.24400E-001	-8.18161E-004	10	..........a	-327.74
	182	0.2623	3.16226E-001	-5.67219E-006	0.00000E+000	3.17400E-001	-7.73717E-004	10	..........a	-327.74
	189	0.272333	3.09167E-001	-5.14141E-006	0.00000E+000	3.10350E-001	-8.62605E-004	10	..........a	-327.74
	196	0.282367	3.02179E-001	-5.37731E-006	0.00000E+000	3.03350E-001	-8.40383E-004	10	..........a	-327.74
	203	0.2924	2.95138E-001	-5.20038E-006	0.00000E+000	2.96300E-001	-7.84828E-004	10	..........a	-327.74
	210	0.302433	2.88126E-001	-5.43629E-006	0.00000E+000	2.89300E-001	-7.84828E-004	10	..........a	-327.74
	217	0.312467	2.81215E-001	-5.61322E-006	0.00000E+000	2.82300E-001	-8.29272E-004	10	..........a	-327.74
	224	0.3225	2.74132E-001	-5.14141E-006	0.00000E+000	2.75250E-001	-7.73717E-004	10	..........a	-327.74
	231	0.332533	2.67091E-001	-5.84912E-006	0.00000E+000	2.68250E-001	-8.62605E-004	10	..........a	-327.74
	238	0.342567	2.60079E-001	-5.55424E-006	0.00000E+000	2.61200E-001	-8.40383E-004	10	..........a	-327.74
	245	0.3526	2.53032E-001	-4.90550E-006	0.00000E+000	2.54200E-001	-8.07050E-004	10	..........a	-327.74
	252	0.362633	2.45997E-001	-5.14141E-006	0.00000E+000	2.47150E-001	-7.73717E-004	10	..........a	-327.74
	259	0.372667	2.39026E-001	-5.61322E-006	0.00000E+000	2.40150E-001	-7.73717E-004	10	..........a	-327.74
	266	0.3827	2.31926E-001	-5.96707E-006	0.00000E+000	2.33100E-001	-7.84828E-004	10	..........a	-327.74
	273	0.392733	2.24997E-001	-4.84653E-006	0.00000E+000	2.26100E-001	-7.62605E-004	10	..........a	-327.74
	280	0.402767	2.17891E-001	-5.02345E-006	0.00000E+000	2.19050E-001	-8.07050E-004	10	..........a	-327.74
	287	0.4128	2.10873E-001	-4.90550E-006	0.00000E+000	2.12050E-001	-8.51494E-004	10	..........a	-327.74
	294	0.422833	2.03879E-001	-5.67219E-006	0.00000E+000	2.05000E-001	-8.07050E-004	10	..........a	-327.74
	301	0.432867	1.96867E-001	-6.08502E-006	0.00000E+000	1.98000E-001	-8.62605E-004	10	..........a	-327.74
	308	0.4429	1.89844E-001	-6.43888E-006	0.00000E+000	1.90950E-001	-8.51494E-004	10	..........a	-327.74
	315	0.452933	1.82832E-001	-6.61581E-006	0.00000E+000	1.83950E-001	-7.73717E-004	10	..........a	-327.74
	322	0.462967	1.75867E-001	-5.14141E-006	0.00000E+000	1.76950E-001	-7.95939E-004	10	..........a	-327.74
	329	0.473	1.68838E-001	-4.78755E-006	0.00000E+000	1.69900E-001	-8.62605E-004	10	..........a	-327.74
	336	0.483033	1.61785E-001	-5.20038E-006	0.00000E+000	1.62900E-001	-8.07050E-004	10	..........a	-327.74
	343	0.493067	1.54756E-001	-5.84912E-006	0.00000E+000	1.55850E-001	-8.18161E-004	10	..........a	-327.74
	350	0.5031	1.47744E-001	-5.90810E-006	0.00000E+000	1.48850E-001	-8.73717E-004	10	..........a	-327.74
	357	0.513133	1.40673E-001	-5.84912E-006	0.00000E+000	1.41800E-001	-7.73717E-004	10	..........a	-327.74
	364	0.523167	1.33715E-001	-6.61581E-006	0.00000E+000	1.34800E-001	-8.40383E-004	10	..........a	-327.74
	371	0.5332	1.26644E-001	-5.73117E-006	0.00000E+000	1.27750E-001	-8.62605E-004	10	..........a	-327.74
	378	0.543233	1.19632E-001	-7.02864E-006	0.00000E+000	1.20750E-001	-7.73717E-004	10	..........a	-327.74
	385	0.553267	1.12597E-001	-6.49786E-006	0.00000E+000	1.13700E-001	-8.62605E-004	10	..........a	-327.74
	392	0.5633	1.05591E-001	-5.96707E-006	0.00000E+000	1.06700E-001	-8.73717E-004	10	..........a	-327.74
	399	0.573333	9.86498E-002	-6.02605E-006	0.00000E+000	9.96500E-002	-8.29272E-004	10	..........a	-327.74
	406	0.583367	9.15498E-002	-6.96967E-006	0.00000E+000	9.26500E-002	-8.40383E-004	10	..........a	-327.74
	413	0.5934	8.45381E-002	-4.84653E-006	0.00000E+000	8.56000E-002	-8.73717E-004	10	..........a	-327.74
	420	0.603433	7.74381E-002	-6.02605E-006	0.00000E+000	7.86000E-002	-8.18161E-004	10	..........a	-327.74
	427	0.613467	7.04910E-002	-5.49526E-006	0.00000E+000	7.16000E-002	-8.73717E-004	10	..........a	-327.74
	434	0.6235	6.35616E-002	-6.14400E-006	0.00000E+000	6.45500E-002	-8.29272E-004	10	..........a	-327.74
	441	0.633533	5.64734E-002	-5.25936E-006	0.00000E+000	5.75500E-002	-8.84828E-004	10	..........a	-327.74
	448	0.643567	4.94263E-002	-7.08762E-006	0.00000E+000	5.05000E-002	-7.84828E-004	10	..........a	-327.74
	455	0.6536	4.25204E-002	-6.32093E-006	0.00000E+000	4.35000E-002	-8.18161E-004	10	..........a	-327.74
	462	0.663633	3.53557E-002	-5.79014E-006	0.00000E+000	3.64500E-002	-7.95939E-004	10	..........a	-327.74
	469	0.673667	2.83734E-002	-6.32093E-006	0.00000E+000	2.94500E-002	-8.07050E-004	10	..........a	-327.74
	476	0.6837	2.14028E-002	-5.96707E-006	0.00000E+000	2.24000E-002	-8.07050E-004	10	..........a	-327.74
	483	0.693733	1.42734E-002	-6.14400E-006	0.00000E+000	1.54000E-002	-7.95939E-004	10	..........a	-327.74
	490	0.703767	7.34983E-003	-6.08502E-006	0.00000E+000	8.34998E-003	-8.73717E-004	10	..........a	-327.74
	497	0.7138	3.26297E-004	-6.14400E-006	0.00000E+000	1.34999E-003	-7.73717E-004	10	..........a	-327.74
	504	0.723833	-6.73841E-003	-5.55424E-006	0.00000E+000	-5.70001E-003	-8.40383E-004	10	..........a	-327.74
	511	0.733867	-1.37031E-002	-5.96707E-006	0.00000E+000	-1.27000E-002	-8.07050E-004	10	..........a	-327.74
	518	0.7439	-2.08149E-002	-7.14659E-006	0.00000E+000	-1.97500E-002	-8.40383E-004	10	..........a	-327.74
	525	0.753933	-2.77855E-002	-6.32093E-006	0.00000E+000	-2.67500E-002	-8.40383E-004	10	..........a	-327.74
	532	0.763967	-3.47914E-002	-5.96707E-006	0.00000E+000	-3.37500E-002	-8.18161E-004	10	..........a	-327.74
	539	0.774	-4.18208E-002	-7.55943E-006	0.00000E+000	-4.08000E-002	-7.40383E-004	10	..........a	-327.74
	546	0.784033	-4.88737E-002	-6.67479E-006	0.00000E+000	-4.78000E-002	-7.95939E-004	10	..........a	-327.74
	553	0.794067	-5.59090E-002	-6.79274E-006	0.00000E+000	-5.48500E-002	-7.95939E-004	10	..........a	-327.74
	560	0.8041	-6.29031E-002	-6.91069E-006	0.00000E+000	-6.18500E-002	-8.95939E-004	10	..........a	-327.74
	567	0.814133	-6.99266E-002	-7.67738E-006	0.00000E+000	-6.89000E-002	-7.95939E-004	10	..........a	-327.74
	574	0.824167	-7.69443E-002	-7.26455E-006	0.00000E+000	-7.59000E-002	-8.95939E-004	10	..........a	-327.74
	581	0.8342	-8.40031E-002	-6.91069E-006	0.00000E+000	-8.29500E-002	-7.95939E-004	10	..........a	-327.74
	588	0.844233	-9.09855E-002	-6.08502E-006	0.00000E+000	-8.99500E-002	-8.40383E-004	10	..........a	-327.74
	595	0.854267	-9.80208E-002	-6.91069E-006	0.00000E+000	-9.70000E-002	-7.95939E-004	10	..........a	-327.74
	602	0.8643	-1.04980E-001	-6.61581E-006	0.00000E+000	-1.04000E-001	-8.07050E-004	10	..........a	-327.74
	609	0.874333	-1.12109E-001	-6.96967E-006	0.00000E+000	-1.11050E-001	-8.73717E-004	10	..........a	-327.74
	616	0.884367	-1.19033E-001	-7.32352E-006	0.00000E+000	-1.18050E-001	-8.18161E-004	10	..........a	-327.74
	623	0.8944	-1.26150E-001	-6.55683E-006	0.00000E+000	-1.25100E-001	-8.18161E-004	10	..........a	-327.74
	630	0.904433	-1.33068E-001	-6.85171E-006	0.00000E+000	-1.32100E-001	-8.51494E-004	10	..........a	-327.74
	637	0.914467	-1.40080E-001	-6.26195E-006	0.00000E+000	-1.39100E-001	-8.62605E-004	10	..........a	-327.74
	644	0.9245	-1.47180E-001	-7.32352E-006	0.00000E+000	-1.46150E-001	-8.29272E-004	10	..........a	-327.74
	651	0.934533	-1.54091E-001	-5.61322E-006	0.00000E+000	-1.53150E-001	-8.07050E-004	10	..........a	-327.74
	658	0.944567	-1.61191E-001	-7.50045E-006	0.00000E+000	-1.60200E-001	-8.18161E-004	10	..........a	-327.74
	665	0.9546	-1.68197E-001	-7.20557E-006	0.00000E+000	-1.67200E-001	-7.84828E-004	10	..........a	-327.74
	672	0.96463	-1.75221E-001	-8.09021E-006	0.00000E+000	-1.74250E-001	-8.62605E-004	10	..........a	-327.74
	679	0.97467	-1.82238E-001	-7.08762E-006	0.00000E+000	-1.81250E-001	-7.84828E-004	10	..........a	-327.74
	686	0.9847	-1.89291E-001	-7.91328E-006	0.00000E+000	-1.88300E-001	-8.29272E-004	10	..........a	-327.74
	693	0.99473	-1.96274E-001	-6.96967E-006	0.00000E+000	-1.95300E-001	-8.29272E-004	10	..........a	-327.74
	700	1.00477	-2.03391E-001	-9.26973E-006	0.00000E+000	-2.02350E-001	-8.07050E-004	10	..........a	-327.74
	707	1.0148	-2.10221E-001	-8.20816E-006	0.00000E+000	-2.09350E-001	-8.84828E-004	10	..........a	-327.74
	714	1.02483	-2.17350E-001	-9.80052E-006	0.00000E+000	-2.16400E-001	-8.62605E-004	10	..........a	-327.74
	721	1.03487	-2.24344E-001	-8.62100E-006	0.00000E+000	-2.23400E-001	-7.95939E-004	10	..........a	-327.74
	728	1.0449	-2.31385E-001	-8.79793E-006	0.00000E+000	-2.30450E-001	-8.18161E-004	10	..........a	-327.74
	735	1.05493	-2.38409E-001	-9.68257E-006	0.00000E+000	-2.37450E-001	-8.07050E-004	10	..........a	-327.74
	742	1.06497	-2.45391E-001	-1.02134E-005	0.00000E+000	-2.44450E-001	-8.29272E-004	10	..........a	-327.74
	749	1.075	-2.52515E-001	-1.18057E-005	0.00000E+000	-2.51500E-001	-8.40383E-004	10	..........a	-327.74
	756	1.08503	-2.59462E-001	-1.06262E-005	0.00000E+000	-2.58500E-001	-8.29272E-004	10	..........a	-327.74
	763	1.09507	-2.66527E-001	-1.16878E-005	0.00000E+000	-2.65550E-001	-7.95939E-004	10	..........a	-327.74
	770	1.1051	-2.73485E-001	-1.26314E-005	0.00000E+000	-2.72550E-001	-8.29272E-004	10	..........a	-327.74
	777	1.11513	-2.80544E-001	-1.38699E-005	0.00000E+000	-2.79600E-001	-8.51494E-004	10	..........a	-327.74
	784	1.12517	-2.87550E-001	-1.34570E-005	0.00000E+000	-2.86600E-001	-7.73717E-004	10	..........a	-327.74
	791	1.1352	-2.94585E-001	-1.47545E-005	0.00000E+000	-2.93650E-001	-8.18161E-004	10	..........a	-327.74
	798	1.14523	-3.01527E-001	-1.48725E-005	0.00000E+000	-3.00650E-001	-7.95939E-004	10	..........a	-327.74
	805	1.15527	-3.08644E-001	-1.75264E-005	0.00000E+000	-3.07700E-001	-8.07050E-004	10	..........a	-327.74
	812	1.1653	-3.15668E-001	-1.71725E-005	0.00000E+000	-3.14700E-001	-8.07050E-004	10	..........a	-327.74
	819	1.17533	-3.22685E-001	-1.87059E-005	0.00000E+000	-3.21750E-001	-8.07050E-004	10	..........a	-327.74
	826	1.18537	-3.29691E-001	-2.02393E-005	0.00000E+000	-3.28750E-001	-7.95939E-004	10	..........a	-327.74
	833	1.1954	-3.36738E-001	-2.13598E-005	0.00000E+000	-3.35800E-001	-7.73717E-004	10	..........a	-327.74
	840	1.20543	-3.43821E-001	-2.18316E-005	0.00000E+000	-3.42800E-001	-8.84828E-004	10	..........a	-327.74
	847	1.21547	-3.50691E-001	-2.36009E-005	0.00000E+000	-3.49800E-001	-8.18161E-004	10	..........a	-327.74
	854	1.2255	-3.57785E-001	-2.51343E-005	0.00000E+000	-3.56850E-001	-8.62605E-004	10	..........a	-327.74
	861	1.23553	-3.64768E-001	-2.69036E-005	0.00000E+000	-3.63850E-001	-8.07050E-004	10	..........a	-327.74
	868	1.24557	-3.71750E-001	-2.87908E-005	0.00000E+000	-3.70900E-001	-8.62605E-004	10	..........a	-327.74
	875	1.2556	-3.78827E-001	-2.92037E-005	0.00000E+000	-3.77900E-001	-8.07050E-004	10	..........a	-327.74
	882	1.26563	-3.85844E-001	-3.12678E-005	0.00000E+000	-3.84950E-001	-8.07050E-004	10	..........a	-327.74
	889	1.27567	-3.92785E-001	-3.20345E-005	0.00000E+000	-3.91950E-001	-8.18161E-004	10	..........a	-327.74
	896	1.2857	-3.99897E-001	-3.49243E-005	0.00000E+000	-3.99000E-001	-7.51494E-004	10	..........a	-327.74
	903	1.29573	-4.06891E-001	-3.62218E-005	0.00000E+000	-4.06000E-001	-8.62605E-004	10	..........a	-327.74
	910	1.30577	-4.13921E-001	-3.88168E-005	0.00000E+000	-4.13050E-001	-7.84828E-004	10	..........a	-327.74
	917	1.3158	-4.21021E-001	-4.12348E-005	0.00000E+000	-4.20050E-001	-8.29272E-004	10	..........a	-327.74
	924	1.32583	-4.27938E-001	-4.47734E-005	0.00000E+000	-4.27100E-001	-8.40383E-004	10	..........a	-327.74
	931	1.33587	-4.35032E-001	-5.00812E-005	0.00000E+000	-4.34100E-001	-7.40383E-004	10	..........a	-327.74
	938	1.3459	-4.42015E-001	-5.66276E-005	0.00000E+000	-4.41150E-001	-8.84828E-004	10	..........a	-327.74
	945	1.35593	-4.49038E-001	-6.57099E-005	0.00000E+000	-4.48150E-001	-7.95939E-004	10	..........a	-327.74
	952	1.36597	-4.56074E-001	-7.76820E-005	0.00000E+000	-4.55150E-001	-8.29272E-004	10	..........a	-327.74
	959	1.376	-4.63021E-001	-9.33107E-005	0.00000E+000	-4.62200E-001	-7.84828E-004	10	..........a	-327.74
	966	1.38603	-4.70021E-001	-1.10945E-004	0.00000E+000	-4.69200E-001	-8.62605E-004	10	..........a	-327.74
	973	1.39607	-4.77074E-001	-1.36068E-004	0.00000E+000	-4.76250E-001	-8.73717E-004	10	..........a	-327.74
	980	1.4061	-4.84138E-001	-1.64318E-004	0.00000E+000	-4.83250E-001	-8.95939E-004	10	..........a	-327.74
	987	1.41613	-4.91138E-001	-2.01060E-004	0.00000E+000	-4.90300E-001	-9.07050E-004	10	..........a	-327.74
	994	1.42617	-4.98121E-001	-2.44467E-004	0.00000E+000	-4.97300E-001	-7.95939E-004	10	..........a	-327.74
	1001	1.4362	-5.05197E-001	-2.95776E-004	0.00000E+000	-5.04350E-001	-7.51494E-004	10	..........a	-327.74
	1008	1.44623	-5.12232E-001	-3.53218E-004	0.00000E+000	-5.11350E-001	-7.62605E-004	10	..........a	-327.74
	1015	1.45627	-5.19227E-001	-4.16441E-004	0.00000E+000	-5.18400E-001	-8.51494E-004	10	..........a	-327.74
	1022	1.4663	-5.26232E-001	-4.79958E-004	0.00000E+000	-5.25400E-001	-8.62605E-004	10	..........a	-327.74
	1029	1.47633	-5.33291E-001	-5.44891E-004	0.00000E+000	-5.32450E-001	-8.29272E-004	10	..........a	-327.74
	1036	1.48637	-5.40256E-001	-6.02157E-004	0.00000E+000	-5.39450E-001	-7.84828E-004	10	..........a	-327.74
	1043	1.4964	-5.47403E-001	-6.53938E-004	0.00000E+000	-5.46500E-001	-8.29272E-004	10	..........a	-327.74
	1050	1.50643	-5.54321E-001	-6.88439E-004	0.00000E+000	-5.53500E-001	-8.51494E-004	10	..........a	-327.74
	1057	1.51647	-5.61385E-001	-7.11911E-004	0.00000E+000	-5.60500E-001	-8.18161E-004	10	..........a	-327.74
	1064	1.5265	-5.68397E-001	-7.17337E-004	0.00000E+000	-5.67550E-001	-8.62605E-004	10	..........a	-327.74
	1071	1.53653	-5.75438E-001	-7.06603E-004	0.00000E+000	-5.74550E-001	-8.18161E-004	10	..........a	-327.74
	1078	1.54657	-5.82480E-001	-6.81303E-004	0.00000E+000	-5.81600E-001	-8.07050E-004	10	..........a	-327.74
	1085	1.5566	-5.89397E-001	-6.46507E-004	0.00000E+000	-5.88600E-001	-8.51494E-004	10	..........a	-327.74
	1092	1.56663	-5.96462E-001	-6.10767E-004	0.00000E+000	-5.95650E-001	-7.84828E-004	10	..........a	-327.74
	1099	1.57667	-6.03468E-001	-5.75794E-004	0.00000E+000	-6.02650E-001	-8.73717E-004	10	..........a	-327.74
	1106	1.5867	-6.10532E-001	-5.45186E-004	0.00000E+000	-6.09700E-001	-8.07050E-004	10	..........a	-327.74
	1113	1.59673	-6.17491E-001	-5.17703E-004	0.00000E+000	-6.16700E-001	-8.84828E-004	10	..........a	-327.74
	1120	1.60677	-6.24538E-001	-4.92756E-004	0.00000E+000	-6.23750E-001	-8.62605E-004	10	..........a	-327.74
	1127	1.6168	-6.31544E-001	-4.73117E-004	0.00000E+000	-6.30750E-001	-8.18161E-004	10	..........a	-327.74
	1134	1.62683	-6.38627E-001	-4.55955E-004	0.00000E+000	-6.37800E-001	-8.51494E-004	10	..........a	-327.74
	1141	1.63687	-6.45568E-001	-4.37849E-004	0.00000E+000	-6.44800E-001	-8.51494E-004	10	..........a	-327.74
	1148	1.6469	-6.52644E-001	-4.25110E-004	0.00000E+000	-6.51850E-001	-8.51494E-004	10	..........a	-327.74
	1155	1.65693	-6.59633E-001	-4.11133E-004	0.00000E+000	-6.58850E-001	-7.95939E-004	10	..........a	-327.74
	1162	1.66697	-6.66627E-001	-3.99456E-004	0.00000E+000	-6.65850E-001	-8.62605E-004	10	..........a	-327.74
	1169	1.677	-6.73662E-001	-3.89371E-004	0.00000E+000	-6.72900E-001	-8.18161E-004	10	..........a	-327.74
	1176	1.68703	-6.80627E-001	-3.77576E-004	0.00000E+000	-6.79900E-001	-8.40383E-004	10	..........a	-327.74
	1183	1.69707	-6.87756E-001	-3.69260E-004	0.00000E+000	-6.86950E-001	-7.84828E-004	10	..........a	-327.74
	1190	1.7071	-6.94721E-001	-3.59765E-004	0.00000E+000	-6.93950E-001	-8.51494E-004	10	..........a	-327.74
	1197	1.71713	-7.01762E-001	-3.52216E-004	0.00000E+000	-7.01000E-001	-7.62605E-004	10	..........a	-327.74
	1204	1.72717	-7.08750E-001	-3.43487E-004	0.00000E+000	-7.08000E-001	-8.51494E-004	10	..........a	-327.74
	1211	1.7372	-7.15756E-001	-3.36705E-004	0.00000E+000	-7.15050E-001	-7.73717E-004	10	..........a	-327.74
	1218	1.74723	-7.22850E-001	-3.30218E-004	0.00000E+000	-7.22050E-001	-7.73717E-004	10	..........a	-327.74
	1225	1.75727	-7.29838E-001	-3.23848E-004	0.00000E+000	-7.29100E-001	-7.95939E-004	10	..........a	-327.74
	1232	1.7673	-7.36903E-001	-3.17243E-004	0.00000E+000	-7.36100E-001	-8.51494E-004	10	..........a	-327.74
	1239	1.77733	-7.43903E-001	-3.12584E-004	0.00000E+000	-7.43150E-001	-7.95939E-004	10	..........a	-327.74
	1246	1.78737	-7.50968E-001	-3.05625E-004	0.00000E+000	-7.50150E-001	-7.84828E-004	10	..........a	-327.74
	1253	1.7974	-7.57950E-001	-3.01084E-004	0.00000E+000	-7.57200E-001	-8.40383E-004	10	..........a	-327.74
	1260	1.80743	-7.64944E-001	-2.94596E-004	0.00000E+000	-7.64200E-001	-8.07050E-004	10	..........a	-327.74
	1267	1.81747	-7.71880E-001	-2.90763E-004	0.00000E+000	-7.71200E-001	-7.62605E-004	10	..........a	-327.74
	1274	1.8275	-7.79038E-001	-2.86870E-004	0.00000E+000	-7.78250E-001	-7.95939E-004	10	..........a	-327.74
	1281	1.83753	-7.86003E-001	-2.82506E-004	0.00000E+000	-7.85250E-001	-8.18161E-004	10	..........a	-327.74
	1288	1.84757	-7.93038E-001	-2.78201E-004	0.00000E+000	-7.92300E-001	-8.07050E-004	10	..........a	-327.74
	1295	1.8576	-8.00038E-001	-2.74426E-004	0.00000E+000	-7.99300E-001	-8.51494E-004	10	..........a	-327.74
	1302	1.86763	-8.07062E-001	-2.70888E-004	0.00000E+000	-8.06350E-001	-8.40383E-004	10	..........a	-327.74
	1309	1.87767	-8.14115E-001	-2.67172E-004	0.00000E+000	-8.13350E-001	-8.51494E-004	10	..........a	-327.74
	1316	1.8877	-8.21056E-001	-2.64695E-004	0.00000E+000	-8.20400E-001	-8.29272E-004	10	..........a	-327.74
	1323	1.89773	-8.28091E-001	-2.61098E-004	0.00000E+000	-8.27400E-001	-8.18161E-004	10	..........a	-327.74
	1330	1.90777	-8.35121E-001	-2.57559E-004	0.00000E+000	-8.34450E-001	-8.40383E-004	10	..........a	-327.74
	1337	1.9178	-8.42121E-001	-2.55141E-004	0.00000E+000	-8.41450E-001	-8.73717E-004	10	..........a	-327.74
	1344	1.92783	-8.49180E-001	-2.52192E-004	0.00000E+000	-8.48500E-001	-8.07050E-004	10	..........a	-327.74
	1351	1.93787	-8.56162E-001	-2.48005E-004	0.00000E+000	-8.55500E-001	-8.29272E-004	10	..........a	-327.74
	1358	1.9479	-8.63197E-001	-2.45587E-004	0.00000E+000	-8.62550E-001	-8.84828E-004	10	..........a	-327.74
	1365	1.95793	-8.70227E-001	-2.43523E-004	0.00000E+000	-8.69550E-001	-7.73717E-004	10	..........a	-327.74
	1372	1.96797	-8.77227E-001	-2.41341E-004	0.00000E+000	-8.76550E-001	-7.07050E-004	10	..........a	-327.74
	1379	1.978	-8.84256E-001	-2.38097E-004	0.00000E+000	-8.83600E-001	-8.07050E-004	10	..........a	-327.74
	1386	1.98803	-8.91227E-001	-2.36033E-004	0.00000E+000	-8.90600E-001	-8.51494E-004	10	..........a	-327.74
	1393	1.99807	-8.98262E-001	-2.33733E-004	0.00000E+000	-8.97650E-001	-8.29272E-004	10	..........a	-327.74
	1400	2.0081	-9.05368E-001	-2.32199E-004	0.00000E+000	-9.04650E-001	-8.18161E-004	10	..........a	-327.74
	1407	2.01813	-9.12344E-001	-2.29310E-004	0.00000E+000	-9.11700E-001	-8.40383E-004	10	..........a	-327.74
	1414	2.02817	-9.19356E-001	-2.27599E-004	0.00000E+000	-9.18700E-001	-8.07050E-004	10	..........a	-327.74
	1421	2.0382	-9.26403E-001	-2.25948E-004	0.00000E+000	-9.25750E-001	-8.40383E-004	10	..........a	-327.74
	1428	2.04823	-9.33350E-001	-2.22704E-004	0.00000E+000	-9.32750E-001	-8.29272E-004	10	..........a	-327.74
	1435	2.05827	-9.40403E-001	-2.21112E-004	0.00000E+000	-9.39800E-001	-8.07050E-004	10	..........a	-327.74
	1442	2.0683	-9.47450E-001	-2.18576E-004	0.00000E+000	-9.46800E-001	-9.07050E-004	10	..........a	-327.74
	1449	2.07833	-9.54462E-001	-2.17986E-004	0.00000E+000	-9.53850E-001	-8.62605E-004	10	..........a	-327.74
	1456	2.08837	-9.61468E-001	-2.16571E-004	0.00000E+000	-9.60850E-001	-8.51494E-004	10	..........a	-327.74
	1463	2.0984	-9.68515E-001	-2.15745E-004	0.00000E+000	-9.67900E-001	-8.40383E-004	10	..........a	-327.74
	1470	2.10843	-9.75527E-001	-2.13917E-004	0.00000E+000	-9.74900E-001	-8.84828E-004	10	..........a	-327.74
	1477	2.11847	-9.82591E-001	-2.11912E-004	0.00000E+000	-9.81900E-001	-7.95939E-004	10	..........a	-327.74
	1484	2.1285	-9.89527E-001	-2.10437E-004	0.00000E+000	-9.88950E-001	-8.51494E-004	10	..........a	-327.74
	1491	2.13853	-9.96585E-001	-2.09081E-004	0.00000E+000	-9.95950E-001	-8.40383E-004	10	..........a	-327.74
	1498	2.14857	-9.97527E-001	-2.01237E-004	0.00000E+000	-9.96950E-001	-8.51494E-004	10	..........a	-327.74
	1505	2.1586	-9.90591E-001	-1.94868E-004	0.00000E+000	-9.89950E-001	-8.62605E-004	10	..........a	-327.74
	1512	2.16863	-9.83568E-001	-1.90208E-004	0.00000E+000	-9.82950E-001	-7.84828E-004	10	..........a	-327.74
	1519	2.17867	-9.76509E-001	-1.86080E-004	0.00000E+000	-9.75900E-001	-8.07050E-004	10	..........a	-327.74
	1526	2.1887	-9.69609E-001	-1.83072E-004	0.00000E+000	-9.68900E-001	-8.29272E-004	10	..........a	-327.74
	1533	2.19873	-9.62444E-001	-1.80536E-004	0.00000E+000	-9.61850E-001	-7.95939E-004	10	..........a	-327.74
	1540	2.20877	-9.55527E-001	-1.78708E-004	0.00000E+000	-9.54850E-001	-8.07050E-004	10	..........a	-327.74
	1547	2.2188	-9.48338E-001	-1.77293E-004	0.00000E+000	-9.47800E-001	-8.07050E-004	10	..........a	-327.74
	1554	2.22883	-9.41421E-001	-1.74875E-004	0.00000E+000	-9.40800E-001	-8.51494E-004	10	..........a	-327.74
	1561	2.23887	-9.34391E-001	-1.72693E-004	0.00000E+000	-9.33750E-001	-7.95939E-004	10	..........a	-327.74
	1568	2.2489	-9.27403E-001	-1.71690E-004	0.00000E+000	-9.26750E-001	-8.07050E-004	10	..........a	-327.74
	1575	2.25893	-9.20391E-001	-1.70039E-004	0.00000E+000	-9.19700E-001	-7.95939E-004	10	..........a	-327.74
	1582	2.26897	-9.13344E-001	-1.67621E-004	0.00000E+000	-9.12700E-001	-8.62605E-004	10	..........a	-327.74
	1589	2.279	-9.06256E-001	-1.66677E-004	0.00000E+000	-9.05650E-001	-7.95939E-004	10	..........a	-327.74
	1596	2.28903	-8.99338E-001	-1.65380E-004	0.00000E+000	-8.98650E-001	-8.18161E-004	10	..........a	-327.74
	1603	2.29907	-8.92262E-001	-1.63020E-004	0.00000E+000	-8.91600E-001	-8.07050E-004	10	..........a	-327.74
	1610	2.3091	-8.85209E-001	-1.62254E-004	0.00000E+000	-8.84600E-001	-8.07050E-004	10	..........a	-327.74
	1617	2.31913	-8.78280E-001	-1.61900E-004	0.00000E+000	-8.77600E-001	-8.62605E-004	10	..........a	-327.74
	1624	2.32917	-8.71180E-001	-1.59954E-004	0.00000E+000	-8.70550E-001	-8.51494E-004	10	..........a	-327.74
	1631	2.3392	-8.64215E-001	-1.57949E-004	0.00000E+000	-8.63550E-001	-8.29272E-004	10	..........a	-327.74
	1638	2.34923	-8.57174E-001	-1.57418E-004	0.00000E+000	-8.56500E-001	-8.40383E-004	10	..........a	-327.74
	1645	2.35927	-8.50132E-001	-1.55413E-004	0.00000E+000	-8.49500E-001	-8.18161E-004	10	..........a	-327.74
	1652	2.3693	-8.43156E-001	-1.54528E-004	0.00000E+000	-8.42450E-001	-8.73717E-004	10	..........a	-327.74
	1659	2.37933	-8.36162E-001	-1.53348E-004	0.00000E+000	-8.35450E-001	-7.84828E-004	10	..........a	-327.74
	1666	2.38937	-8.29085E-001	-1.52877E-004	0.00000E+000	-8.28400E-001	-8.29272E-004	10	..........a	-327.74
	1673	2.3994	-8.22091E-001	-1.51638E-004	0.00000E+000	-8.21400E-001	-8.40383E-004	10	..........a	-327.74
	1680	2.40943	-8.15062E-001	-1.51225E-004	0.00000E+000	-8.14350E-001	-8.40383E-004	10	..........a	-327.74
	1687	2.41947	-8.08074E-001	-1.49751E-004	0.00000E+000	-8.07350E-001	-7.51494E-004	10	..........a	-327.74
	1694	2.4295	-8.01074E-001	-1.47510E-004	0.00000E+000	-8.00300E-001	-8.40383E-004	10	..........a	-327.74
	1701	2.43953	-7.94003E-001	-1.47805E-004	0.00000E+000	-7.93300E-001	-7.84828E-004	10	..........a	-327.74
	1708	2.44957	-7.87038E-001	-1.46153E-004	0.00000E+000	-7.86250E-001	-8.29272E-004	10	..........a	-327.74
	1715	2.4596	-7.80050E-001	-1.46094E-004	0.00000E+000	-7.79250E-001	-8.40383E-004	10	..........a	-327.74
	1722	2.46963	-7.73021E-001	-1.43853E-004	0.00000E+000	-7.72250E-001	-8.29272E-004	10	..........a	-327.74
	1729	2.47967	-7.65985E-001	-1.43558E-004	0.00000E+000	-7.65200E-001	-8.62605E-004	10	..........a	-327.74
	1736	2.4897	-7.58956E-001	-1.42910E-004	0.00000E+000	-7.58200E-001	-7.62605E-004	10	..........a	-327.74
	1743	2.49973	-7.51944E-001	-1.41553E-004	0.00000E+000	-7.51150E-001	-8.29272E-004	10	..........a	-327.74
	1750	2.50977	-7.44891E-001	-1.40256E-004	0.00000E+000	-7.44150E-001	-8.18161E-004	10	..........a	-327.74
	1757	2.5198	-7.37844E-001	-1.39961E-004	0.00000E+000	-7.37100E-001	-8.07050E-004	10	..........a	-327.74
	1764	2.52983	-7.30862E-001	-1.38309E-004	0.00000E+000	-7.30100E-001	-7.84828E-004	10	..........a	-327.74
	1771	2.53987	-7.23797E-001	-1.36658E-004	0.00000E+000	-7.23050E-001	-8.51494E-004	10	..........a	-327.74
	1778	2.5499	-7.16850E-001	-1.35774E-004	0.00000E+000	-7.16050E-001	-8.29272E-004	10	..........a	-327.74
	1785	2.55993	-7.09774E-001	-1.35007E-004	0.00000E+000	-7.09000E-001	-7.84828E-004	10	..........a	-327.74
	1792	2.56997	-7.02821E-001	-1.35361E-004	0.00000E+000	-7.02000E-001	-8.18161E-004	10	..........a	-327.74
	1799	2.58	-6.95744E-001	-1.33061E-004	0.00000E+000	-6.94950E-001	-8.07050E-004	10	..........a	-327.74
	1806	2.59003	-6.88738E-001	-1.31704E-004	0.00000E+000	-6.87950E-001	-8.29272E-004	10	..........a	-327.74
	1813	2.60007	-6.81703E-001	-1.29640E-004	0.00000E+000	-6.80900E-001	-8.40383E-004	10	..........a	-327.74
	1820	2.6101	-6.74685E-001	-1.28696E-004	0.00000E+000	-6.73900E-001	-8.07050E-004	10	..........a	-327.74
	1827	2.62013	-6.67650E-001	-1.26337E-004	0.00000E+000	-6.66900E-001	-8.29272E-004	10	..........a	-327.74
	1834	2.63017	-6.60691E-001	-1.25807E-004	0.00000E+000	-6.59850E-001	-7.84828E-004	10	..........a	-327.74
	1841	2.6402	-6.53632E-001	-1.22150E-004	0.00000E+000	-6.52850E-001	-8.29272E-004	10	..........a	-327.74
	1848	2.65023	-6.46638E-001	-1.20912E-004	0.00000E+000	-6.45800E-001	-8.40383E-004	10	..........a	-327.74
	1855	2.66027	-6.39609E-001	-1.17963E-004	0.00000E+000	-6.38800E-001	-7.84828E-004	10	..........a	-327.74
	1862	2.6703	-6.32521E-001	-1.14660E-004	0.00000E+000	-6.31750E-001	-7.95939E-004	10	..........a	-327.74
	1869	2.68033	-6.25562E-001	-1.11534E-004	0.00000E+000	-6.24750E-001	-8.18161E-004	10	..........a	-327.74
	1876	2.69037	-6.18527E-001	-1.06580E-004	0.00000E+000	-6.17700E-001	-8.40383E-004	10	..........a	-327.74
	1883	2.7004	-6.11485E-001	-1.01685E-004	0.00000E+000	-6.10700E-001	-8.29272E-004	10	..........a	-327.74
	1890	2.71043	-6.04450E-001	-9.62595E-005	0.00000E+000	-6.03650E-001	-8.18161E-004	10	..........a	-327.74
	1897	2.72047	-5.97427E-001	-8.71182E-005	0.00000E+000	-5.96650E-001	-8.29272E-004	10	..........a	-327.74
	1904	2.7305	-5.90485E-001	-7.75641E-005	0.00000E+000	-5.89600E-001	-8.51494E-004	10	..........a	-327.74
	1911	2.74053	-5.83432E-001	-6.42355E-005	0.00000E+000	-5.82600E-001	-8.40383E-004	10	..........a	-327.74
	1918	2.75057	-5.76391E-001	-4.66606E-005	0.00000E+000	-5.75550E-001	-8.62605E-004	10	..........a	-327.74
	1925	2.7606	-5.69485E-001	-2.70805E-005	0.00000E+000	-5.68550E-001	-8.84828E-004	10	..........a	-327.74
	1932	2.77063	-5.62344E-001	2.99730E-006	0.00000E+000	-5.61550E-001	-8.40383E-004	10	..........a	-327.74
	1939	2.78067	-5.55362E-001	4.03292E-005	0.00000E+000	-5.54500E-001	-8.40383E-004	10	..........a	-327.74
	1946	2.7907	-5.48374E-001	8.69793E-005	0.00000E+000	-5.47500E-001	-8.07050E-004	10	..........a	-327.74
	1953	2.80073	-5.41256E-001	1.46899E-004	0.00000E+000	-5.40450E-001	-7.95939E-004	10	..........a	-327.74
	1960	2.81077	-5.34338E-001	2.16550E-004	0.00000E+000	-5.33450E-001	-8.62605E-004	10	..........a	-327.74
	1967	2.8208	-5.27250E-001	2.94044E-004	0.00000E+000	-5.26400E-001	-8.51494E-004	10	..........a	-327.74
	1974	2.83083	-5.20262E-001	3.68295E-004	0.00000E+000	-5.19400E-001	-8.29272E-004	10	..........a	-327.74
	1981	2.84087	-5.13209E-001	4.36944E-004	0.00000E+000	-5.12350E-001	-8.73717E-004	10	..........a	-327.74
	1988	2.8509	-5.06174E-001	4.89432E-004	0.00000E+000	-5.05350E-001	-8.62605E-004	10	..........a	-327.74
	1995	2.86093	-4.99174E-001	5.20454E-004	0.00000E+000	-4.98300E-001	-9.29272E-004	10	..........a	-327.74
	2002	2.87097	-4.92127E-001	5.32308E-004	0.00000E+000	-4.91300E-001	-8.95939E-004	10	..........a	-327.74
	2009	2.881	-4.85121E-001	5.27826E-004	0.00000E+000	-4.84250E-001	-8.95939E-004	10	..........a	-327.74
	2016	2.89103	-4.78091E-001	5.10133E-004	0.00000E+000	-4.77250E-001	-9.07050E-004	10	..........a	-327.74
	2023	2.90107	-4.71033E-001	4.88430E-004	0.00000E+000	-4.70200E-001	-8.29272E-004	10	..........a	-327.74
	2030	2.9111	-4.64097E-001	4.60770E-004	0.00000E+000	-4.63200E-001	-7.95939E-004	10	..........a	-327.74
	2037	2.92113	-4.57085E-001	4.34526E-004	0.00000E+000	-4.56200E-001	-8.18161E-004	10	..........a	-327.74
	2044	2.93117	-4.49997E-001	4.07220E-004	0.00000E+000	-4.49150E-001	-8.29272E-004	10	..........a	-327.74
	2051	2.9412	-4.43068E-001	3.82214E-004	0.00000E+000	-4.42150E-001	-8.51494E-004	10	..........a	-327.74
	2058	2.95123	-4.35938E-001	3.59036E-004	0.00000E+000	-4.35100E-001	-8.95939E-004	10	..........a	-327.74
	2065	2.96127	-4.28991E-001	3.37746E-004	0.00000E+000	-4.28100E-001	-8.07050E-004	10	..........a	-327.74
	2072	2.9713	-4.21997E-001	3.18755E-004	0.00000E+000	-4.21050E-001	-8.51494E-004	10	..........a	-327.74
	2079	2.98133	-4.14891E-001	3.01122E-004	0.00000E+000	-4.14050E-001	-8.73717E-004	10	..........a	-327.74
	2086	2.99137	-4.07903E-001	2.86201E-004	0.00000E+000	-4.07000E-001	-8.29272E-004	10	..........a	-327.74
	2093	3.0014	-4.00903E-001	2.71751E-004	0.00000E+000	-4.00000E-001	-8.73717E-004	10	..........a	-327.74
	2100	3.01143	-3.93832E-001	2.59543E-004	0.00000E+000	-3.92950E-001	-8.62605E-004	10	..........a	-327.74
	2107	3.02147	-3.86921E-001	2.47512E-004	0.00000E+000	-3.85950E-001	-8.51494E-004	10	..........a	-327.74
	2114	3.0315	-3.79750E-001	2.37722E-004	0.00000E+000	-3.78900E-001	-8.29272E-004	10	..........a	-327.74
	2121	3.04153	-3.72803E-001	2.28109E-004	0.00000E+000	-3.71900E-001	-8.62605E-004	10	..........a	-327.74
	2128	3.05157	-3.65774E-001	2.20265E-004	0.00000E+000	-3.64850E-001	-8.95939E-004	10	..........a	-327.74
	2135	3.0616	-3.58768E-001	2.12245E-004	0.00000E+000	-3.57850E-001	-8.73717E-004	10	..........a	-327.74
	2142	3.07163	-3.51727E-001	2.04932E-004	0.00000E+000	-3.50850E-001	-7.73717E-004	10	..........a	-327.74
	2149	3.08167	-3.44662E-001	1.98267E-004	0.00000E+000	-3.43800E-001	-8.40383E-004	10	..........a	-327.74
	2156	3.0917	-3.37703E-001	1.92723E-004	0.00000E+000	-3.36800E-001	-8.73717E-004	10	..........a	-327.74
	2163	3.10173	-3.30662E-001	1.86000E-004	0.00000E+000	-3.29750E-001	-8.18161E-004	10	..........a	-327.74
	2170	3.11177	-3.23644E-001	1.81872E-004	0.00000E+000	-3.22750E-001	-8.29272E-004	10	..........a	-327.74
	2177	3.1218	-3.16644E-001	1.76210E-004	0.00000E+000	-3.15700E-001	-8.18161E-004	10	..........a	-327.74
	2184	3.13183	-3.09615E-001	1.72318E-004	0.00000E+000	-3.08700E-001	-8.18161E-004	10	..........a	-327.74
	2191	3.14187	-3.02621E-001	1.66538E-004	0.00000E+000	-3.01650E-001	-8.51494E-004	10	..........a	-327.74
	2198	3.1519	-2.95580E-001	1.62823E-004	0.00000E+000	-2.94650E-001	-8.62605E-004	10	..........a	-327.74
	2205	3.16193	-2.88538E-001	1.58812E-004	0.00000E+000	-2.87600E-001	-8.51494E-004	10	..........a	-327.74
	2212	3.17197	-2.81568E-001	1.54802E-004	0.00000E+000	-2.80600E-001	-8.07050E-004	10	..........a	-327.74
	2219	3.182	-2.74485E-001	1.51794E-004	0.00000E+000	-2.73550E-001	-8.18161E-004	10	..........a	-327.74
	2226	3.19203	-2.67509E-001	1.49140E-004	0.00000E+000	-2.66550E-001	-8.40383E-004	10	..........a	-327.74
	2233	3.20207	-2.60438E-001	1.45720E-004	0.00000E+000	-2.59500E-001	-8.40383E-004	10	..........a	-327.74
	2240	3.2121	-2.53403E-001	1.42122E-004	0.00000E+000	-2.52500E-001	-8.40383E-004	10	..........a	-327.74
	2247	3.22213	-2.46415E-001	1.40294E-004	0.00000E+000	-2.45500E-001	-8.95939E-004	10	..........a	-327.74
	2254	3.23217	-2.39421E-001	1.36991E-004	0.00000E+000	-2.38450E-001	-8.29272E-004	10	..........a	-327.74
	2261	3.2422	-2.32385E-001	1.35045E-004	0.00000E+000	-2.31450E-001	-8.07050E-004	10	..........a	-327.74
	2268	3.25223	-2.25350E-001	1.32155E-004	0.00000E+000	-2.24400E-001	-8.73717E-004	10	..........a	-327.74
	2275	3.26227	-2.18303E-001	1.29973E-004	0.00000E+000	-2.17400E-001	-8.40383E-004	10	..........a	-327.74
	2282	3.2723	-2.11309E-001	1.26257E-004	0.00000E+000	-2.10350E-001	-8.62605E-004	10	..........a	-327.74
	2289	3.28233	-2.04333E-001	1.24606E-004	0.00000E+000	-2.03350E-001	-8.84828E-004	10	..........a	-327.74
	2296	3.29237	-1.97262E-001	1.21362E-004	0.00000E+000	-1.96300E-001	-8.51494E-004	10	..........a	-327.74
	2303	3.3024	-1.90350E-001	1.19829E-004	0.00000E+000	-1.89300E-001	-8.40383E-004	10	..........a	-327.74
	2310	3.31243	-1.83297E-001	1.17824E-004	0.00000E+000	-1.82250E-001	-7.73717E-004	10	..........a	-327.74
	2317	3.32247	-1.76244E-001	1.16349E-004	0.00000E+000	-1.75250E-001	-8.95939E-004	10	..........a	-327.74
	2324	3.3325	-1.69180E-001	1.14167E-004	0.00000E+000	-1.68200E-001	-8.40383E-004	10	..........a	-327.74
	2331	3.34253	-1.62144E-001	1.12634E-004	0.00000E+000	-1.61200E-001	-8.84828E-004	10	..........a	-327.74
	2338	3.35257	-1.55180E-001	1.09803E-004	0.00000E+000	-1.54150E-001	-8.62605E-004	10	..........a	-327.74
	2345	3.3626	-1.48138E-001	1.08211E-004	0.00000E+000	-1.47150E-001	-8.62605E-004	10	..........a	-327.74
	2352	3.37263	-1.41133E-001	1.06913E-004	0.00000E+000	-1.40150E-001	-8.29272E-004	10	..........a	-327.74
	2359	3.38267	-1.34103E-001	1.05616E-004	0.00000E+000	-1.33100E-001	-8.40383E-004	10	..........a	-327.74
	2366	3.3927	-1.27097E-001	1.04200E-004	0.00000E+000	-1.26100E-001	-8.40383E-004	10	..........a	-327.74
	2373	3.40273	-1.20115E-001	1.01428E-004	0.00000E+000	-1.19050E-001	-8.40383E-004	10	..........a	-327.74
	2380	3.41277	-1.13062E-001	1.01723E-004	0.00000E+000	-1.12050E-001	-8.29272E-004	10	..........a	-327.74
	2387	3.4228	-1.05997E-001	9.93053E-005	0.00000E+000	-1.05000E-001	-8.07050E-004	10	..........a	-327.74
	2394	3.43283	-9.90208E-002	9.85386E-005	0.00000E+000	-9.80000E-002	-9.18161E-004	10	..........a	-327.74
	2401	3.44287	-9.19325E-002	9.67103E-005	0.00000E+000	-9.09500E-002	-8.84828E-004	10	..........a	-327.74
	2408	3.4529	-8.49384E-002	9.58257E-005	0.00000E+000	-8.39500E-002	-8.51494E-004	10	..........a	-327.74
	2415	3.46293	-7.78972E-002	9.44692E-005	0.00000E+000	-7.69000E-002	-8.73717E-004	10	..........a	-327.74
	2422	3.47297	-7.08855E-002	9.37615E-005	0.00000E+000	-6.99000E-002	-8.51494E-004	10	..........a	-327.74
	2429	3.483	-6.38502E-002	9.17564E-005	0.00000E+000	-6.28500E-002	-8.73717E-004	10	..........a	-327.74
	2436	3.49303	-5.69090E-002	9.05768E-005	0.00000E+000	-5.58500E-002	-8.29272E-004	10	..........a	-327.74
	2443	3.50307	-4.98031E-002	9.00461E-005	0.00000E+000	-4.88000E-002	-8.40383E-004	10	..........a	-327.74
	2450	3.5131	-4.28325E-002	8.95742E-005	0.00000E+000	-4.18000E-002	-8.73717E-004	10	..........a	-327.74
	2457	3.52313	-3.58149E-002	8.76870E-005	0.00000E+000	-3.48000E-002	-8.07050E-004	10	..........a	-327.74
	2464	3.53317	-2.88208E-002	8.75101E-005	0.00000E+000	-2.77500E-002	-8.40383E-004	10	..........a	-327.74
	2471	3.5432	-2.17972E-002	8.66254E-005	0.00000E+000	-2.07500E-002	-8.07050E-004	10	..........a	-327.74
	2478	3.55323	-1.47678E-002	8.46202E-005	0.00000E+000	-1.37000E-002	-8.51494E-004	10	..........a	-327.74
	2485	3.56327	-7.76782E-003	8.39125E-005	0.00000E+000	-6.70001E-003	-8.62605E-004	10	..........a	-327.74
	2492	3.5733	-5.97233E-004	8.33817E-005	0.00000E+000	3.49998E-004	-8.07050E-004	10	..........a	-327.74
	2499	3.58333	6.27335E-003	8.30279E-005	0.00000E+000	7.35000E-003	-9.07050E-004	10	..........a	-327.74
	2506	3.59337	1.33616E-002	8.29099E-005	0.00000E+000	1.44000E-002	-9.18161E-004	10	..........a	-327.74
	2513	3.6034	2.03851E-002	8.21432E-005	0.00000E+000	2.14000E-002	-8.29272E-004	10	..........a	-327.74
	2520	3.61343	2.74322E-002	8.00791E-005	0.00000E+000	2.84500E-002	-8.40383E-004	10	..........a	-327.74
	2527	3.62347	3.43910E-002	8.04329E-005	0.00000E+000	3.54500E-002	-8.40383E-004	10	..........a	-327.74
	2534	3.6335	4.14322E-002	7.99022E-005	0.00000E+000	4.25000E-002	-8.51494E-004	10	..........a	-327.74
	2541	3.64353	4.84734E-002	7.83098E-005	0.00000E+000	4.95000E-002	-9.07050E-004	10	..........a	-327.74
	2548	3.65357	5.54969E-002	7.73072E-005	0.00000E+000	5.65500E-002	-8.29272E-004	10	..........a	-327.74
	2555	3.6636	6.24969E-002	7.77200E-005	0.00000E+000	6.35500E-002	-8.07050E-004	10	..........a	-327.74
	2562	3.67363	6.94969E-002	7.60097E-005	0.00000E+000	7.05500E-002	-8.73717E-004	10	..........a	-327.74
	2569	3.68367	7.65204E-002	7.60097E-005	0.00000E+000	7.76000E-002	-8.18161E-004	10	..........a	-327.74
	2576	3.6937	8.35792E-002	7.50661E-005	0.00000E+000	8.46000E-002	-8.40383E-004	10	..........a	-327.74
	2583	3.70373	9.05969E-002	7.44174E-005	0.00000E+000	9.16500E-002	-7.95939E-004	10	..........a	-327.74
	2590	3.71377	9.76263E-002	7.30020E-005	0.00000E+000	9.86500E-002	-8.07050E-004	10	..........a	-327.74
	2597	3.7238	1.04615E-001	7.25301E-005	0.00000E+000	1.05700E-001	-8.62605E-004	10	..........a	-327.74
	2604	3.73383	1.11632E-001	7.21173E-005	0.00000E+000	1.12700E-001	-8.18161E-004	10	..........a	-327.74
	2611	3.74387	1.18626E-001	7.05250E-005	0.00000E+000	1.19750E-001	-8.51494E-004	10	..........a	-327.74
	2618	3.7539	1.25715E-001	6.93454E-005	0.00000E+000	1.26750E-001	-8.95939E-004	10	..........a	-327.74
	2625	3.76393	1.32685E-001	6.91095E-005	0.00000E+000	1.33800E-001	-8.62605E-004	10	..........a	-327.74
	2632	3.77397	1.39697E-001	6.78710E-005	0.00000E+000	1.40800E-001	-8.73717E-004	10	..........a	-327.74
	2639	3.784	1.46762E-001	6.67505E-005	0.00000E+000	1.47850E-001	-8.73717E-004	10	..........a	-327.74
	2646	3.79403	1.53720E-001	6.58069E-005	0.00000E+000	1.54850E-001	-9.18161E-004	10	..........a	-327.74
	2653	3.80407	1.60856E-001	6.54530E-005	0.00000E+000	1.61900E-001	-8.51494E-004	10	..........a	-327.74
	2660	3.8141	1.67762E-001	6.49222E-005	0.00000E+000	1.68900E-001	-8.40383E-004	10	..........a	-327.74
	2667	3.82413	1.74756E-001	6.35658E-005	0.00000E+000	1.75900E-001	-8.29272E-004	10	..........a	-327.74
	2674	3.83417	1.81867E-001	6.32709E-005	0.00000E+000	1.82950E-001	-8.51494E-004	10	..........a	-327.74
	2681	3.8442	1.88850E-001	6.29760E-005	0.00000E+000	1.89950E-001	-8.95939E-004	10	..........a	-327.74
	2688	3.85423	1.95803E-001	6.07349E-005	0.00000E+000	1.97000E-001	-7.73717E-004	10	..........a	-327.74
	2695	3.86427	2.02885E-001	6.05580E-005	0.00000E+000	2.04000E-001	-8.51494E-004	10	..........a	-327.74
	2702	3.8743	2.09938E-001	6.07939E-005	0.00000E+000	2.11050E-001	-8.51494E-004	10	..........a	-327.74
	2709	3.88433	2.16932E-001	5.94374E-005	0.00000E+000	2.18050E-001	-9.07050E-004	10	..........a	-327.74
	2716	3.89437	2.23956E-001	6.00272E-005	0.00000E+000	2.25100E-001	-8.84828E-004	10	..........a	-327.74
	2723	3.9044	2.30979E-001	5.73733E-005	0.00000E+000	2.32100E-001	-8.18161E-004	10	..........a	-327.74
	2730	3.91443	2.38026E-001	5.81989E-005	0.00000E+000	2.39150E-001	-9.07050E-004	10	..........a	-327.74
	2737	3.92447	2.44915E-001	5.74912E-005	0.00000E+000	2.46150E-001	-8.40383E-004	10	..........a	-327.74
	2744	3.9345	2.52126E-001	5.72553E-005	0.00000E+000	2.53200E-001	-8.95939E-004	10	..........a	-327.74
	2751	3.94453	2.58997E-001	5.61938E-005	0.00000E+000	2.60200E-001	-8.73717E-004	10	..........a	-327.74
	2758	3.95457	2.66073E-001	5.57219E-005	0.00000E+000	2.67250E-001	-8.40383E-004	10	..........a	-327.74
	2765	3.9646	2.73126E-001	5.58399E-005	0.00000E+000	2.74250E-001	-7.95939E-004	10	..........a	-327.74
	2772	3.97463	2.80044E-001	5.52501E-005	0.00000E+000	2.81250E-001	-8.95939E-004	10	..........a	-327.74
	2779	3.98467	2.87138E-001	5.38937E-005	0.00000E+000	2.88300E-001	-8.51494E-004	10	..........a	-327.74
	2786	3.9947	2.94115E-001	5.41886E-005	0.00000E+000	2.95300E-001	-8.18161E-004	10	..........a	-327.74
	2793	4.00473	3.01173E-001	5.43065E-005	0.00000E+000	3.02350E-001	-8.40383E-004	10	..........a	-327.74
	2800	4.01477	3.08226E-001	5.34808E-005	0.00000E+000	3.09350E-001	-8.95939E-004	10	..........a	-327.74
	2807	4.0248	3.15226E-001	5.33629E-005	0.00000E+000	3.16400E-001	-8.95939E-004	10	..........a	-327.74
	2814	4.03483	3.22262E-001	5.34808E-005	0.00000E+000	3.23400E-001	-8.40383E-004	10	..........a	-327.74
	2821	4.04487	3.29232E-001	5.20654E-005	0.00000E+000	3.30450E-001	-8.40383E-004	10	..........a	-327.74
	2828	4.0549	3.36244E-001	5.11808E-005	0.00000E+000	3.37450E-001	-8.73717E-004	10	..........a	-327.74
	2835	4.06493	3.43362E-001	5.24783E-005	0.00000E+000	3.44500E-001	-8.62605E-004	10	..........a	-327.74
	2842	4.07497	3.50320E-001	5.15346E-005	0.00000E+000	3.51500E-001	-8.07050E-004	10	..........a	-327.74
	2849	4.085	3.57344E-001	5.16526E-005	0.00000E+000	3.58550E-001	-8.62605E-004	10	..........a	-327.74
	2856	4.09503	3.64362E-001	5.26552E-005	0.00000E+000	3.65550E-001	-8.40383E-004	10	..........a	-327.74
	2863	4.10507	3.71397E-001	5.11808E-005	0.00000E+000	3.72600E-001	-8.51494E-004	10	..........a	-327.74
	2870	4.1151	3.78432E-001	5.15936E-005	0.00000E+000	3.79600E-001	-8.62605E-004	10	..........a	-327.74
	2877	4.12513	3.85415E-001	5.02372E-005	0.00000E+000	3.86600E-001	-8.40383E-004	10	..........a	-327.74
	2884	4.13517	3.92467E-001	5.07090E-005	0.00000E+000	3.93650E-001	-8.73717E-004	10	..........a	-327.74
	2891	4.1452	3.99479E-001	4.97064E-005	0.00000E+000	4.00650E-001	-8.62605E-004	10	..........a	-327.74
	2898	4.15523	4.06473E-001	5.01192E-005	0.00000E+000	4.07700E-001	-8.18161E-004	10	..........a	-327.74
	2905	4.16527	4.13497E-001	4.85858E-005	0.00000E+000	4.14700E-001	-8.40383E-004	10	..........a	-327.74
	2912	4.1753	4.20526E-001	5.01192E-005	0.00000E+000	4.21750E-001	-8.51494E-004	10	..........a	-327.74
	2919	4.18533	4.27503E-001	4.97064E-005	0.00000E+000	4.28750E-001	-8.62605E-004	10	..........a	-327.74
	2926	4.19537	4.34632E-001	4.87038E-005	0.00000E+000	4.35800E-001	-8.51494E-004	10	..........a	-327.74
	2933	4.2054	4.41532E-001	4.78781E-005	0.00000E+000	4.42800E-001	-8.62605E-004	10	..........a	-327.74
	2940	4.21543	4.48615E-001	4.73473E-005	0.00000E+000	4.49850E-001	-8.73717E-004	10	..........a	-327.74
	2947	4.22547	4.55615E-001	4.69345E-005	0.00000E+000	4.56850E-001	-8.40383E-004	10	..........a	-327.74
	2954	4.2355	4.62662E-001	4.71114E-005	0.00000E+000	4.63900E-001	-8.07050E-004	10	..........a	-327.74
	2961	4.24553	4.69667E-001	4.75832E-005	0.00000E+000	4.70900E-001	-8.51494E-004	10	..........a	-327.74
	2968	4.25557	4.76662E-001	4.63447E-005	0.00000E+000	4.77950E-001	-8.40383E-004	10	..........a	-327.74
	2975	4.2656	4.83691E-001	4.72884E-005	0.00000E+000	4.84950E-001	-8.29272E-004	10	..........a	-327.74
	2982	4.27563	4.90738E-001	4.62858E-005	0.00000E+000	4.91950E-001	-8.73717E-004	10	..........a	-327.74
	2989	4.28567	4.97732E-001	4.62268E-005	0.00000E+000	4.99000E-001	-8.29272E-004	10	..........a	-327.74
	2990	4.2871	4.98797E-001	4.59319E-005	0.00000E+000	5.00000E-001	-8.73717E-004	10	..........a	-327.74
CURVE2	TABLE
	Pt	T	Vf	Im	Vu	Sig	Ach	IERange	Over	Temp
	#	s	V vs. Ref.	A	V	V	V	#	bits	deg C
	2991	4.28853	4.98744E-001	4.43396E-005	0.00000E+000	5.00000E-001	-8.84828E-004	10	..........a	-327.74