File: data/02-SI/Figures_S9_S11_RDE/18btmapaq-rde/1mkcl-18btmapaq-nitrogen-50mvpers.DTA
EXPLAIN
TAG	CV
TITLE	LABEL	Cyclic Voltammetry	Test &Identifier
DATE	LABEL	1/31/2023	Date
TIME	LABEL	15:18:21	Time
NOTES	NOTES	1	&Notes...

PSTAT	PSTAT	REF3000-21108	Potentiostat
VINIT	POTEN	5.00000E-001	F	Initial &E (V)
VLIMIT1	POTEN	-1.00000E+000	F	Scan Limit &1 (V)
VLIMIT2	POTEN	5.00000E-001	F	Scan Limit &2 (V)
VFINAL	POTEN	5.00000E-001	F	Final &E (V)
SCANRATE	QUANT	4.99999E+001	&Scan Rate (mV/s)
STEPSIZE	QUANT	1.00000E+000	St&ep Size (mV)
CYCLES	IQUANT	1	C&ycles (#)
IMODE	SELECTOR	1	I/E Range &Mode
IRANGE	QUANT	1.00000E+001	&Max Current (mA)
AREA	QUANT	1.00000E+000	Electrode &Area (cm^2)
ELECTRODETYPE	SELECTOR	0	Electrode Type
STRIPPING	TOGGLE	F	Used for Stripping
POLARITY	TOGGLE	F	Signal Polarity
CONDIT	TWOPARAM	F	1.50000E+001	0.00000E+000	Conditionin&g	Time(s)	E(V)
DELAY	TWOPARAM	F	5.00000E+000	0.00000E+000	Init. De&lay	Time(s)	Stab.(mV/s)
EQDELAY	QUANT	0.00000E+000	Equil. &Time (s)
IRCOMP	SELECTOR	0	IRCom&p
PFCOR	QUANT	5.00000E+001	PF Corr. (ohm)
SAMPLINGMODE	SELECTOR	1	Sampling &Mode
EOC	QUANT	0	Open Circuit (V)
PSTATMODEL	IQUANT	5	Pstat Model
PSTATSECTION	LABEL	REF3000-21108	Pstat Section
PSTATSERIALNO	LABEL	21108	Pstat Serial Number
CTRLMODE	IQUANT	1	Control Mode
ELECTROMETER	IQUANT	0	RE=0 or CS=1
IESTAB	IQUANT	2	I/E Stability
CASPEED	IQUANT	4	Control Amp Speed
CONVENTION	IQUANT	1	Current Convention
ICHRANGE	IQUANT	2	Ich Range
ICHRANGEMODE	TOGGLE	F	Ich Auto Range
ICHOFFSETENABLE	TOGGLE	F	Ich Offset Enable
ICHOFFSET	QUANT	0	Ich Offset (V)
ICHFILTER	IQUANT	2	Ich Filter
VCHRANGE	IQUANT	2	Vch Range
VCHRANGEMODE	TOGGLE	F	Vch Auto Range
VCHOFFSETENABLE	TOGGLE	F	Vch Offset Enable
VCHOFFSET	QUANT	0	Vch Offset (V)
VCHFILTER	IQUANT	2	Vch Filter
ACHRANGE	IQUANT	2	Ach Range
ACHOFFSETENABLE	TOGGLE	F	Ach Offset Enable
ACHOFFSET	QUANT	0	Ach Offset (V)
ACHFILTER	IQUANT	0	Ach Filter
IERANGELOWERLIMIT	IQUANT	2	I/E Range Lower Limit
IERANGEMODE	TOGGLE	F	I/E AutoRange
IERANGE	IQUANT	10	I/E Range
POSFEEDENABLE	TOGGLE	F	Positive Feedback IR Comp
POSFEEDRESISTANCE	QUANT	0	Positive Feedback Resistance (ohm)
ACHSELECT	IQUANT	0	Ach Select
SENSECABLEID	IQUANT	14	Sense Cable ID
PWRCABLEID	IQUANT	7	Power Cable ID
DCCALDATE	LABEL	11/9/2022	DC Calibration Date
ACCALDATE	LABEL	11/9/2022	AC Calibration Date
THERMOSELECT	IQUANT	1	Thermo Select
FRAMEWORKVERSION	LABEL	7.8.2	Framework Version
INSTRUMENTVERSION	LABEL	4.40	Instrument Version
COMPLIANCEVOLTAGE	IQUANT	0	Compliance Voltage
CURVE1	TABLE
	Pt	T	Vf	Im	Vu	Sig	Ach	IERange	Over	Temp
	#	s	V vs. Ref.	A	V	V	V	#	bits	deg C
	0	0.02	4.98820E-001	9.11539E-006	0.00000E+000	5.00000E-001	-7.28439E-004	10	..........a	-327.74
	7	0.16	4.91765E-001	2.96197E-006	0.00000E+000	4.93000E-001	-7.61772E-004	10	..........a	-327.74
	14	0.3	4.84839E-001	1.46226E-006	0.00000E+000	4.86000E-001	-7.38439E-004	10	..........a	-327.74
	21	0.44	4.77915E-001	5.97521E-007	0.00000E+000	4.79000E-001	-7.53439E-004	10	..........a	-327.74
	28	0.58	4.70829E-001	2.67500E-007	0.00000E+000	4.72000E-001	-7.46772E-004	10	..........a	-327.74
	35	0.72	4.63844E-001	8.78689E-008	0.00000E+000	4.65000E-001	-7.57606E-004	10	..........a	-327.74
	42	0.86	4.56940E-001	-4.03552E-009	0.00000E+000	4.58000E-001	-7.69272E-004	10	..........a	-327.74
	49	1	4.49832E-001	-1.66957E-007	0.00000E+000	4.51000E-001	-7.84272E-004	10	..........a	-327.74
	56	1.14	4.42819E-001	-2.83926E-007	0.00000E+000	4.44000E-001	-7.77606E-004	10	..........a	-327.74
	63	1.28	4.35844E-001	-3.59121E-007	0.00000E+000	4.37000E-001	-7.49272E-004	10	..........a	-327.74
	70	1.42	4.28822E-001	-4.55203E-007	0.00000E+000	4.30000E-001	-7.75105E-004	10	..........a	-327.74
	77	1.56	4.21876E-001	-5.93060E-007	0.00000E+000	4.23000E-001	-7.58439E-004	10	..........a	-327.74
	84	1.7	4.14825E-001	-7.85223E-007	0.00000E+000	4.16000E-001	-7.75105E-004	10	..........a	-327.74
	91	1.84	4.07844E-001	-6.18124E-007	0.00000E+000	4.09000E-001	-7.65106E-004	10	..........a	-327.74
	98	1.98	4.00925E-001	-6.97496E-007	0.00000E+000	4.02000E-001	-7.78439E-004	10	..........a	-327.74
	105	2.12	3.93845E-001	-6.30657E-007	0.00000E+000	3.95000E-001	-7.61772E-004	10	..........a	-327.74
	112	2.26	3.86831E-001	-8.35353E-007	0.00000E+000	3.88000E-001	-7.46772E-004	10	..........a	-327.74
	119	2.4	3.79839E-001	-8.98015E-007	0.00000E+000	3.81000E-001	-7.59272E-004	10	..........a	-327.74
	126	2.54	3.72804E-001	-8.68773E-007	0.00000E+000	3.74000E-001	-7.71772E-004	10	..........a	-327.74
	133	2.68	3.65877E-001	-7.97756E-007	0.00000E+000	3.67000E-001	-7.50105E-004	10	..........a	-327.74
	140	2.82	3.58806E-001	-9.18903E-007	0.00000E+000	3.60000E-001	-7.47606E-004	10	..........a	-327.74
	147	2.96	3.51838E-001	-8.81305E-007	0.00000E+000	3.53000E-001	-7.42605E-004	10	..........a	-327.74
	154	3.1	3.44897E-001	-9.77387E-007	0.00000E+000	3.46000E-001	-7.49272E-004	10	..........a	-327.74
	161	3.24	3.37857E-001	-9.48145E-007	0.00000E+000	3.39000E-001	-7.30106E-004	10	..........a	-327.74
	168	3.38	3.30891E-001	-8.93838E-007	0.00000E+000	3.32000E-001	-7.60106E-004	10	..........a	-327.74
	175	3.52	3.23850E-001	-1.01081E-006	0.00000E+000	3.25000E-001	-7.42605E-004	10	..........a	-327.74
	182	3.66	3.16868E-001	-9.94097E-007	0.00000E+000	3.18000E-001	-7.48439E-004	10	..........a	-327.74
	189	3.8	3.09894E-001	-1.16120E-006	0.00000E+000	3.11000E-001	-7.72606E-004	10	..........a	-327.74
	196	3.94	3.02884E-001	-1.33665E-006	0.00000E+000	3.04000E-001	-7.51772E-004	10	..........a	-327.74
	203	4.08	2.95819E-001	-1.22804E-006	0.00000E+000	2.97000E-001	-7.45106E-004	10	..........a	-327.74
	210	4.22	2.88932E-001	-1.42020E-006	0.00000E+000	2.90000E-001	-7.34272E-004	10	..........a	-327.74
	217	4.36	2.81863E-001	-1.49122E-006	0.00000E+000	2.83000E-001	-7.34272E-004	10	..........a	-327.74
	224	4.5	2.74893E-001	-1.62490E-006	0.00000E+000	2.76000E-001	-7.12606E-004	10	..........a	-327.74
	231	4.64	2.67893E-001	-1.17373E-006	0.00000E+000	2.69000E-001	-7.43439E-004	10	..........a	-327.74
	238	4.78	2.60901E-001	-1.07347E-006	0.00000E+000	2.62000E-001	-7.50939E-004	10	..........a	-327.74
	245	4.92	2.53922E-001	-1.27817E-006	0.00000E+000	2.55000E-001	-7.46772E-004	10	..........a	-327.74
	252	5.06	2.46889E-001	-1.43273E-006	0.00000E+000	2.48000E-001	-7.53439E-004	10	..........a	-327.74
	259	5.2	2.39887E-001	-1.28234E-006	0.00000E+000	2.41000E-001	-7.14272E-004	10	..........a	-327.74
	266	5.34	2.32994E-001	-1.37425E-006	0.00000E+000	2.34000E-001	-7.50939E-004	10	..........a	-327.74
	273	5.48	2.25881E-001	-1.26981E-006	0.00000E+000	2.27000E-001	-7.64272E-004	10	..........a	-327.74
	280	5.62	2.18902E-001	-1.33247E-006	0.00000E+000	2.20000E-001	-7.57606E-004	10	..........a	-327.74
	287	5.76	2.11918E-001	-1.55806E-006	0.00000E+000	2.13000E-001	-7.53439E-004	10	..........a	-327.74
	294	5.9	2.04934E-001	-1.47451E-006	0.00000E+000	2.06000E-001	-7.41772E-004	10	..........a	-327.74
	301	6.04	1.97958E-001	-1.56223E-006	0.00000E+000	1.99000E-001	-7.48439E-004	10	..........a	-327.74
	308	6.18	1.90931E-001	-1.50375E-006	0.00000E+000	1.92000E-001	-7.30106E-004	10	..........a	-327.74
	315	6.32	1.83929E-001	-1.51210E-006	0.00000E+000	1.85000E-001	-7.48439E-004	10	..........a	-327.74
	322	6.46	1.77041E-001	-1.31159E-006	0.00000E+000	1.78000E-001	-7.55939E-004	10	..........a	-327.74
	329	6.6	1.69926E-001	-1.26981E-006	0.00000E+000	1.71000E-001	-7.43439E-004	10	..........a	-327.74
	336	6.74	1.62933E-001	-1.51210E-006	0.00000E+000	1.64000E-001	-7.57606E-004	10	..........a	-327.74
	343	6.88	1.55944E-001	-1.45780E-006	0.00000E+000	1.57000E-001	-7.60106E-004	10	..........a	-327.74
	350	7.02	1.48950E-001	-1.54552E-006	0.00000E+000	1.50000E-001	-7.53439E-004	10	..........a	-327.74
	357	7.16	1.41934E-001	-1.63325E-006	0.00000E+000	1.43000E-001	-7.42605E-004	10	..........a	-327.74
	364	7.3	1.34952E-001	-1.77528E-006	0.00000E+000	1.36000E-001	-7.39272E-004	10	..........a	-327.74
	371	7.44	1.27961E-001	-1.73769E-006	0.00000E+000	1.29000E-001	-7.35106E-004	10	..........a	-327.74
	378	7.58	1.21057E-001	-1.73769E-006	0.00000E+000	1.22000E-001	-7.40106E-004	10	..........a	-327.74
	385	7.72	1.13991E-001	-1.81706E-006	0.00000E+000	1.15000E-001	-7.36772E-004	10	..........a	-327.74
	392	7.86	1.06954E-001	-1.71262E-006	0.00000E+000	1.08000E-001	-7.48439E-004	10	..........a	-327.74
	399	8	1.00042E-001	-1.67503E-006	0.00000E+000	1.01000E-001	-7.38439E-004	10	..........a	-327.74
	406	8.14	9.29623E-002	-2.02593E-006	0.00000E+000	9.40000E-002	-7.20106E-004	10	..........a	-327.74
	413	8.28	8.59831E-002	-1.53717E-006	0.00000E+000	8.70000E-002	-7.55939E-004	10	..........a	-327.74
	420	8.42	7.89665E-002	-1.68756E-006	0.00000E+000	8.00000E-002	-7.31772E-004	10	..........a	-327.74
	427	8.56	7.19877E-002	-1.66667E-006	0.00000E+000	7.30000E-002	-7.24272E-004	10	..........a	-327.74
	434	8.7	6.50673E-002	-1.57894E-006	0.00000E+000	6.60000E-002	-7.10106E-004	10	..........a	-327.74
	441	8.84	5.79786E-002	-1.61236E-006	0.00000E+000	5.90000E-002	-7.50105E-004	10	..........a	-327.74
	448	8.98	5.09765E-002	-1.65832E-006	0.00000E+000	5.20000E-002	-7.34272E-004	10	..........a	-327.74
	455	9.12	4.40898E-002	-1.78364E-006	0.00000E+000	4.50000E-002	-7.18439E-004	10	..........a	-327.74
	462	9.26	3.70106E-002	-1.86719E-006	0.00000E+000	3.80000E-002	-7.33439E-004	10	..........a	-327.74
	469	9.4	3.00077E-002	-1.92150E-006	0.00000E+000	3.10000E-002	-7.42605E-004	10	..........a	-327.74
	476	9.54	2.29786E-002	-1.89643E-006	0.00000E+000	2.40000E-002	-7.23439E-004	10	..........a	-327.74
	483	9.68	1.59465E-002	-1.73351E-006	0.00000E+000	1.70000E-002	-7.40939E-004	10	..........a	-327.74
	490	9.82	9.03981E-003	-1.87554E-006	0.00000E+000	9.99999E-003	-7.37606E-004	10	..........a	-327.74
	497	9.96	1.99689E-003	-1.83795E-006	0.00000E+000	2.99999E-003	-7.42605E-004	10	..........a	-327.74
	504	10.1	-5.04519E-003	-1.82541E-006	0.00000E+000	-4.00001E-003	-7.30939E-004	10	..........a	-327.74
	511	10.24	-1.19835E-002	-2.03847E-006	0.00000E+000	-1.10000E-002	-7.07606E-004	10	..........a	-327.74
	518	10.38	-1.90019E-002	-1.77111E-006	0.00000E+000	-1.80000E-002	-7.37606E-004	10	..........a	-327.74
	525	10.52	-2.59652E-002	-1.90896E-006	0.00000E+000	-2.50000E-002	-7.59272E-004	10	..........a	-327.74
	532	10.66	-3.30189E-002	-1.94656E-006	0.00000E+000	-3.20000E-002	-7.38439E-004	10	..........a	-327.74
	539	10.8	-3.99669E-002	-1.99251E-006	0.00000E+000	-3.90000E-002	-7.61772E-004	10	..........a	-327.74
	546	10.94	-4.69385E-002	-1.88808E-006	0.00000E+000	-4.60000E-002	-7.43439E-004	10	..........a	-327.74
	553	11.08	-5.39723E-002	-1.94238E-006	0.00000E+000	-5.30000E-002	-7.35106E-004	10	..........a	-327.74
	560	11.22	-6.10656E-002	-2.23898E-006	0.00000E+000	-6.00000E-002	-7.15106E-004	10	..........a	-327.74
	567	11.36	-6.79377E-002	-2.18468E-006	0.00000E+000	-6.70000E-002	-7.30106E-004	10	..........a	-327.74
	574	11.5	-7.49777E-002	-2.17215E-006	0.00000E+000	-7.40000E-002	-7.04272E-004	10	..........a	-327.74
	581	11.64	-8.19535E-002	-2.23481E-006	0.00000E+000	-8.10000E-002	-7.14272E-004	10	..........a	-327.74
	588	11.78	-8.90631E-002	-2.39773E-006	0.00000E+000	-8.80000E-002	-7.25106E-004	10	..........a	-327.74
	595	11.92	-9.59656E-002	-2.45204E-006	0.00000E+000	-9.50000E-002	-7.39272E-004	10	..........a	-327.74
	602	12.06	-1.02897E-001	-2.29329E-006	0.00000E+000	-1.02000E-001	-7.09272E-004	10	..........a	-327.74
	609	12.2	-1.09958E-001	-2.51052E-006	0.00000E+000	-1.09000E-001	-7.17605E-004	10	..........a	-327.74
	616	12.34	-1.16974E-001	-2.45204E-006	0.00000E+000	-1.16000E-001	-7.15106E-004	10	..........a	-327.74
	623	12.48	-1.23914E-001	-2.51052E-006	0.00000E+000	-1.23000E-001	-7.25939E-004	10	..........a	-327.74
	630	12.62	-1.30950E-001	-2.49381E-006	0.00000E+000	-1.30000E-001	-7.25939E-004	10	..........a	-327.74
	637	12.76	-1.37941E-001	-2.64838E-006	0.00000E+000	-1.37000E-001	-7.34272E-004	10	..........a	-327.74
	644	12.9	-1.44961E-001	-2.48546E-006	0.00000E+000	-1.44000E-001	-7.25939E-004	10	..........a	-327.74
	651	13.04	-1.51942E-001	-2.32671E-006	0.00000E+000	-1.51000E-001	-7.35939E-004	10	..........a	-327.74
	658	13.18	-1.58873E-001	-2.52305E-006	0.00000E+000	-1.58000E-001	-7.20106E-004	10	..........a	-327.74
	665	13.32	-1.65974E-001	-2.72775E-006	0.00000E+000	-1.65000E-001	-7.18439E-004	10	..........a	-327.74
	672	13.46	-1.72974E-001	-2.99929E-006	0.00000E+000	-1.72000E-001	-7.07606E-004	10	..........a	-327.74
	679	13.6	-1.79856E-001	-3.23740E-006	0.00000E+000	-1.79000E-001	-7.20939E-004	10	..........a	-327.74
	686	13.74	-1.86958E-001	-3.07866E-006	0.00000E+000	-1.86000E-001	-7.18439E-004	10	..........a	-327.74
	693	13.88	-1.93930E-001	-3.52982E-006	0.00000E+000	-1.93000E-001	-7.15106E-004	10	..........a	-327.74
	700	14.02	-2.00971E-001	-3.73452E-006	0.00000E+000	-2.00000E-001	-7.00106E-004	10	..........a	-327.74
	707	14.16	-2.07915E-001	-3.94757E-006	0.00000E+000	-2.07000E-001	-7.11772E-004	10	..........a	-327.74
	714	14.3	-2.14913E-001	-4.03530E-006	0.00000E+000	-2.14000E-001	-7.02605E-004	10	..........a	-327.74
	721	14.44	-2.21919E-001	-4.37785E-006	0.00000E+000	-2.21000E-001	-7.06772E-004	10	..........a	-327.74
	728	14.58	-2.28977E-001	-4.66610E-006	0.00000E+000	-2.28000E-001	-7.20939E-004	10	..........a	-327.74
	735	14.72	-2.35837E-001	-5.37209E-006	0.00000E+000	-2.35000E-001	-6.90105E-004	10	..........a	-327.74
	742	14.86	-2.42889E-001	-5.98200E-006	0.00000E+000	-2.42000E-001	-7.04272E-004	10	..........a	-327.74
	749	15	-2.49881E-001	-6.68382E-006	0.00000E+000	-2.49000E-001	-6.87606E-004	10	..........a	-327.74
	756	15.14	-2.56858E-001	-7.49007E-006	0.00000E+000	-2.56000E-001	-6.95939E-004	10	..........a	-327.74
	763	15.28	-2.63910E-001	-8.32557E-006	0.00000E+000	-2.63000E-001	-7.00106E-004	10	..........a	-327.74
	770	15.42	-2.70867E-001	-8.99814E-006	0.00000E+000	-2.70000E-001	-7.15106E-004	10	..........a	-327.74
	777	15.56	-2.77889E-001	-9.62058E-006	0.00000E+000	-2.77000E-001	-7.12606E-004	10	..........a	-327.74
	784	15.7	-2.84889E-001	-1.01511E-005	0.00000E+000	-2.84000E-001	-7.14272E-004	10	..........a	-327.74
	791	15.84	-2.91804E-001	-1.07276E-005	0.00000E+000	-2.91000E-001	-7.45106E-004	10	..........a	-327.74
	798	15.98	-2.98898E-001	-1.13083E-005	0.00000E+000	-2.98000E-001	-7.44272E-004	10	..........a	-327.74
	805	16.12	-3.05922E-001	-1.16383E-005	0.00000E+000	-3.05000E-001	-7.61772E-004	10	..........a	-327.74
	812	16.26	-3.12923E-001	-1.19265E-005	0.00000E+000	-3.12000E-001	-7.54272E-004	10	..........a	-327.74
	819	16.4	-3.19868E-001	-1.21354E-005	0.00000E+000	-3.19000E-001	-7.63439E-004	10	..........a	-327.74
	826	16.54	-3.26870E-001	-1.22900E-005	0.00000E+000	-3.26000E-001	-7.51772E-004	10	..........a	-327.74
	833	16.68	-3.33905E-001	-1.29375E-005	0.00000E+000	-3.33000E-001	-7.50939E-004	10	..........a	-327.74
	840	16.82	-3.40883E-001	-1.31130E-005	0.00000E+000	-3.40000E-001	-7.44272E-004	10	..........a	-327.74
	847	16.96	-3.47814E-001	-1.31756E-005	0.00000E+000	-3.47000E-001	-7.40106E-004	10	..........a	-327.74
	854	17.1	-3.54903E-001	-1.33511E-005	0.00000E+000	-3.54000E-001	-7.36772E-004	10	..........a	-327.74
	861	17.24	-3.61879E-001	-1.34221E-005	0.00000E+000	-3.61000E-001	-7.33439E-004	10	..........a	-327.74
	868	17.38	-3.68801E-001	-1.35098E-005	0.00000E+000	-3.68000E-001	-7.55939E-004	10	..........a	-327.74
	875	17.52	-3.75846E-001	-1.32633E-005	0.00000E+000	-3.75000E-001	-7.16772E-004	10	..........a	-327.74
	882	17.66	-3.82878E-001	-1.32759E-005	0.00000E+000	-3.82000E-001	-7.42605E-004	10	..........a	-327.74
	889	17.8	-3.89877E-001	-1.31965E-005	0.00000E+000	-3.89000E-001	-7.50939E-004	10	..........a	-327.74
	896	17.94	-3.96852E-001	-1.29960E-005	0.00000E+000	-3.96000E-001	-7.53439E-004	10	..........a	-327.74
	903	18.08	-4.03801E-001	-1.32299E-005	0.00000E+000	-4.03000E-001	-7.60939E-004	10	..........a	-327.74
	910	18.22	-4.10857E-001	-1.30503E-005	0.00000E+000	-4.10000E-001	-7.55939E-004	10	..........a	-327.74
	917	18.36	-4.17873E-001	-1.31338E-005	0.00000E+000	-4.17000E-001	-7.52606E-004	10	..........a	-327.74
	924	18.5	-4.24842E-001	-1.32926E-005	0.00000E+000	-4.24000E-001	-7.42605E-004	10	..........a	-327.74
	931	18.64	-4.31844E-001	-1.35808E-005	0.00000E+000	-4.31000E-001	-7.22606E-004	10	..........a	-327.74
	938	18.78	-4.38793E-001	-1.44706E-005	0.00000E+000	-4.38000E-001	-7.25939E-004	10	..........a	-327.74
	945	18.92	-4.45786E-001	-1.58534E-005	0.00000E+000	-4.45000E-001	-7.25106E-004	10	..........a	-327.74
	952	19.06	-4.52813E-001	-1.85102E-005	0.00000E+000	-4.52000E-001	-7.00106E-004	10	..........a	-327.74
	959	19.2	-4.59843E-001	-2.16475E-005	0.00000E+000	-4.59000E-001	-6.90105E-004	10	..........a	-327.74
	966	19.34	-4.66821E-001	-2.71493E-005	0.00000E+000	-4.66000E-001	-7.52606E-004	10	..........a	-327.74
	973	19.48	-4.73841E-001	-3.35492E-005	0.00000E+000	-4.73000E-001	-7.40939E-004	10	..........a	-327.74
	980	19.62	-4.80825E-001	-4.24806E-005	0.00000E+000	-4.80000E-001	-7.42605E-004	10	..........a	-327.74
	987	19.76	-4.87865E-001	-5.31582E-005	0.00000E+000	-4.87000E-001	-6.86772E-004	10	..........a	-327.74
	994	19.9	-4.94819E-001	-6.72280E-005	0.00000E+000	-4.94000E-001	-6.97606E-004	10	..........a	-327.74
	1001	20.04	-5.01837E-001	-8.39629E-005	0.00000E+000	-5.01000E-001	-6.82606E-004	10	..........a	-327.74
	1008	20.18	-5.08825E-001	-1.03722E-004	0.00000E+000	-5.08000E-001	-7.10106E-004	10	..........a	-327.74
	1015	20.32	-5.15726E-001	-1.25871E-004	0.00000E+000	-5.15000E-001	-7.55105E-004	10	..........a	-327.74
	1022	20.46	-5.22865E-001	-1.50222E-004	0.00000E+000	-5.22000E-001	-7.02605E-004	10	..........a	-327.74
	1029	20.6	-5.29837E-001	-1.73470E-004	0.00000E+000	-5.29000E-001	-7.21772E-004	10	..........a	-327.74
	1036	20.74	-5.36790E-001	-1.93095E-004	0.00000E+000	-5.36000E-001	-7.60106E-004	10	..........a	-327.74
	1043	20.88	-5.43809E-001	-2.06204E-004	0.00000E+000	-5.43000E-001	-7.59272E-004	10	..........a	-327.74
	1050	21.02	-5.50776E-001	-2.10511E-004	0.00000E+000	-5.50000E-001	-7.36772E-004	10	..........a	-327.74
	1057	21.16	-5.57808E-001	-2.06760E-004	0.00000E+000	-5.57000E-001	-7.30106E-004	10	..........a	-327.74
	1064	21.3	-5.64792E-001	-1.96838E-004	0.00000E+000	-5.64000E-001	-7.04272E-004	10	..........a	-327.74
	1071	21.44	-5.71728E-001	-1.85091E-004	0.00000E+000	-5.71000E-001	-7.13439E-004	10	..........a	-327.74
	1078	21.58	-5.78804E-001	-1.73010E-004	0.00000E+000	-5.78000E-001	-7.59272E-004	10	..........a	-327.74
	1085	21.72	-5.85818E-001	-1.62545E-004	0.00000E+000	-5.85000E-001	-7.13439E-004	10	..........a	-327.74
	1092	21.86	-5.92705E-001	-1.54771E-004	0.00000E+000	-5.92000E-001	-7.30939E-004	10	..........a	-327.74
	1099	22	-5.99788E-001	-1.47565E-004	0.00000E+000	-5.99000E-001	-7.25939E-004	10	..........a	-327.74
	1106	22.14	-6.06796E-001	-1.41169E-004	0.00000E+000	-6.06000E-001	-7.69272E-004	10	..........a	-327.74
	1113	22.28	-6.13743E-001	-1.36474E-004	0.00000E+000	-6.13000E-001	-7.27605E-004	10	..........a	-327.74
	1120	22.42	-6.20738E-001	-1.30496E-004	0.00000E+000	-6.20000E-001	-7.22606E-004	10	..........a	-327.74
	1127	22.56	-6.27720E-001	-1.26193E-004	0.00000E+000	-6.27000E-001	-7.45106E-004	10	..........a	-327.74
	1134	22.7	-6.34763E-001	-1.22183E-004	0.00000E+000	-6.34000E-001	-7.21772E-004	10	..........a	-327.74
	1141	22.84	-6.41701E-001	-1.18899E-004	0.00000E+000	-6.41000E-001	-6.95939E-004	10	..........a	-327.74
	1148	22.98	-6.48715E-001	-1.15423E-004	0.00000E+000	-6.48000E-001	-7.15939E-004	10	..........a	-327.74
	1155	23.12	-6.55740E-001	-1.12733E-004	0.00000E+000	-6.55000E-001	-7.52606E-004	10	..........a	-327.74
	1162	23.26	-6.62740E-001	-1.10966E-004	0.00000E+000	-6.62000E-001	-7.07606E-004	10	..........a	-327.74
	1169	23.4	-6.69818E-001	-1.08522E-004	0.00000E+000	-6.69000E-001	-7.55105E-004	10	..........a	-327.74
	1176	23.54	-6.76786E-001	-1.07165E-004	0.00000E+000	-6.76000E-001	-7.46772E-004	10	..........a	-327.74
	1183	23.68	-6.83707E-001	-1.05602E-004	0.00000E+000	-6.83000E-001	-7.19272E-004	10	..........a	-327.74
	1190	23.82	-6.90733E-001	-1.04044E-004	0.00000E+000	-6.90000E-001	-7.13439E-004	10	..........a	-327.74
	1197	23.96	-6.97733E-001	-1.01650E-004	0.00000E+000	-6.97000E-001	-6.99272E-004	10	..........a	-327.74
	1204	24.1	-7.04729E-001	-1.01028E-004	0.00000E+000	-7.04000E-001	-6.89272E-004	10	..........a	-327.74
	1211	24.24	-7.11726E-001	-1.00159E-004	0.00000E+000	-7.11000E-001	-7.06772E-004	10	..........a	-327.74
	1218	24.38	-7.18730E-001	-9.98039E-005	0.00000E+000	-7.18000E-001	-6.90939E-004	10	..........a	-327.74
	1225	24.52	-7.25778E-001	-9.91606E-005	0.00000E+000	-7.25000E-001	-6.97606E-004	10	..........a	-327.74
	1232	24.66	-7.32710E-001	-9.85047E-005	0.00000E+000	-7.32000E-001	-7.13439E-004	10	..........a	-327.74
	1239	24.8	-7.39701E-001	-9.74395E-005	0.00000E+000	-7.39000E-001	-7.37606E-004	10	..........a	-327.74
	1246	24.94	-7.46701E-001	-9.68630E-005	0.00000E+000	-7.46000E-001	-7.58439E-004	10	..........a	-327.74
	1253	25.08	-7.53707E-001	-9.64661E-005	0.00000E+000	-7.53000E-001	-7.46772E-004	10	..........a	-327.74
	1260	25.22	-7.60673E-001	-9.58771E-005	0.00000E+000	-7.60000E-001	-7.56772E-004	10	..........a	-327.74
	1267	25.36	-7.67708E-001	-9.51043E-005	0.00000E+000	-7.67000E-001	-7.54272E-004	10	..........a	-327.74
	1274	25.5	-7.74688E-001	-9.50291E-005	0.00000E+000	-7.74000E-001	-7.36772E-004	10	..........a	-327.74
	1281	25.64	-7.81664E-001	-9.45278E-005	0.00000E+000	-7.81000E-001	-7.38439E-004	10	..........a	-327.74
	1288	25.78	-7.88700E-001	-9.47617E-005	0.00000E+000	-7.88000E-001	-7.43439E-004	10	..........a	-327.74
	1295	25.92	-7.95653E-001	-9.40390E-005	0.00000E+000	-7.95000E-001	-7.36772E-004	10	..........a	-327.74
	1302	26.06	-8.02671E-001	-9.40181E-005	0.00000E+000	-8.02000E-001	-7.42605E-004	10	..........a	-327.74
	1309	26.2	-8.09697E-001	-9.39680E-005	0.00000E+000	-8.09000E-001	-7.40106E-004	10	..........a	-327.74
	1316	26.34	-8.16635E-001	-9.31534E-005	0.00000E+000	-8.16000E-001	-7.62605E-004	10	..........a	-327.74
	1323	26.48	-8.23650E-001	-9.30322E-005	0.00000E+000	-8.23000E-001	-7.61772E-004	10	..........a	-327.74
	1330	26.62	-8.30711E-001	-9.25978E-005	0.00000E+000	-8.30000E-001	-7.72606E-004	10	..........a	-327.74
	1337	26.76	-8.37640E-001	-9.19670E-005	0.00000E+000	-8.37000E-001	-7.42605E-004	10	..........a	-327.74
	1344	26.9	-8.44645E-001	-9.24808E-005	0.00000E+000	-8.44000E-001	-7.31772E-004	10	..........a	-327.74
	1351	27.04	-8.51638E-001	-9.32327E-005	0.00000E+000	-8.51000E-001	-7.45939E-004	10	..........a	-327.74
	1358	27.18	-8.58629E-001	-9.35335E-005	0.00000E+000	-8.58000E-001	-7.71772E-004	10	..........a	-327.74
	1365	27.32	-8.65637E-001	-9.30197E-005	0.00000E+000	-8.65000E-001	-7.55105E-004	10	..........a	-327.74
	1372	27.46	-8.72557E-001	-9.30573E-005	0.00000E+000	-8.72000E-001	-7.32606E-004	10	..........a	-327.74
	1379	27.6	-8.79638E-001	-9.31534E-005	0.00000E+000	-8.79000E-001	-7.55939E-004	10	..........a	-327.74
	1386	27.74	-8.86647E-001	-9.28818E-005	0.00000E+000	-8.86000E-001	-7.44272E-004	10	..........a	-327.74
	1393	27.88	-8.93613E-001	-9.18960E-005	0.00000E+000	-8.93000E-001	-7.53439E-004	10	..........a	-327.74
	1400	28.02	-9.00636E-001	-9.08349E-005	0.00000E+000	-9.00000E-001	-7.46772E-004	10	..........a	-327.74
	1407	28.16	-9.07591E-001	-8.99868E-005	0.00000E+000	-9.07000E-001	-7.28439E-004	10	..........a	-327.74
	1414	28.3	-9.14614E-001	-8.92433E-005	0.00000E+000	-9.14000E-001	-6.96772E-004	10	..........a	-327.74
	1421	28.44	-9.21596E-001	-8.95023E-005	0.00000E+000	-9.21000E-001	-7.26772E-004	10	..........a	-327.74
	1428	28.58	-9.28547E-001	-8.95775E-005	0.00000E+000	-9.28000E-001	-7.10106E-004	10	..........a	-327.74
	1435	28.72	-9.35575E-001	-9.03837E-005	0.00000E+000	-9.35000E-001	-7.55939E-004	10	..........a	-327.74
	1442	28.86	-9.42629E-001	-9.02542E-005	0.00000E+000	-9.42000E-001	-7.40106E-004	10	..........a	-327.74
	1449	29	-9.49535E-001	-9.05633E-005	0.00000E+000	-9.49000E-001	-7.25939E-004	10	..........a	-327.74
	1456	29.14	-9.56644E-001	-9.15158E-005	0.00000E+000	-9.56000E-001	-7.35939E-004	10	..........a	-327.74
	1463	29.28	-9.63597E-001	-9.20547E-005	0.00000E+000	-9.63000E-001	-7.42605E-004	10	..........a	-327.74
	1470	29.42	-9.70647E-001	-9.29529E-005	0.00000E+000	-9.70000E-001	-7.17605E-004	10	..........a	-327.74
	1477	29.56	-9.77594E-001	-9.29570E-005	0.00000E+000	-9.77000E-001	-7.46772E-004	10	..........a	-327.74
	1484	29.7	-9.84536E-001	-9.24348E-005	0.00000E+000	-9.84000E-001	-7.45106E-004	10	..........a	-327.74
	1491	29.84	-9.91596E-001	-9.25351E-005	0.00000E+000	-9.91000E-001	-7.59272E-004	10	..........a	-327.74
	1498	29.98	-9.98626E-001	-9.20129E-005	0.00000E+000	-9.98000E-001	-7.38439E-004	10	..........a	-327.74
	1505	30.12	-9.95572E-001	-9.07973E-005	0.00000E+000	-9.95000E-001	-7.30939E-004	10	..........a	-327.74
	1512	30.26	-9.88586E-001	-9.03169E-005	0.00000E+000	-9.88000E-001	-7.31772E-004	10	..........a	-327.74
	1519	30.4	-9.81555E-001	-8.96485E-005	0.00000E+000	-9.81000E-001	-7.27605E-004	10	..........a	-327.74
	1526	30.54	-9.74598E-001	-8.98197E-005	0.00000E+000	-9.74000E-001	-7.28439E-004	10	..........a	-327.74
	1533	30.68	-9.67592E-001	-8.97738E-005	0.00000E+000	-9.67000E-001	-7.38439E-004	10	..........a	-327.74
	1540	30.82	-9.60586E-001	-8.90929E-005	0.00000E+000	-9.60000E-001	-7.10106E-004	10	..........a	-327.74
	1547	30.96	-9.53603E-001	-8.86208E-005	0.00000E+000	-9.53000E-001	-7.03439E-004	10	..........a	-327.74
	1554	31.1	-9.46558E-001	-8.77018E-005	0.00000E+000	-9.46000E-001	-6.83439E-004	10	..........a	-327.74
	1561	31.24	-9.39568E-001	-8.74177E-005	0.00000E+000	-9.39000E-001	-7.02605E-004	10	..........a	-327.74
	1568	31.38	-9.32656E-001	-8.76475E-005	0.00000E+000	-9.32000E-001	-6.89272E-004	10	..........a	-327.74
	1575	31.52	-9.25562E-001	-8.73383E-005	0.00000E+000	-9.25000E-001	-7.03439E-004	10	..........a	-327.74
	1582	31.66	-9.18595E-001	-8.68579E-005	0.00000E+000	-9.18000E-001	-6.68439E-004	10	..........a	-327.74
	1589	31.8	-9.11586E-001	-8.62396E-005	0.00000E+000	-9.11000E-001	-6.99272E-004	10	..........a	-327.74
	1596	31.94	-9.04528E-001	-8.63608E-005	0.00000E+000	-9.04000E-001	-6.80939E-004	10	..........a	-327.74
	1603	32.08	-8.97598E-001	-8.54292E-005	0.00000E+000	-8.97000E-001	-7.01772E-004	10	..........a	-327.74
	1610	32.22	-8.90649E-001	-8.49363E-005	0.00000E+000	-8.90000E-001	-7.23439E-004	10	..........a	-327.74
	1617	32.36	-8.83600E-001	-8.49488E-005	0.00000E+000	-8.83000E-001	-6.84272E-004	10	..........a	-327.74
	1624	32.5	-8.76656E-001	-8.47023E-005	0.00000E+000	-8.76000E-001	-7.01772E-004	10	..........a	-327.74
	1631	32.64	-8.69661E-001	-8.48778E-005	0.00000E+000	-8.69000E-001	-7.03439E-004	10	..........a	-327.74
	1638	32.78	-8.62623E-001	-8.56757E-005	0.00000E+000	-8.62000E-001	-6.85106E-004	10	..........a	-327.74
	1645	32.92	-8.55648E-001	-8.60809E-005	0.00000E+000	-8.55000E-001	-6.77606E-004	10	..........a	-327.74
	1652	33.06	-8.48563E-001	-8.64652E-005	0.00000E+000	-8.48000E-001	-6.79272E-004	10	..........a	-327.74
	1659	33.2	-8.41630E-001	-8.75472E-005	0.00000E+000	-8.41000E-001	-7.17605E-004	10	..........a	-327.74
	1666	33.34	-8.34617E-001	-8.84579E-005	0.00000E+000	-8.34000E-001	-7.03439E-004	10	..........a	-327.74
	1673	33.48	-8.27676E-001	-8.87963E-005	0.00000E+000	-8.27000E-001	-7.18439E-004	10	..........a	-327.74
	1680	33.62	-8.20660E-001	-8.96735E-005	0.00000E+000	-8.20000E-001	-7.06772E-004	10	..........a	-327.74
	1687	33.76	-8.13695E-001	-8.93519E-005	0.00000E+000	-8.13000E-001	-7.37606E-004	10	..........a	-327.74
	1694	33.9	-8.06680E-001	-8.89550E-005	0.00000E+000	-8.06000E-001	-7.14272E-004	10	..........a	-327.74
	1701	34.04	-7.99713E-001	-8.84370E-005	0.00000E+000	-7.99000E-001	-7.13439E-004	10	..........a	-327.74
	1708	34.18	-7.92667E-001	-8.83952E-005	0.00000E+000	-7.92000E-001	-7.07606E-004	10	..........a	-327.74
	1715	34.32	-7.85695E-001	-8.82616E-005	0.00000E+000	-7.85000E-001	-6.95106E-004	10	..........a	-327.74
	1722	34.46	-7.78679E-001	-8.88464E-005	0.00000E+000	-7.78000E-001	-7.15939E-004	10	..........a	-327.74
	1729	34.6	-7.71643E-001	-8.98741E-005	0.00000E+000	-7.71000E-001	-7.16772E-004	10	..........a	-327.74
	1736	34.74	-7.64714E-001	-8.97529E-005	0.00000E+000	-7.64000E-001	-7.21772E-004	10	..........a	-327.74
	1743	34.88	-7.57691E-001	-8.97780E-005	0.00000E+000	-7.57000E-001	-7.15939E-004	10	..........a	-327.74
	1750	35.02	-7.50714E-001	-9.00119E-005	0.00000E+000	-7.50000E-001	-7.32606E-004	10	..........a	-327.74
	1757	35.16	-7.43739E-001	-9.06928E-005	0.00000E+000	-7.43000E-001	-7.39272E-004	10	..........a	-327.74
	1764	35.3	-7.36691E-001	-9.10270E-005	0.00000E+000	-7.36000E-001	-7.32606E-004	10	..........a	-327.74
	1771	35.44	-7.29715E-001	-9.07931E-005	0.00000E+000	-7.29000E-001	-7.27605E-004	10	..........a	-327.74
	1778	35.58	-7.22736E-001	-9.08934E-005	0.00000E+000	-7.22000E-001	-7.45106E-004	10	..........a	-327.74
	1785	35.72	-7.15712E-001	-9.18249E-005	0.00000E+000	-7.15000E-001	-7.44272E-004	10	..........a	-327.74
	1792	35.86	-7.08735E-001	-9.29361E-005	0.00000E+000	-7.08000E-001	-7.49272E-004	10	..........a	-327.74
	1799	36	-7.01770E-001	-9.34166E-005	0.00000E+000	-7.01000E-001	-7.47606E-004	10	..........a	-327.74
	1806	36.14	-6.94723E-001	-9.36004E-005	0.00000E+000	-6.94000E-001	-7.30106E-004	10	..........a	-327.74
	1813	36.28	-6.87746E-001	-9.30782E-005	0.00000E+000	-6.87000E-001	-7.36772E-004	10	..........a	-327.74
	1820	36.42	-6.80727E-001	-9.25476E-005	0.00000E+000	-6.80000E-001	-7.40939E-004	10	..........a	-327.74
	1827	36.56	-6.73804E-001	-9.26145E-005	0.00000E+000	-6.73000E-001	-7.61772E-004	10	..........a	-327.74
	1834	36.7	-6.66748E-001	-9.18041E-005	0.00000E+000	-6.66000E-001	-7.49272E-004	10	..........a	-327.74
	1841	36.84	-6.59725E-001	-9.16704E-005	0.00000E+000	-6.59000E-001	-7.43439E-004	10	..........a	-327.74
	1848	36.98	-6.52751E-001	-9.13028E-005	0.00000E+000	-6.52000E-001	-7.46772E-004	10	..........a	-327.74
	1855	37.12	-6.45774E-001	-9.02500E-005	0.00000E+000	-6.45000E-001	-7.30106E-004	10	..........a	-327.74
	1862	37.26	-6.38768E-001	-8.96234E-005	0.00000E+000	-6.38000E-001	-7.53439E-004	10	..........a	-327.74
	1869	37.4	-6.31774E-001	-8.89425E-005	0.00000E+000	-6.31000E-001	-7.25939E-004	10	..........a	-327.74
	1876	37.54	-6.24727E-001	-8.79441E-005	0.00000E+000	-6.24000E-001	-7.11772E-004	10	..........a	-327.74
	1883	37.68	-6.17738E-001	-8.64444E-005	0.00000E+000	-6.17000E-001	-6.86772E-004	10	..........a	-327.74
	1890	37.82	-6.10774E-001	-8.46397E-005	0.00000E+000	-6.10000E-001	-7.15106E-004	10	..........a	-327.74
	1897	37.96	-6.03769E-001	-8.36789E-005	0.00000E+000	-6.03000E-001	-6.96772E-004	10	..........a	-327.74
	1904	38.1	-5.96786E-001	-8.24465E-005	0.00000E+000	-5.96000E-001	-7.31772E-004	10	..........a	-327.74
	1911	38.24	-5.89796E-001	-8.14021E-005	0.00000E+000	-5.89000E-001	-7.35106E-004	10	..........a	-327.74
	1918	38.38	-5.82781E-001	-7.95056E-005	0.00000E+000	-5.82000E-001	-7.29272E-004	10	..........a	-327.74
	1925	38.52	-5.75790E-001	-7.63892E-005	0.00000E+000	-5.75000E-001	-7.55105E-004	10	..........a	-327.74
	1932	38.66	-5.68766E-001	-7.24122E-005	0.00000E+000	-5.68000E-001	-7.25939E-004	10	..........a	-327.74
	1939	38.8	-5.61837E-001	-6.60332E-005	0.00000E+000	-5.61000E-001	-7.12606E-004	10	..........a	-327.74
	1946	38.94	-5.54799E-001	-5.72229E-005	0.00000E+000	-5.54000E-001	-7.11772E-004	10	..........a	-327.74
	1953	39.08	-5.47741E-001	-4.42727E-005	0.00000E+000	-5.47000E-001	-7.60939E-004	10	..........a	-327.74
	1960	39.22	-5.40796E-001	-2.67817E-005	0.00000E+000	-5.40000E-001	-7.43439E-004	10	..........a	-327.74
	1967	39.36	-5.33820E-001	-5.47653E-006	0.00000E+000	-5.33000E-001	-6.88439E-004	10	..........a	-327.74
	1974	39.5	-5.26785E-001	1.59539E-005	0.00000E+000	-5.26000E-001	-7.72606E-004	10	..........a	-327.74
	1981	39.64	-5.19826E-001	3.63943E-005	0.00000E+000	-5.19000E-001	-7.95106E-004	10	..........a	-327.74
	1988	39.78	-5.12770E-001	5.09779E-005	0.00000E+000	-5.12000E-001	-7.80105E-004	10	..........a	-327.74
	1995	39.92	-5.05846E-001	5.99386E-005	0.00000E+000	-5.05000E-001	-7.54272E-004	10	..........a	-327.74
	2002	40.06	-4.98821E-001	6.47635E-005	0.00000E+000	-4.98000E-001	-7.86772E-004	10	..........a	-327.74
	2009	40.2	-4.91742E-001	6.55447E-005	0.00000E+000	-4.91000E-001	-7.69272E-004	10	..........a	-327.74
	2016	40.34	-4.84845E-001	6.39364E-005	0.00000E+000	-4.84000E-001	-7.95106E-004	10	..........a	-327.74
	2023	40.48	-4.77848E-001	6.09035E-005	0.00000E+000	-4.77000E-001	-7.44272E-004	10	..........a	-327.74
	2030	40.62	-4.70819E-001	5.72399E-005	0.00000E+000	-4.70000E-001	-7.31772E-004	10	..........a	-327.74
	2037	40.76	-4.63853E-001	5.27784E-005	0.00000E+000	-4.63000E-001	-7.88439E-004	10	..........a	-327.74
	2044	40.9	-4.56834E-001	4.79325E-005	0.00000E+000	-4.56000E-001	-7.70939E-004	10	..........a	-327.74
	2051	41.04	-4.49840E-001	4.31660E-005	0.00000E+000	-4.49000E-001	-7.05105E-004	10	..........a	-327.74
	2058	41.18	-4.42852E-001	3.83201E-005	0.00000E+000	-4.42000E-001	-7.29272E-004	10	..........a	-327.74
	2065	41.32	-4.35760E-001	3.40674E-005	0.00000E+000	-4.35000E-001	-7.55105E-004	10	..........a	-327.74
	2072	41.46	-4.28836E-001	2.99067E-005	0.00000E+000	-4.28000E-001	-7.27605E-004	10	..........a	-327.74
	2079	41.6	-4.21844E-001	2.65731E-005	0.00000E+000	-4.21000E-001	-7.20939E-004	10	..........a	-327.74
	2086	41.74	-4.14788E-001	2.27423E-005	0.00000E+000	-4.14000E-001	-7.37606E-004	10	..........a	-327.74
	2093	41.88	-4.07868E-001	2.01147E-005	0.00000E+000	-4.07000E-001	-7.74272E-004	10	..........a	-327.74
	2100	42.02	-4.00828E-001	1.75497E-005	0.00000E+000	-4.00000E-001	-7.49272E-004	10	..........a	-327.74
	2107	42.16	-3.93836E-001	1.54986E-005	0.00000E+000	-3.93000E-001	-7.71772E-004	10	..........a	-327.74
	2114	42.3	-3.86857E-001	1.33764E-005	0.00000E+000	-3.86000E-001	-7.10106E-004	10	..........a	-327.74
	2121	42.44	-3.79811E-001	1.16386E-005	0.00000E+000	-3.79000E-001	-7.15939E-004	10	..........a	-327.74
	2128	42.58	-3.72818E-001	1.02182E-005	0.00000E+000	-3.72000E-001	-7.12606E-004	10	..........a	-327.74
	2135	42.72	-3.65831E-001	8.43029E-006	0.00000E+000	-3.65000E-001	-7.22606E-004	10	..........a	-327.74
	2142	42.86	-3.58845E-001	7.25224E-006	0.00000E+000	-3.58000E-001	-7.21772E-004	10	..........a	-327.74
	2149	43	-3.51888E-001	6.32902E-006	0.00000E+000	-3.51000E-001	-7.53439E-004	10	..........a	-327.74
	2156	43.14	-3.44978E-001	5.49352E-006	0.00000E+000	-3.44000E-001	-7.56772E-004	10	..........a	-327.74
	2163	43.28	-3.37903E-001	4.49093E-006	0.00000E+000	-3.37000E-001	-7.76772E-004	10	..........a	-327.74
	2170	43.42	-3.30896E-001	3.88519E-006	0.00000E+000	-3.30000E-001	-7.65106E-004	10	..........a	-327.74
	2177	43.56	-3.23845E-001	3.46327E-006	0.00000E+000	-3.23000E-001	-7.65939E-004	10	..........a	-327.74
	2184	43.7	-3.17002E-001	3.18338E-006	0.00000E+000	-3.16000E-001	-7.87605E-004	10	..........a	-327.74
	2191	43.84	-3.09899E-001	2.63195E-006	0.00000E+000	-3.09000E-001	-7.59272E-004	10	..........a	-327.74
	2198	43.98	-3.02859E-001	2.60689E-006	0.00000E+000	-3.02000E-001	-7.59272E-004	10	..........a	-327.74
	2205	44.12	-2.95878E-001	1.88418E-006	0.00000E+000	-2.95000E-001	-7.58439E-004	10	..........a	-327.74
	2212	44.26	-2.88836E-001	1.72126E-006	0.00000E+000	-2.88000E-001	-7.52606E-004	10	..........a	-327.74
	2219	44.4	-2.81853E-001	1.25756E-006	0.00000E+000	-2.81000E-001	-7.88439E-004	10	..........a	-327.74
	2226	44.54	-2.74880E-001	1.07375E-006	0.00000E+000	-2.74000E-001	-7.60939E-004	10	..........a	-327.74
	2233	44.68	-2.67736E-001	9.90203E-007	0.00000E+000	-2.67000E-001	-7.35939E-004	10	..........a	-327.74
	2240	44.82	-2.60849E-001	6.30941E-007	0.00000E+000	-2.60000E-001	-7.53439E-004	10	..........a	-327.74
	2247	44.96	-2.53894E-001	3.59405E-007	0.00000E+000	-2.53000E-001	-7.60939E-004	10	..........a	-327.74
	2254	45.1	-2.46869E-001	3.34340E-007	0.00000E+000	-2.46000E-001	-7.41772E-004	10	..........a	-327.74
	2261	45.24	-2.39889E-001	2.34081E-007	0.00000E+000	-2.39000E-001	-7.95939E-004	10	..........a	-327.74
	2268	45.38	-2.32866E-001	1.08756E-007	0.00000E+000	-2.32000E-001	-7.82606E-004	10	..........a	-327.74
	2275	45.52	-2.25900E-001	7.11590E-008	0.00000E+000	-2.25000E-001	-7.87605E-004	10	..........a	-327.74
	2282	45.66	-2.18894E-001	-3.74554E-008	0.00000E+000	-2.18000E-001	-7.44272E-004	10	..........a	-327.74
	2289	45.8	-2.11834E-001	-1.83667E-007	0.00000E+000	-2.11000E-001	-7.80939E-004	10	..........a	-327.74
	2296	45.94	-2.04889E-001	-1.37715E-007	0.00000E+000	-2.04000E-001	-7.65939E-004	10	..........a	-327.74
	2303	46.08	-1.97934E-001	-3.17346E-007	0.00000E+000	-1.97000E-001	-7.75939E-004	10	..........a	-327.74
	2310	46.22	-1.90900E-001	-2.54684E-007	0.00000E+000	-1.90000E-001	-8.05939E-004	10	..........a	-327.74
	2317	46.36	-1.83925E-001	-3.04814E-007	0.00000E+000	-1.83000E-001	-7.81772E-004	10	..........a	-327.74
	2324	46.5	-1.76926E-001	-1.96199E-007	0.00000E+000	-1.76000E-001	-7.79272E-004	10	..........a	-327.74
	2331	46.64	-1.69936E-001	-6.25202E-008	0.00000E+000	-1.69000E-001	-7.80939E-004	10	..........a	-327.74
	2338	46.78	-1.62952E-001	-8.34077E-008	0.00000E+000	-1.62000E-001	-7.60939E-004	10	..........a	-327.74
	2345	46.92	-1.55855E-001	-3.74554E-008	0.00000E+000	-1.55000E-001	-7.59272E-004	10	..........a	-327.74
	2352	47.06	-1.48939E-001	2.93842E-008	0.00000E+000	-1.48000E-001	-7.82606E-004	10	..........a	-327.74
	2359	47.2	-1.41936E-001	1.04579E-007	0.00000E+000	-1.41000E-001	-7.84272E-004	10	..........a	-327.74
	2366	47.34	-1.34914E-001	-7.92302E-008	0.00000E+000	-1.34000E-001	-7.80939E-004	10	..........a	-327.74
	2373	47.48	-1.27939E-001	7.53364E-008	0.00000E+000	-1.27000E-001	-7.66772E-004	10	..........a	-327.74
	2380	47.62	-1.20952E-001	1.12934E-007	0.00000E+000	-1.20000E-001	-7.80105E-004	10	..........a	-327.74
	2387	47.76	-1.13947E-001	2.29903E-007	0.00000E+000	-1.13000E-001	-7.86772E-004	10	..........a	-327.74
	2394	47.9	-1.06938E-001	2.63323E-007	0.00000E+000	-1.06000E-001	-7.65939E-004	10	..........a	-327.74
	2401	48.04	-9.99339E-002	2.52067E-008	0.00000E+000	-9.90000E-002	-7.58439E-004	10	..........a	-327.74
	2408	48.18	-9.29560E-002	2.29903E-007	0.00000E+000	-9.20000E-002	-7.68439E-004	10	..........a	-327.74
	2415	48.32	-8.59602E-002	2.21548E-007	0.00000E+000	-8.50000E-002	-7.83439E-004	10	..........a	-327.74
	2422	48.46	-7.89081E-002	3.42695E-007	0.00000E+000	-7.80000E-002	-7.58439E-004	10	..........a	-327.74
	2429	48.6	-7.19685E-002	2.17371E-007	0.00000E+000	-7.10000E-002	-7.62605E-004	10	..........a	-327.74
	2436	48.74	-6.49648E-002	2.67500E-007	0.00000E+000	-6.40000E-002	-7.74272E-004	10	..........a	-327.74
	2443	48.88	-5.79577E-002	4.42954E-007	0.00000E+000	-5.70000E-002	-7.77606E-004	10	..........a	-327.74
	2450	49.02	-5.09689E-002	4.80551E-007	0.00000E+000	-5.00000E-002	-7.53439E-004	10	..........a	-327.74
	2457	49.16	-4.39789E-002	5.39036E-007	0.00000E+000	-4.30000E-002	-7.55939E-004	10	..........a	-327.74
	2464	49.3	-3.69206E-002	5.26504E-007	0.00000E+000	-3.60000E-002	-7.41772E-004	10	..........a	-327.74
	2471	49.44	-2.99848E-002	3.55227E-007	0.00000E+000	-2.90000E-002	-7.75105E-004	10	..........a	-327.74
	2478	49.58	-2.29310E-002	2.92565E-007	0.00000E+000	-2.20000E-002	-7.76772E-004	10	..........a	-327.74
	2485	49.72	-1.59898E-002	1.83951E-007	0.00000E+000	-1.50000E-002	-7.75939E-004	10	..........a	-327.74
	2492	49.86	-8.95102E-003	3.21808E-007	0.00000E+000	-8.00000E-003	-7.65106E-004	10	..........a	-327.74
	2499	50	-1.99394E-003	2.00661E-007	0.00000E+000	-1.00000E-003	-7.75939E-004	10	..........a	-327.74
	2506	50.14	5.02148E-003	2.63323E-007	0.00000E+000	5.99998E-003	-7.85106E-004	10	..........a	-327.74
	2513	50.28	1.20136E-002	1.79773E-007	0.00000E+000	1.30000E-002	-7.66772E-004	10	..........a	-327.74
	2520	50.42	1.90644E-002	6.69815E-008	0.00000E+000	2.00000E-002	-7.69272E-004	10	..........a	-327.74
	2527	50.56	2.59719E-002	1.04579E-007	0.00000E+000	2.70000E-002	-7.60106E-004	10	..........a	-327.74
	2534	50.7	3.30431E-002	1.08756E-007	0.00000E+000	3.40000E-002	-7.69272E-004	10	..........a	-327.74
	2541	50.84	3.99819E-002	-1.65680E-008	0.00000E+000	4.10000E-002	-7.74272E-004	10	..........a	-327.74
	2548	50.98	4.70494E-002	2.52067E-008	0.00000E+000	4.80000E-002	-7.68439E-004	10	..........a	-327.74
	2555	51.12	5.39819E-002	4.60941E-008	0.00000E+000	5.50000E-002	-7.89272E-004	10	..........a	-327.74
	2562	51.26	6.10056E-002	1.96483E-007	0.00000E+000	6.20000E-002	-7.75105E-004	10	..........a	-327.74
	2569	51.4	6.80815E-002	1.67241E-007	0.00000E+000	6.90000E-002	-7.53439E-004	10	..........a	-327.74
	2576	51.54	7.50373E-002	-1.23905E-008	0.00000E+000	7.60000E-002	-7.64272E-004	10	..........a	-327.74
	2583	51.68	8.19631E-002	1.42176E-007	0.00000E+000	8.30000E-002	-7.58439E-004	10	..........a	-327.74
	2590	51.82	8.90240E-002	1.46353E-007	0.00000E+000	9.00000E-002	-7.84272E-004	10	..........a	-327.74
	2597	51.96	9.59873E-002	2.75855E-007	0.00000E+000	9.70000E-002	-7.40106E-004	10	..........a	-327.74
	2604	52.1	1.03002E-001	2.21548E-007	0.00000E+000	1.04000E-001	-7.88439E-004	10	..........a	-327.74
	2611	52.24	1.09968E-001	3.77392E-008	0.00000E+000	1.11000E-001	-7.68439E-004	10	..........a	-327.74
	2618	52.38	1.16991E-001	-6.66976E-008	0.00000E+000	1.18000E-001	-8.18439E-004	10	..........a	-327.74
	2625	52.52	1.24048E-001	-1.79490E-007	0.00000E+000	1.25000E-001	-7.80105E-004	10	..........a	-327.74
	2632	52.66	1.30996E-001	-5.83427E-008	0.00000E+000	1.32000E-001	-7.76772E-004	10	..........a	-327.74
	2639	52.8	1.37959E-001	-1.41892E-007	0.00000E+000	1.39000E-001	-7.84272E-004	10	..........a	-327.74
	2646	52.94	1.45058E-001	-2.07455E-008	0.00000E+000	1.46000E-001	-7.35939E-004	10	..........a	-327.74
	2653	53.08	1.51948E-001	-2.63039E-007	0.00000E+000	1.53000E-001	-7.65939E-004	10	..........a	-327.74
	2660	53.22	1.58955E-001	-2.17087E-007	0.00000E+000	1.60000E-001	-7.79272E-004	10	..........a	-327.74
	2667	53.36	1.65948E-001	-2.00377E-007	0.00000E+000	1.67000E-001	-7.95939E-004	10	..........a	-327.74
	2674	53.5	1.72949E-001	-1.83667E-007	0.00000E+000	1.74000E-001	-7.89272E-004	10	..........a	-327.74
	2681	53.64	1.79950E-001	-4.58103E-008	0.00000E+000	1.81000E-001	-7.74272E-004	10	..........a	-327.74
	2688	53.78	1.86955E-001	-2.07455E-008	0.00000E+000	1.88000E-001	-7.69272E-004	10	..........a	-327.74
	2695	53.92	1.93901E-001	1.37999E-007	0.00000E+000	1.95000E-001	-7.55105E-004	10	..........a	-327.74
	2702	54.06	2.01043E-001	1.04579E-007	0.00000E+000	2.02000E-001	-7.71772E-004	10	..........a	-327.74
	2709	54.2	2.07917E-001	-4.16329E-008	0.00000E+000	2.09000E-001	-7.73439E-004	10	..........a	-327.74
	2716	54.34	2.14924E-001	-7.08752E-008	0.00000E+000	2.16000E-001	-7.65939E-004	10	..........a	-327.74
	2723	54.48	2.21921E-001	-3.32779E-008	0.00000E+000	2.23000E-001	-7.77606E-004	10	..........a	-327.74
	2730	54.62	2.28923E-001	-4.99878E-008	0.00000E+000	2.30000E-001	-7.72606E-004	10	..........a	-327.74
	2737	54.76	2.35898E-001	-1.65680E-008	0.00000E+000	2.37000E-001	-7.65106E-004	10	..........a	-327.74
	2744	54.9	2.42905E-001	-5.41652E-008	0.00000E+000	2.44000E-001	-7.65106E-004	10	..........a	-327.74
	2751	55.04	2.49905E-001	3.35617E-008	0.00000E+000	2.51000E-001	-7.54272E-004	10	..........a	-327.74
	2758	55.18	2.56959E-001	-7.50527E-008	0.00000E+000	2.58000E-001	-7.80939E-004	10	..........a	-327.74
	2765	55.32	2.63900E-001	-8.21312E-009	0.00000E+000	2.65000E-001	-7.51772E-004	10	..........a	-327.74
	2772	55.46	2.70923E-001	-1.75312E-007	0.00000E+000	2.72000E-001	-7.91772E-004	10	..........a	-327.74
	2779	55.6	2.77909E-001	-1.66957E-007	0.00000E+000	2.79000E-001	-7.63439E-004	10	..........a	-327.74
	2786	55.74	2.84888E-001	-1.16827E-007	0.00000E+000	2.86000E-001	-7.82606E-004	10	..........a	-327.74
	2793	55.88	2.91890E-001	-4.16329E-008	0.00000E+000	2.93000E-001	-7.75939E-004	10	..........a	-327.74
	2800	56.02	2.98823E-001	-6.66976E-008	0.00000E+000	3.00000E-001	-7.61772E-004	10	..........a	-327.74
	2807	56.16	3.05866E-001	-1.23905E-008	0.00000E+000	3.07000E-001	-7.75939E-004	10	..........a	-327.74
	2814	56.3	3.12921E-001	6.69815E-008	0.00000E+000	3.14000E-001	-7.74272E-004	10	..........a	-327.74
	2821	56.44	3.19883E-001	5.86266E-008	0.00000E+000	3.21000E-001	-7.71772E-004	10	..........a	-327.74
	2828	56.58	3.26888E-001	1.08756E-007	0.00000E+000	3.28000E-001	-7.65939E-004	10	..........a	-327.74
	2835	56.72	3.33889E-001	1.21289E-007	0.00000E+000	3.35000E-001	-7.62605E-004	10	..........a	-327.74
	2842	56.86	3.40849E-001	3.77392E-008	0.00000E+000	3.42000E-001	-7.92605E-004	10	..........a	-327.74
	2849	57	3.47914E-001	2.00661E-007	0.00000E+000	3.49000E-001	-7.66772E-004	10	..........a	-327.74
	2856	57.14	3.54865E-001	1.37999E-007	0.00000E+000	3.56000E-001	-7.40939E-004	10	..........a	-327.74
	2863	57.28	3.61861E-001	3.05098E-007	0.00000E+000	3.63000E-001	-7.71772E-004	10	..........a	-327.74
	2870	57.42	3.68876E-001	4.88906E-007	0.00000E+000	3.70000E-001	-7.45939E-004	10	..........a	-327.74
	2877	57.56	3.75893E-001	7.14490E-007	0.00000E+000	3.77000E-001	-7.50939E-004	10	..........a	-327.74
	2884	57.7	3.82865E-001	6.43473E-007	0.00000E+000	3.84000E-001	-7.57606E-004	10	..........a	-327.74
	2891	57.84	3.89883E-001	6.64360E-007	0.00000E+000	3.91000E-001	-7.62605E-004	10	..........a	-327.74
	2898	57.98	3.96843E-001	5.13971E-007	0.00000E+000	3.98000E-001	-7.55939E-004	10	..........a	-327.74
	2905	58.12	4.03879E-001	8.18927E-007	0.00000E+000	4.05000E-001	-7.45106E-004	10	..........a	-327.74
	2912	58.26	4.10839E-001	6.60183E-007	0.00000E+000	4.12000E-001	-7.68439E-004	10	..........a	-327.74
	2919	58.4	4.17832E-001	6.68538E-007	0.00000E+000	4.19000E-001	-7.65939E-004	10	..........a	-327.74
	2926	58.54	4.24981E-001	7.43733E-007	0.00000E+000	4.26000E-001	-7.51772E-004	10	..........a	-327.74
	2933	58.68	4.31859E-001	7.39555E-007	0.00000E+000	4.33000E-001	-7.76772E-004	10	..........a	-327.74
	2940	58.82	4.38819E-001	6.68538E-007	0.00000E+000	4.40000E-001	-7.50939E-004	10	..........a	-327.74
	2947	58.96	4.45861E-001	7.10313E-007	0.00000E+000	4.47000E-001	-7.74272E-004	10	..........a	-327.74
	2954	59.1	4.52846E-001	8.64879E-007	0.00000E+000	4.54000E-001	-7.56772E-004	10	..........a	-327.74
	2961	59.24	4.59861E-001	7.47910E-007	0.00000E+000	4.61000E-001	-7.44272E-004	10	..........a	-327.74
	2968	59.38	4.66809E-001	7.52087E-007	0.00000E+000	4.68000E-001	-7.35106E-004	10	..........a	-327.74
	2975	59.52	4.73832E-001	4.68019E-007	0.00000E+000	4.75000E-001	-7.52606E-004	10	..........a	-327.74
	2982	59.66	4.80921E-001	7.06135E-007	0.00000E+000	4.82000E-001	-7.66772E-004	10	..........a	-327.74
	2989	59.8	4.87834E-001	8.35637E-007	0.00000E+000	4.89000E-001	-7.46772E-004	10	..........a	-327.74
	2996	59.94	4.94791E-001	6.39296E-007	0.00000E+000	4.96000E-001	-7.45106E-004	10	..........a	-327.74
	3000	60.02	4.98815E-001	8.60702E-007	0.00000E+000	5.00000E-001	-7.49272E-004	10	..........a	-327.74
CURVE2	TABLE
	Pt	T	Vf	Im	Vu	Sig	Ach	IERange	Over	Temp
	#	s	V vs. Ref.	A	V	V	V	#	bits	deg C
	3001	60.04	4.98816E-001	1.11971E-006	0.00000E+000	5.00000E-001	-7.78439E-004	10	..........a	-327.74