File: data/02-SI/Figures_S9_S11_RDE/18btmapaq-rde/1mkcl-18btmapaq-nitrogen-3000mvpers.DTA
EXPLAIN
TAG	CV
TITLE	LABEL	Cyclic Voltammetry	Test &Identifier
DATE	LABEL	1/31/2023	Date
TIME	LABEL	15:22:54	Time
NOTES	NOTES	1	&Notes...

PSTAT	PSTAT	REF3000-21108	Potentiostat
VINIT	POTEN	5.00000E-001	F	Initial &E (V)
VLIMIT1	POTEN	-1.00000E+000	F	Scan Limit &1 (V)
VLIMIT2	POTEN	5.00000E-001	F	Scan Limit &2 (V)
VFINAL	POTEN	5.00000E-001	F	Final &E (V)
SCANRATE	QUANT	2.99999E+003	&Scan Rate (mV/s)
STEPSIZE	QUANT	1.00000E+000	St&ep Size (mV)
CYCLES	IQUANT	1	C&ycles (#)
IMODE	SELECTOR	1	I/E Range &Mode
IRANGE	QUANT	1.00000E+001	&Max Current (mA)
AREA	QUANT	1.00000E+000	Electrode &Area (cm^2)
ELECTRODETYPE	SELECTOR	0	Electrode Type
STRIPPING	TOGGLE	F	Used for Stripping
POLARITY	TOGGLE	F	Signal Polarity
CONDIT	TWOPARAM	F	1.50000E+001	0.00000E+000	Conditionin&g	Time(s)	E(V)
DELAY	TWOPARAM	F	5.00000E+000	0.00000E+000	Init. De&lay	Time(s)	Stab.(mV/s)
EQDELAY	QUANT	0.00000E+000	Equil. &Time (s)
IRCOMP	SELECTOR	0	IRCom&p
PFCOR	QUANT	5.00000E+001	PF Corr. (ohm)
SAMPLINGMODE	SELECTOR	1	Sampling &Mode
EOC	QUANT	0	Open Circuit (V)
PSTATMODEL	IQUANT	5	Pstat Model
PSTATSECTION	LABEL	REF3000-21108	Pstat Section
PSTATSERIALNO	LABEL	21108	Pstat Serial Number
CTRLMODE	IQUANT	1	Control Mode
ELECTROMETER	IQUANT	0	RE=0 or CS=1
IESTAB	IQUANT	2	I/E Stability
CASPEED	IQUANT	4	Control Amp Speed
CONVENTION	IQUANT	1	Current Convention
ICHRANGE	IQUANT	2	Ich Range
ICHRANGEMODE	TOGGLE	F	Ich Auto Range
ICHOFFSETENABLE	TOGGLE	F	Ich Offset Enable
ICHOFFSET	QUANT	0	Ich Offset (V)
ICHFILTER	IQUANT	1	Ich Filter
VCHRANGE	IQUANT	2	Vch Range
VCHRANGEMODE	TOGGLE	F	Vch Auto Range
VCHOFFSETENABLE	TOGGLE	F	Vch Offset Enable
VCHOFFSET	QUANT	0	Vch Offset (V)
VCHFILTER	IQUANT	1	Vch Filter
ACHRANGE	IQUANT	2	Ach Range
ACHOFFSETENABLE	TOGGLE	F	Ach Offset Enable
ACHOFFSET	QUANT	0	Ach Offset (V)
ACHFILTER	IQUANT	0	Ach Filter
IERANGELOWERLIMIT	IQUANT	2	I/E Range Lower Limit
IERANGEMODE	TOGGLE	F	I/E AutoRange
IERANGE	IQUANT	10	I/E Range
POSFEEDENABLE	TOGGLE	F	Positive Feedback IR Comp
POSFEEDRESISTANCE	QUANT	0	Positive Feedback Resistance (ohm)
ACHSELECT	IQUANT	0	Ach Select
SENSECABLEID	IQUANT	14	Sense Cable ID
PWRCABLEID	IQUANT	7	Power Cable ID
DCCALDATE	LABEL	11/9/2022	DC Calibration Date
ACCALDATE	LABEL	11/9/2022	AC Calibration Date
THERMOSELECT	IQUANT	1	Thermo Select
FRAMEWORKVERSION	LABEL	7.8.2	Framework Version
INSTRUMENTVERSION	LABEL	4.40	Instrument Version
COMPLIANCEVOLTAGE	IQUANT	0	Compliance Voltage
CURVE1	TABLE
	Pt	T	Vf	Im	Vu	Sig	Ach	IERange	Over	Temp
	#	s	V vs. Ref.	A	V	V	V	#	bits	deg C
	0	0.000333	4.98866E-001	3.13796E-005	0.00000E+000	5.00000E-001	-8.29272E-004	10	..........a	-327.74
	7	0.002667	4.91866E-001	1.83458E-005	0.00000E+000	4.93000E-001	-7.79272E-004	10	..........a	-327.74
	14	0.005	4.84866E-001	1.35835E-005	0.00000E+000	4.86000E-001	-7.79272E-004	10	..........a	-327.74
	21	0.007333	4.77991E-001	1.03251E-005	0.00000E+000	4.79000E-001	-8.29272E-004	10	..........a	-327.74
	28	0.009667	4.70866E-001	7.31730E-006	0.00000E+000	4.72000E-001	-8.29272E-004	10	..........a	-327.74
	35	0.012	4.63791E-001	5.56276E-006	0.00000E+000	4.65000E-001	-8.29272E-004	10	..........a	-327.74
	42	0.014333	4.56866E-001	4.56017E-006	0.00000E+000	4.58000E-001	-7.79272E-004	10	..........a	-327.74
	49	0.016667	4.49691E-001	3.30692E-006	0.00000E+000	4.51000E-001	-8.29272E-004	10	..........a	-327.74
	56	0.019	4.42766E-001	-7.03454E-007	0.00000E+000	4.44000E-001	-7.79272E-004	10	..........a	-327.74
	63	0.021333	4.35891E-001	5.49789E-007	0.00000E+000	4.37000E-001	-6.29272E-004	10	..........a	-327.74
	70	0.023667	4.28866E-001	-2.95929E-006	0.00000E+000	4.30000E-001	-7.79272E-004	10	..........a	-327.74
	77	0.026	4.21841E-001	-1.95670E-006	0.00000E+000	4.23000E-001	-8.29272E-004	10	..........a	-327.74
	84	0.028333	4.14866E-001	-3.71124E-006	0.00000E+000	4.16000E-001	-7.79272E-004	10	..........a	-327.74
	91	0.030667	4.07841E-001	-4.71383E-006	0.00000E+000	4.09000E-001	-5.79272E-004	10	..........a	-327.74
	98	0.033	4.00891E-001	-6.46837E-006	0.00000E+000	4.02000E-001	-5.29272E-004	10	..........a	-327.74
	105	0.035333	3.93866E-001	-8.72421E-006	0.00000E+000	3.95000E-001	-7.79272E-004	10	..........a	-327.74
	112	0.037667	3.86866E-001	-9.97745E-006	0.00000E+000	3.88000E-001	-7.79272E-004	10	..........a	-327.74
	119	0.04	3.79791E-001	-1.04787E-005	0.00000E+000	3.81000E-001	-7.79272E-004	10	..........a	-327.74
	126	0.042333	3.72866E-001	-1.12307E-005	0.00000E+000	3.74000E-001	-8.29272E-004	10	..........a	-327.74
	133	0.044667	3.65991E-001	-1.04787E-005	0.00000E+000	3.67000E-001	-8.29272E-004	10	..........a	-327.74
	140	0.047	3.58841E-001	-1.32359E-005	0.00000E+000	3.60000E-001	-7.79272E-004	10	..........a	-327.74
	147	0.049333	3.51891E-001	-1.24839E-005	0.00000E+000	3.53000E-001	-7.29272E-004	10	..........a	-327.74
	154	0.051667	3.44766E-001	-1.52411E-005	0.00000E+000	3.46000E-001	-7.79272E-004	10	..........a	-327.74
	161	0.054	3.37941E-001	-1.49904E-005	0.00000E+000	3.39000E-001	-9.29272E-004	10	..........a	-327.74
	168	0.056333	3.30916E-001	-1.72463E-005	0.00000E+000	3.32000E-001	-6.29272E-004	10	..........a	-327.74
	175	0.058667	3.23791E-001	-1.59930E-005	0.00000E+000	3.25000E-001	-6.29272E-004	10	..........a	-327.74
	182	0.061	3.16916E-001	-1.49904E-005	0.00000E+000	3.18000E-001	-8.29272E-004	10	..........a	-327.74
	189	0.063333	3.09991E-001	-1.62437E-005	0.00000E+000	3.11000E-001	-7.79272E-004	10	..........a	-327.74
	196	0.065667	3.02891E-001	-1.42385E-005	0.00000E+000	3.04000E-001	-7.79272E-004	10	..........a	-327.74
	203	0.068	2.96041E-001	-1.54917E-005	0.00000E+000	2.97000E-001	-7.79272E-004	10	..........a	-327.74
	210	0.070333	2.88866E-001	-1.57424E-005	0.00000E+000	2.90000E-001	-7.29272E-004	10	..........a	-327.74
	217	0.072667	2.81866E-001	-1.77476E-005	0.00000E+000	2.83000E-001	-8.29272E-004	10	..........a	-327.74
	224	0.075	2.74966E-001	-1.62437E-005	0.00000E+000	2.76000E-001	-7.79272E-004	10	..........a	-327.74
	231	0.077333	2.67916E-001	-1.77476E-005	0.00000E+000	2.69000E-001	-7.79272E-004	10	..........a	-327.74
	238	0.079667	2.60841E-001	-1.77476E-005	0.00000E+000	2.62000E-001	-7.79272E-004	10	..........a	-327.74
	245	0.082	2.54066E-001	-1.77476E-005	0.00000E+000	2.55000E-001	-7.79272E-004	10	..........a	-327.74
	252	0.084333	2.46891E-001	-1.72463E-005	0.00000E+000	2.48000E-001	-6.29272E-004	10	..........a	-327.74
	259	0.086667	2.39691E-001	-1.74969E-005	0.00000E+000	2.41000E-001	-7.29272E-004	10	..........a	-327.74
	266	0.089	2.32966E-001	-2.00034E-005	0.00000E+000	2.34000E-001	-7.79272E-004	10	..........a	-327.74
	273	0.091333	2.26066E-001	-1.62437E-005	0.00000E+000	2.27000E-001	-6.29272E-004	10	..........a	-327.74
	280	0.093667	2.18966E-001	-1.95021E-005	0.00000E+000	2.20000E-001	-7.79272E-004	10	..........a	-327.74
	287	0.096	2.11891E-001	-1.82488E-005	0.00000E+000	2.13000E-001	-7.79272E-004	10	..........a	-327.74
	294	0.098333	2.04866E-001	-1.90008E-005	0.00000E+000	2.06000E-001	-6.79272E-004	10	..........a	-327.74
	301	0.100667	1.97991E-001	-1.92514E-005	0.00000E+000	1.99000E-001	-7.29272E-004	10	..........a	-327.74
	308	0.103	1.90891E-001	-2.02540E-005	0.00000E+000	1.92000E-001	-7.79272E-004	10	..........a	-327.74
	315	0.105333	1.83916E-001	-1.87501E-005	0.00000E+000	1.85000E-001	-7.79272E-004	10	..........a	-327.74
	322	0.107667	1.77041E-001	-2.25099E-005	0.00000E+000	1.78000E-001	-6.79272E-004	10	..........a	-327.74
	329	0.11	1.69841E-001	-2.20086E-005	0.00000E+000	1.71000E-001	-7.79272E-004	10	..........a	-327.74
	336	0.112333	1.62966E-001	-1.97527E-005	0.00000E+000	1.64000E-001	-6.29272E-004	10	..........a	-327.74
	343	0.114667	1.56091E-001	-2.02540E-005	0.00000E+000	1.57000E-001	-8.29272E-004	10	..........a	-327.74
	350	0.117	1.48991E-001	-1.92514E-005	0.00000E+000	1.50000E-001	-5.79272E-004	10	..........a	-327.74
	357	0.119333	1.42066E-001	-2.25099E-005	0.00000E+000	1.43000E-001	-8.29272E-004	10	..........a	-327.74
	364	0.121667	1.35141E-001	-2.05047E-005	0.00000E+000	1.36000E-001	-8.29272E-004	10	..........a	-327.74
	371	0.124	1.27966E-001	-2.20086E-005	0.00000E+000	1.29000E-001	-8.29272E-004	10	..........a	-327.74
	378	0.126333	1.21066E-001	-2.05047E-005	0.00000E+000	1.22000E-001	-4.29272E-004	10	..........a	-327.74
	385	0.128667	1.14041E-001	-2.00034E-005	0.00000E+000	1.15000E-001	-8.29272E-004	10	..........a	-327.74
	392	0.131	1.07041E-001	-2.07553E-005	0.00000E+000	1.08000E-001	-5.79272E-004	10	..........a	-327.74
	399	0.133333	1.00066E-001	-2.17579E-005	0.00000E+000	1.01000E-001	-7.79272E-004	10	..........a	-327.74
	406	0.135667	9.28660E-002	-2.22592E-005	0.00000E+000	9.40000E-002	-7.29272E-004	10	..........a	-327.74
	413	0.138	8.60910E-002	-2.27605E-005	0.00000E+000	8.70000E-002	-7.79272E-004	10	..........a	-327.74
	420	0.140333	7.89660E-002	-2.27605E-005	0.00000E+000	8.00000E-002	-5.29272E-004	10	..........a	-327.74
	427	0.142667	7.19410E-002	-2.32618E-005	0.00000E+000	7.30000E-002	-8.79272E-004	10	..........a	-327.74
	434	0.145	6.50910E-002	-2.22592E-005	0.00000E+000	6.60000E-002	-7.79272E-004	10	..........a	-327.74
	441	0.147333	5.80660E-002	-2.25099E-005	0.00000E+000	5.90000E-002	-8.29272E-004	10	..........a	-327.74
	448	0.149667	5.10660E-002	-2.05047E-005	0.00000E+000	5.20000E-002	-7.79272E-004	10	..........a	-327.74
	455	0.152	4.38910E-002	-2.30112E-005	0.00000E+000	4.50000E-002	-6.29272E-004	10	..........a	-327.74
	462	0.154333	3.68660E-002	-2.17579E-005	0.00000E+000	3.80000E-002	-7.79272E-004	10	..........a	-327.74
	469	0.156667	3.00910E-002	-2.27605E-005	0.00000E+000	3.10000E-002	-6.29272E-004	10	..........a	-327.74
	476	0.159	2.31410E-002	-2.25099E-005	0.00000E+000	2.40000E-002	-6.79272E-004	10	..........a	-327.74
	483	0.161333	1.59910E-002	-2.07553E-005	0.00000E+000	1.70000E-002	-7.79272E-004	10	..........a	-327.74
	490	0.163667	8.99100E-003	-2.42644E-005	0.00000E+000	9.99999E-003	-6.29272E-004	10	..........a	-327.74
	497	0.166	2.06600E-003	-2.27605E-005	0.00000E+000	2.99999E-003	-8.29272E-004	10	..........a	-327.74
	504	0.168333	-5.03400E-003	-2.42644E-005	0.00000E+000	-4.00001E-003	-8.29272E-004	10	..........a	-327.74
	511	0.170667	-1.20090E-002	-2.30112E-005	0.00000E+000	-1.10000E-002	-7.79272E-004	10	..........a	-327.74
	518	0.173	-1.91090E-002	-2.07553E-005	0.00000E+000	-1.80000E-002	-7.79272E-004	10	..........a	-327.74
	525	0.175333	-2.60090E-002	-2.27605E-005	0.00000E+000	-2.50000E-002	-8.29272E-004	10	..........a	-327.74
	532	0.177667	-3.30090E-002	-2.27605E-005	0.00000E+000	-3.20000E-002	-6.29272E-004	10	..........a	-327.74
	539	0.18	-3.99340E-002	-2.52670E-005	0.00000E+000	-3.90000E-002	-8.29272E-004	10	..........a	-327.74
	546	0.182333	-4.70090E-002	-2.37631E-005	0.00000E+000	-4.60000E-002	-6.29272E-004	10	..........a	-327.74
	553	0.184667	-5.39090E-002	-2.52670E-005	0.00000E+000	-5.30000E-002	-8.29272E-004	10	..........a	-327.74
	560	0.187	-6.11090E-002	-2.32618E-005	0.00000E+000	-6.00000E-002	-8.29272E-004	10	..........a	-327.74
	567	0.189333	-6.79090E-002	-2.32618E-005	0.00000E+000	-6.70000E-002	-6.79272E-004	10	..........a	-327.74
	574	0.191667	-7.49590E-002	-2.35125E-005	0.00000E+000	-7.40000E-002	-7.29272E-004	10	..........a	-327.74
	581	0.194	-8.19090E-002	-2.47657E-005	0.00000E+000	-8.10000E-002	-7.79272E-004	10	..........a	-327.74
	588	0.196333	-8.88340E-002	-2.37631E-005	0.00000E+000	-8.80000E-002	-7.79272E-004	10	..........a	-327.74
	595	0.198667	-9.59090E-002	-2.25099E-005	0.00000E+000	-9.50000E-002	-8.29272E-004	10	..........a	-327.74
	602	0.201	-1.02859E-001	-2.35125E-005	0.00000E+000	-1.02000E-001	-7.79272E-004	10	..........a	-327.74
	609	0.203333	-1.09909E-001	-2.47657E-005	0.00000E+000	-1.09000E-001	-6.29272E-004	10	..........a	-327.74
	616	0.205667	-1.17034E-001	-2.30112E-005	0.00000E+000	-1.16000E-001	-5.29272E-004	10	..........a	-327.74
	623	0.208	-1.23959E-001	-2.60190E-005	0.00000E+000	-1.23000E-001	-8.29272E-004	10	..........a	-327.74
	630	0.210333	-1.31109E-001	-2.57683E-005	0.00000E+000	-1.30000E-001	-7.79272E-004	10	..........a	-327.74
	637	0.212667	-1.37934E-001	-2.70215E-005	0.00000E+000	-1.37000E-001	-7.79272E-004	10	..........a	-327.74
	644	0.215	-1.44959E-001	-2.47657E-005	0.00000E+000	-1.44000E-001	-8.29272E-004	10	..........a	-327.74
	651	0.217333	-1.51934E-001	-2.40138E-005	0.00000E+000	-1.51000E-001	-7.79272E-004	10	..........a	-327.74
	658	0.219667	-1.58809E-001	-2.30112E-005	0.00000E+000	-1.58000E-001	-7.79272E-004	10	..........a	-327.74
	665	0.222	-1.65934E-001	-2.52670E-005	0.00000E+000	-1.65000E-001	-8.29272E-004	10	..........a	-327.74
	672	0.224333	-1.72959E-001	-2.37631E-005	0.00000E+000	-1.72000E-001	-8.29272E-004	10	..........a	-327.74
	679	0.226667	-1.79809E-001	-2.32618E-005	0.00000E+000	-1.79000E-001	-6.29272E-004	10	..........a	-327.74
	686	0.229	-1.87134E-001	-2.72722E-005	0.00000E+000	-1.86000E-001	-7.29272E-004	10	..........a	-327.74
	693	0.231333	-1.93959E-001	-2.60190E-005	0.00000E+000	-1.93000E-001	-5.79272E-004	10	..........a	-327.74
	700	0.233667	-2.00934E-001	-2.55177E-005	0.00000E+000	-2.00000E-001	-8.29272E-004	10	..........a	-327.74
	707	0.236	-2.07909E-001	-2.62696E-005	0.00000E+000	-2.07000E-001	-8.29272E-004	10	..........a	-327.74
	714	0.238333	-2.14709E-001	-2.80241E-005	0.00000E+000	-2.14000E-001	-8.29272E-004	10	..........a	-327.74
	721	0.240667	-2.21909E-001	-2.87761E-005	0.00000E+000	-2.21000E-001	-8.29272E-004	10	..........a	-327.74
	728	0.243	-2.29034E-001	-2.77735E-005	0.00000E+000	-2.28000E-001	-6.79272E-004	10	..........a	-327.74
	735	0.245333	-2.35834E-001	-2.72722E-005	0.00000E+000	-2.35000E-001	-8.29272E-004	10	..........a	-327.74
	742	0.247667	-2.42734E-001	-2.72722E-005	0.00000E+000	-2.42000E-001	-7.79272E-004	10	..........a	-327.74
	749	0.25	-2.49909E-001	-2.72722E-005	0.00000E+000	-2.49000E-001	-8.29272E-004	10	..........a	-327.74
	756	0.252333	-2.56759E-001	-3.12826E-005	0.00000E+000	-2.56000E-001	-5.79272E-004	10	..........a	-327.74
	763	0.254667	-2.63909E-001	-2.82748E-005	0.00000E+000	-2.63000E-001	-8.29272E-004	10	..........a	-327.74
	770	0.257	-2.70909E-001	-3.20345E-005	0.00000E+000	-2.70000E-001	-6.29272E-004	10	..........a	-327.74
	777	0.259333	-2.77884E-001	-3.05306E-005	0.00000E+000	-2.77000E-001	-7.79272E-004	10	..........a	-327.74
	784	0.261667	-2.84834E-001	-3.35384E-005	0.00000E+000	-2.84000E-001	-6.29272E-004	10	..........a	-327.74
	791	0.264	-2.91734E-001	-3.40397E-005	0.00000E+000	-2.91000E-001	-7.79272E-004	10	..........a	-327.74
	798	0.266333	-2.98784E-001	-3.20345E-005	0.00000E+000	-2.98000E-001	-8.29272E-004	10	..........a	-327.74
	805	0.268667	-3.05884E-001	-3.67968E-005	0.00000E+000	-3.05000E-001	-6.79272E-004	10	..........a	-327.74
	812	0.271	-3.12934E-001	-3.65462E-005	0.00000E+000	-3.12000E-001	-8.29272E-004	10	..........a	-327.74
	819	0.273333	-3.19934E-001	-3.67968E-005	0.00000E+000	-3.19000E-001	-8.29272E-004	10	..........a	-327.74
	826	0.275667	-3.26784E-001	-3.85514E-005	0.00000E+000	-3.26000E-001	-7.79272E-004	10	..........a	-327.74
	833	0.278	-3.33909E-001	-4.08072E-005	0.00000E+000	-3.33000E-001	-8.29272E-004	10	..........a	-327.74
	840	0.280333	-3.40834E-001	-4.25618E-005	0.00000E+000	-3.40000E-001	-8.79272E-004	10	..........a	-327.74
	847	0.282667	-3.47834E-001	-4.23111E-005	0.00000E+000	-3.47000E-001	-8.29272E-004	10	..........a	-327.74
	854	0.285	-3.54784E-001	-4.40656E-005	0.00000E+000	-3.54000E-001	-7.79272E-004	10	..........a	-327.74
	861	0.287333	-3.61909E-001	-4.70734E-005	0.00000E+000	-3.61000E-001	-8.29272E-004	10	..........a	-327.74
	868	0.289667	-3.68834E-001	-4.78254E-005	0.00000E+000	-3.68000E-001	-7.79272E-004	10	..........a	-327.74
	875	0.292	-3.75784E-001	-5.13345E-005	0.00000E+000	-3.75000E-001	-6.29272E-004	10	..........a	-327.74
	882	0.294333	-3.82709E-001	-5.63474E-005	0.00000E+000	-3.82000E-001	-8.29272E-004	10	..........a	-327.74
	889	0.296667	-3.89834E-001	-6.03578E-005	0.00000E+000	-3.89000E-001	-8.29272E-004	10	..........a	-327.74
	896	0.299	-3.96809E-001	-6.61227E-005	0.00000E+000	-3.96000E-001	-7.29272E-004	10	..........a	-327.74
	903	0.301333	-4.03809E-001	-7.28902E-005	0.00000E+000	-4.03000E-001	-5.79272E-004	10	..........a	-327.74
	910	0.303667	-4.10759E-001	-8.04097E-005	0.00000E+000	-4.10000E-001	-5.79272E-004	10	..........a	-327.74
	917	0.306	-4.17734E-001	-8.94330E-005	0.00000E+000	-4.17000E-001	-7.29272E-004	10	..........a	-327.74
	924	0.308333	-4.24759E-001	-1.01715E-004	0.00000E+000	-4.24000E-001	-8.29272E-004	10	..........a	-327.74
	931	0.310667	-4.31859E-001	-1.17004E-004	0.00000E+000	-4.31000E-001	-5.79272E-004	10	..........a	-327.74
	938	0.313	-4.38834E-001	-1.34299E-004	0.00000E+000	-4.38000E-001	-5.29272E-004	10	..........a	-327.74
	945	0.315333	-4.45709E-001	-1.52346E-004	0.00000E+000	-4.45000E-001	-5.29272E-004	10	..........a	-327.74
	952	0.317667	-4.52759E-001	-1.76408E-004	0.00000E+000	-4.52000E-001	-8.29272E-004	10	..........a	-327.74
	959	0.32	-4.59659E-001	-2.05483E-004	0.00000E+000	-4.59000E-001	-6.29272E-004	10	..........a	-327.74
	966	0.322333	-4.66734E-001	-2.37817E-004	0.00000E+000	-4.66000E-001	-7.79272E-004	10	..........a	-327.74
	973	0.324667	-4.73734E-001	-2.77921E-004	0.00000E+000	-4.73000E-001	-6.29272E-004	10	..........a	-327.74
	980	0.327	-4.80759E-001	-3.25795E-004	0.00000E+000	-4.80000E-001	-8.29272E-004	10	..........a	-327.74
	987	0.329333	-4.87859E-001	-3.82190E-004	0.00000E+000	-4.87000E-001	-7.29272E-004	10	..........a	-327.74
	994	0.331667	-4.94709E-001	-4.49615E-004	0.00000E+000	-4.94000E-001	-6.29272E-004	10	..........a	-327.74
	1001	0.334	-5.01909E-001	-5.26313E-004	0.00000E+000	-5.01000E-001	-7.29272E-004	10	..........a	-327.74
	1008	0.336333	-5.08759E-001	-6.10531E-004	0.00000E+000	-5.08000E-001	-8.29272E-004	10	..........a	-327.74
	1015	0.338667	-5.15809E-001	-7.00013E-004	0.00000E+000	-5.15000E-001	-8.29272E-004	10	..........a	-327.74
	1022	0.341	-5.22909E-001	-7.99771E-004	0.00000E+000	-5.22000E-001	-6.29272E-004	10	..........a	-327.74
	1029	0.343333	-5.29784E-001	-8.99278E-004	0.00000E+000	-5.29000E-001	-7.79272E-004	10	..........a	-327.74
	1036	0.345667	-5.36734E-001	-1.00054E-003	0.00000E+000	-5.36000E-001	-7.29272E-004	10	..........a	-327.74
	1043	0.348	-5.43809E-001	-1.09579E-003	0.00000E+000	-5.43000E-001	-6.29272E-004	10	..........a	-327.74
	1050	0.350333	-5.50784E-001	-1.18402E-003	0.00000E+000	-5.50000E-001	-7.79272E-004	10	..........a	-327.74
	1057	0.352667	-5.57759E-001	-1.26272E-003	0.00000E+000	-5.57000E-001	-4.29272E-004	10	..........a	-327.74
	1064	0.355	-5.64734E-001	-1.33240E-003	0.00000E+000	-5.64000E-001	-5.79272E-004	10	..........a	-327.74
	1071	0.357333	-5.71659E-001	-1.39431E-003	0.00000E+000	-5.71000E-001	-7.29272E-004	10	..........a	-327.74
	1078	0.359667	-5.78734E-001	-1.43667E-003	0.00000E+000	-5.78000E-001	-7.79272E-004	10	..........a	-327.74
	1085	0.362	-5.85759E-001	-1.46524E-003	0.00000E+000	-5.85000E-001	-7.29272E-004	10	..........a	-327.74
	1092	0.364333	-5.92709E-001	-1.47201E-003	0.00000E+000	-5.92000E-001	-7.79272E-004	10	..........a	-327.74
	1099	0.366667	-5.99609E-001	-1.45020E-003	0.00000E+000	-5.99000E-001	-8.29272E-004	10	..........a	-327.74
	1106	0.369	-6.06709E-001	-1.41035E-003	0.00000E+000	-6.06000E-001	-7.79272E-004	10	..........a	-327.74
	1113	0.371333	-6.13909E-001	-1.35421E-003	0.00000E+000	-6.13000E-001	-8.29272E-004	10	..........a	-327.74
	1120	0.373667	-6.20909E-001	-1.29004E-003	0.00000E+000	-6.20000E-001	-5.79272E-004	10	..........a	-327.74
	1127	0.376	-6.27709E-001	-1.22863E-003	0.00000E+000	-6.27000E-001	-7.79272E-004	10	..........a	-327.74
	1134	0.378333	-6.34709E-001	-1.17299E-003	0.00000E+000	-6.34000E-001	-4.29272E-004	10	..........a	-327.74
	1141	0.380667	-6.41859E-001	-1.12561E-003	0.00000E+000	-6.41000E-001	-5.79272E-004	10	..........a	-327.74
	1148	0.383	-6.48709E-001	-1.08401E-003	0.00000E+000	-6.48000E-001	-8.29272E-004	10	..........a	-327.74
	1155	0.385333	-6.55634E-001	-1.04616E-003	0.00000E+000	-6.55000E-001	-7.79272E-004	10	..........a	-327.74
	1162	0.387667	-6.62709E-001	-1.00806E-003	0.00000E+000	-6.62000E-001	-8.29272E-004	10	..........a	-327.74
	1169	0.39	-6.69909E-001	-9.76979E-004	0.00000E+000	-6.69000E-001	-5.79272E-004	10	..........a	-327.74
	1176	0.392333	-6.76834E-001	-9.50160E-004	0.00000E+000	-6.76000E-001	-7.79272E-004	10	..........a	-327.74
	1183	0.394667	-6.83759E-001	-9.23341E-004	0.00000E+000	-6.83000E-001	-6.29272E-004	10	..........a	-327.74
	1190	0.397	-6.90809E-001	-9.01284E-004	0.00000E+000	-6.90000E-001	-5.79272E-004	10	..........a	-327.74
	1197	0.399333	-6.97834E-001	-8.77973E-004	0.00000E+000	-6.97000E-001	-7.79272E-004	10	..........a	-327.74
	1204	0.401667	-7.04734E-001	-8.57169E-004	0.00000E+000	-7.04000E-001	-8.29272E-004	10	..........a	-327.74
	1211	0.404	-7.11734E-001	-8.38120E-004	0.00000E+000	-7.11000E-001	-7.79272E-004	10	..........a	-327.74
	1218	0.406333	-7.18709E-001	-8.19071E-004	0.00000E+000	-7.18000E-001	-5.79272E-004	10	..........a	-327.74
	1225	0.408667	-7.25734E-001	-7.99019E-004	0.00000E+000	-7.25000E-001	-8.29272E-004	10	..........a	-327.74
	1232	0.411	-7.32709E-001	-7.82727E-004	0.00000E+000	-7.32000E-001	-7.29272E-004	10	..........a	-327.74
	1239	0.413333	-7.39634E-001	-7.65933E-004	0.00000E+000	-7.39000E-001	-7.79272E-004	10	..........a	-327.74
	1246	0.415667	-7.46709E-001	-7.52148E-004	0.00000E+000	-7.46000E-001	-7.29272E-004	10	..........a	-327.74
	1253	0.418	-7.53534E-001	-7.36357E-004	0.00000E+000	-7.53000E-001	-7.79272E-004	10	..........a	-327.74
	1260	0.420333	-7.60709E-001	-7.27333E-004	0.00000E+000	-7.60000E-001	-6.29272E-004	10	..........a	-327.74
	1267	0.422667	-7.67734E-001	-7.13798E-004	0.00000E+000	-7.67000E-001	-7.79272E-004	10	..........a	-327.74
	1274	0.425	-7.74609E-001	-6.99261E-004	0.00000E+000	-7.74000E-001	-8.29272E-004	10	..........a	-327.74
	1281	0.427333	-7.81709E-001	-6.91741E-004	0.00000E+000	-7.81000E-001	-6.29272E-004	10	..........a	-327.74
	1288	0.429667	-7.88634E-001	-6.77454E-004	0.00000E+000	-7.88000E-001	-6.29272E-004	10	..........a	-327.74
	1295	0.432	-7.95509E-001	-6.65423E-004	0.00000E+000	-7.95000E-001	-7.29272E-004	10	..........a	-327.74
	1302	0.434333	-8.02709E-001	-6.55147E-004	0.00000E+000	-8.02000E-001	-7.29272E-004	10	..........a	-327.74
	1309	0.436667	-8.09734E-001	-6.49883E-004	0.00000E+000	-8.09000E-001	-7.79272E-004	10	..........a	-327.74
	1316	0.439	-8.16709E-001	-6.38855E-004	0.00000E+000	-8.16000E-001	-7.79272E-004	10	..........a	-327.74
	1323	0.441333	-8.23634E-001	-6.29581E-004	0.00000E+000	-8.23000E-001	-7.79272E-004	10	..........a	-327.74
	1330	0.443667	-8.30709E-001	-6.20557E-004	0.00000E+000	-8.30000E-001	-7.79272E-004	10	..........a	-327.74
	1337	0.446	-8.37609E-001	-6.12035E-004	0.00000E+000	-8.37000E-001	-7.79272E-004	10	..........a	-327.74
	1344	0.448333	-8.44709E-001	-6.03012E-004	0.00000E+000	-8.44000E-001	-7.29272E-004	10	..........a	-327.74
	1351	0.450667	-8.51659E-001	-5.93738E-004	0.00000E+000	-8.51000E-001	-8.29272E-004	10	..........a	-327.74
	1358	0.453	-8.58684E-001	-5.89727E-004	0.00000E+000	-8.58000E-001	-6.79272E-004	10	..........a	-327.74
	1365	0.455333	-8.65534E-001	-5.81205E-004	0.00000E+000	-8.65000E-001	-8.29272E-004	10	..........a	-327.74
	1372	0.457667	-8.72384E-001	-5.73185E-004	0.00000E+000	-8.72000E-001	-7.79272E-004	10	..........a	-327.74
	1379	0.46	-8.79609E-001	-5.65665E-004	0.00000E+000	-8.79000E-001	-7.79272E-004	10	..........a	-327.74
	1386	0.462333	-8.86709E-001	-5.58647E-004	0.00000E+000	-8.86000E-001	-8.29272E-004	10	..........a	-327.74
	1393	0.464667	-8.93534E-001	-5.52130E-004	0.00000E+000	-8.93000E-001	-7.79272E-004	10	..........a	-327.74
	1400	0.467	-9.00509E-001	-5.48872E-004	0.00000E+000	-9.00000E-001	-7.79272E-004	10	..........a	-327.74
	1407	0.469333	-9.07509E-001	-5.39848E-004	0.00000E+000	-9.07000E-001	-7.79272E-004	10	..........a	-327.74
	1414	0.471667	-9.14634E-001	-5.35337E-004	0.00000E+000	-9.14000E-001	-8.29272E-004	10	..........a	-327.74
	1421	0.474	-9.21559E-001	-5.29822E-004	0.00000E+000	-9.21000E-001	-5.79272E-004	10	..........a	-327.74
	1428	0.476333	-9.28459E-001	-5.23306E-004	0.00000E+000	-9.28000E-001	-6.29272E-004	10	..........a	-327.74
	1435	0.478667	-9.35559E-001	-5.16789E-004	0.00000E+000	-9.35000E-001	-7.79272E-004	10	..........a	-327.74
	1442	0.481	-9.42634E-001	-5.12778E-004	0.00000E+000	-9.42000E-001	-7.79272E-004	10	..........a	-327.74
	1449	0.483333	-9.49559E-001	-5.07765E-004	0.00000E+000	-9.49000E-001	-7.79272E-004	10	..........a	-327.74
	1456	0.485667	-9.56709E-001	-5.03755E-004	0.00000E+000	-9.56000E-001	-7.79272E-004	10	..........a	-327.74
	1463	0.488	-9.63534E-001	-4.99243E-004	0.00000E+000	-9.63000E-001	-6.79272E-004	10	..........a	-327.74
	1470	0.490333	-9.70534E-001	-4.93729E-004	0.00000E+000	-9.70000E-001	-8.29272E-004	10	..........a	-327.74
	1477	0.492667	-9.77509E-001	-4.89719E-004	0.00000E+000	-9.77000E-001	-5.29272E-004	10	..........a	-327.74
	1484	0.495	-9.84434E-001	-4.87964E-004	0.00000E+000	-9.84000E-001	-7.79272E-004	10	..........a	-327.74
	1491	0.497333	-9.91534E-001	-4.82199E-004	0.00000E+000	-9.91000E-001	-6.79272E-004	10	..........a	-327.74
	1498	0.499667	-9.98559E-001	-4.80695E-004	0.00000E+000	-9.98000E-001	-5.79272E-004	10	..........a	-327.74
	1505	0.502	-9.95534E-001	-4.39589E-004	0.00000E+000	-9.95000E-001	-7.79272E-004	10	..........a	-327.74
	1512	0.504333	-9.88609E-001	-4.13522E-004	0.00000E+000	-9.88000E-001	-8.29272E-004	10	..........a	-327.74
	1519	0.506667	-9.81334E-001	-3.99485E-004	0.00000E+000	-9.81000E-001	-8.29272E-004	10	..........a	-327.74
	1526	0.509	-9.74634E-001	-3.86953E-004	0.00000E+000	-9.74000E-001	-7.79272E-004	10	..........a	-327.74
	1533	0.511333	-9.67534E-001	-3.80436E-004	0.00000E+000	-9.67000E-001	-8.29272E-004	10	..........a	-327.74
	1540	0.513667	-9.60634E-001	-3.69157E-004	0.00000E+000	-9.60000E-001	-5.79272E-004	10	..........a	-327.74
	1547	0.516	-9.53509E-001	-3.60384E-004	0.00000E+000	-9.53000E-001	-7.79272E-004	10	..........a	-327.74
	1554	0.518333	-9.46709E-001	-3.57376E-004	0.00000E+000	-9.46000E-001	-6.79272E-004	10	..........a	-327.74
	1561	0.520667	-9.39559E-001	-3.48604E-004	0.00000E+000	-9.39000E-001	-7.79272E-004	10	..........a	-327.74
	1568	0.523	-9.32734E-001	-3.44343E-004	0.00000E+000	-9.32000E-001	-7.79272E-004	10	..........a	-327.74
	1575	0.525333	-9.25609E-001	-3.39079E-004	0.00000E+000	-9.25000E-001	-9.29272E-004	10	..........a	-327.74
	1582	0.527667	-9.18559E-001	-3.35820E-004	0.00000E+000	-9.18000E-001	-8.29272E-004	10	..........a	-327.74
	1589	0.53	-9.11659E-001	-3.29304E-004	0.00000E+000	-9.11000E-001	-8.29272E-004	10	..........a	-327.74
	1596	0.532333	-9.04609E-001	-3.26045E-004	0.00000E+000	-9.04000E-001	-8.29272E-004	10	..........a	-327.74
	1603	0.534667	-8.97534E-001	-3.21784E-004	0.00000E+000	-8.97000E-001	-7.79272E-004	10	..........a	-327.74
	1610	0.537	-8.90634E-001	-3.17523E-004	0.00000E+000	-8.90000E-001	-8.29272E-004	10	..........a	-327.74
	1617	0.539333	-8.83509E-001	-3.14014E-004	0.00000E+000	-8.83000E-001	-7.79272E-004	10	..........a	-327.74
	1624	0.541667	-8.76609E-001	-3.10505E-004	0.00000E+000	-8.76000E-001	-8.29272E-004	10	..........a	-327.74
	1631	0.544	-8.69509E-001	-3.09001E-004	0.00000E+000	-8.69000E-001	-7.79272E-004	10	..........a	-327.74
	1638	0.546333	-8.62709E-001	-3.04740E-004	0.00000E+000	-8.62000E-001	-7.29272E-004	10	..........a	-327.74
	1645	0.548667	-8.55509E-001	-3.00730E-004	0.00000E+000	-8.55000E-001	-5.79272E-004	10	..........a	-327.74
	1652	0.551	-8.48609E-001	-2.98975E-004	0.00000E+000	-8.48000E-001	-6.79272E-004	10	..........a	-327.74
	1659	0.553333	-8.41559E-001	-2.94714E-004	0.00000E+000	-8.41000E-001	-5.79272E-004	10	..........a	-327.74
	1666	0.555667	-8.34709E-001	-2.90704E-004	0.00000E+000	-8.34000E-001	-8.29272E-004	10	..........a	-327.74
	1673	0.558	-8.27559E-001	-2.87696E-004	0.00000E+000	-8.27000E-001	-8.29272E-004	10	..........a	-327.74
	1680	0.560333	-8.20734E-001	-2.83936E-004	0.00000E+000	-8.20000E-001	-6.29272E-004	10	..........a	-327.74
	1687	0.562667	-8.13809E-001	-2.81179E-004	0.00000E+000	-8.13000E-001	-7.79272E-004	10	..........a	-327.74
	1694	0.565	-8.06709E-001	-2.78171E-004	0.00000E+000	-8.06000E-001	-4.29272E-004	10	..........a	-327.74
	1701	0.567333	-7.99659E-001	-2.74161E-004	0.00000E+000	-7.99000E-001	-7.79272E-004	10	..........a	-327.74
	1708	0.569667	-7.92609E-001	-2.73660E-004	0.00000E+000	-7.92000E-001	-8.29272E-004	10	..........a	-327.74
	1715	0.572	-7.85684E-001	-2.72908E-004	0.00000E+000	-7.85000E-001	-8.29272E-004	10	..........a	-327.74
	1722	0.574333	-7.78734E-001	-2.68396E-004	0.00000E+000	-7.78000E-001	-7.79272E-004	10	..........a	-327.74
	1729	0.576667	-7.71634E-001	-2.63884E-004	0.00000E+000	-7.71000E-001	-8.29272E-004	10	..........a	-327.74
	1736	0.579	-7.64709E-001	-2.59874E-004	0.00000E+000	-7.64000E-001	-7.29272E-004	10	..........a	-327.74
	1743	0.581333	-7.57709E-001	-2.61629E-004	0.00000E+000	-7.57000E-001	-7.29272E-004	10	..........a	-327.74
	1750	0.583667	-7.50709E-001	-2.57117E-004	0.00000E+000	-7.50000E-001	-8.29272E-004	10	..........a	-327.74
	1757	0.586	-7.43634E-001	-2.54109E-004	0.00000E+000	-7.43000E-001	-7.79272E-004	10	..........a	-327.74
	1764	0.588333	-7.36634E-001	-2.49848E-004	0.00000E+000	-7.36000E-001	-8.29272E-004	10	..........a	-327.74
	1771	0.590667	-7.29784E-001	-2.47843E-004	0.00000E+000	-7.29000E-001	-8.29272E-004	10	..........a	-327.74
	1778	0.593	-7.22734E-001	-2.45336E-004	0.00000E+000	-7.22000E-001	-7.29272E-004	10	..........a	-327.74
	1785	0.595333	-7.15659E-001	-2.41577E-004	0.00000E+000	-7.15000E-001	-6.29272E-004	10	..........a	-327.74
	1792	0.597667	-7.08734E-001	-2.39571E-004	0.00000E+000	-7.08000E-001	-8.29272E-004	10	..........a	-327.74
	1799	0.6	-7.01809E-001	-2.34057E-004	0.00000E+000	-7.01000E-001	-8.29272E-004	10	..........a	-327.74
	1806	0.602333	-6.94709E-001	-2.31551E-004	0.00000E+000	-6.94000E-001	-8.29272E-004	10	..........a	-327.74
	1813	0.604667	-6.87659E-001	-2.27791E-004	0.00000E+000	-6.87000E-001	-6.29272E-004	10	..........a	-327.74
	1820	0.607	-6.80734E-001	-2.22527E-004	0.00000E+000	-6.80000E-001	-7.29272E-004	10	..........a	-327.74
	1827	0.609333	-6.73509E-001	-2.18768E-004	0.00000E+000	-6.73000E-001	-5.79272E-004	10	..........a	-327.74
	1834	0.611667	-6.66659E-001	-2.12752E-004	0.00000E+000	-6.66000E-001	-8.29272E-004	10	..........a	-327.74
	1841	0.614	-6.59584E-001	-2.05233E-004	0.00000E+000	-6.59000E-001	-5.79272E-004	10	..........a	-327.74
	1848	0.616333	-6.52809E-001	-2.00470E-004	0.00000E+000	-6.52000E-001	-8.29272E-004	10	..........a	-327.74
	1855	0.618667	-6.45709E-001	-1.92951E-004	0.00000E+000	-6.45000E-001	-9.29272E-004	10	..........a	-327.74
	1862	0.621	-6.38734E-001	-1.81922E-004	0.00000E+000	-6.38000E-001	-7.79272E-004	10	..........a	-327.74
	1869	0.623333	-6.31609E-001	-1.71646E-004	0.00000E+000	-6.31000E-001	-7.79272E-004	10	..........a	-327.74
	1876	0.625667	-6.24609E-001	-1.61870E-004	0.00000E+000	-6.24000E-001	-6.79272E-004	10	..........a	-327.74
	1883	0.628	-6.17709E-001	-1.46832E-004	0.00000E+000	-6.17000E-001	-7.79272E-004	10	..........a	-327.74
	1890	0.630333	-6.10659E-001	-1.32043E-004	0.00000E+000	-6.10000E-001	-6.29272E-004	10	..........a	-327.74
	1897	0.632667	-6.03759E-001	-1.17004E-004	0.00000E+000	-6.03000E-001	-7.79272E-004	10	..........a	-327.74
	1904	0.635	-5.96709E-001	-9.06863E-005	0.00000E+000	-5.96000E-001	-7.79272E-004	10	..........a	-327.74
	1911	0.637333	-5.89809E-001	-6.86292E-005	0.00000E+000	-5.89000E-001	-7.79272E-004	10	..........a	-327.74
	1918	0.639667	-5.82709E-001	-3.32878E-005	0.00000E+000	-5.82000E-001	-7.79272E-004	10	..........a	-327.74
	1925	0.642	-5.75934E-001	4.05887E-006	0.00000E+000	-5.75000E-001	-7.79272E-004	10	..........a	-327.74
	1932	0.644333	-5.68634E-001	5.01782E-005	0.00000E+000	-5.68000E-001	-8.29272E-004	10	..........a	-327.74
	1939	0.646667	-5.61734E-001	1.01561E-004	0.00000E+000	-5.61000E-001	-8.29272E-004	10	..........a	-327.74
	1946	0.649	-5.54734E-001	1.65226E-004	0.00000E+000	-5.54000E-001	-7.79272E-004	10	..........a	-327.74
	1953	0.651333	-5.47584E-001	2.40922E-004	0.00000E+000	-5.47000E-001	-7.29272E-004	10	..........a	-327.74
	1960	0.653667	-5.40734E-001	3.34414E-004	0.00000E+000	-5.40000E-001	-8.29272E-004	10	..........a	-327.74
	1967	0.656	-5.33759E-001	4.36929E-004	0.00000E+000	-5.33000E-001	-7.79272E-004	10	..........a	-327.74
	1974	0.658333	-5.26809E-001	5.50974E-004	0.00000E+000	-5.26000E-001	-6.29272E-004	10	..........a	-327.74
	1981	0.660667	-5.19834E-001	6.75797E-004	0.00000E+000	-5.19000E-001	-7.79272E-004	10	..........a	-327.74
	1988	0.663	-5.12709E-001	7.98865E-004	0.00000E+000	-5.12000E-001	-8.29272E-004	10	..........a	-327.74
	1995	0.665333	-5.05859E-001	9.11406E-004	0.00000E+000	-5.05000E-001	-7.29272E-004	10	..........a	-327.74
	2002	0.667667	-4.98734E-001	1.00866E-003	0.00000E+000	-4.98000E-001	-7.79272E-004	10	..........a	-327.74
	2009	0.67	-4.91634E-001	1.08009E-003	0.00000E+000	-4.91000E-001	-6.29272E-004	10	..........a	-327.74
	2016	0.672333	-4.84784E-001	1.12020E-003	0.00000E+000	-4.84000E-001	-8.29272E-004	10	..........a	-327.74
	2023	0.674667	-4.77809E-001	1.12897E-003	0.00000E+000	-4.77000E-001	-8.29272E-004	10	..........a	-327.74
	2030	0.677	-4.70709E-001	1.11468E-003	0.00000E+000	-4.70000E-001	-7.29272E-004	10	..........a	-327.74
	2037	0.679333	-4.63834E-001	1.07834E-003	0.00000E+000	-4.63000E-001	-8.29272E-004	10	..........a	-327.74
	2044	0.681667	-4.56809E-001	1.03272E-003	0.00000E+000	-4.56000E-001	-8.29272E-004	10	..........a	-327.74
	2051	0.684	-4.49909E-001	9.75823E-004	0.00000E+000	-4.49000E-001	-8.29272E-004	10	..........a	-327.74
	2058	0.686333	-4.42834E-001	9.20430E-004	0.00000E+000	-4.42000E-001	-7.79272E-004	10	..........a	-327.74
	2065	0.688667	-4.35834E-001	8.65538E-004	0.00000E+000	-4.35000E-001	-8.29272E-004	10	..........a	-327.74
	2072	0.691	-4.28734E-001	8.16160E-004	0.00000E+000	-4.28000E-001	-7.79272E-004	10	..........a	-327.74
	2079	0.693333	-4.21734E-001	7.69289E-004	0.00000E+000	-4.21000E-001	-7.29272E-004	10	..........a	-327.74
	2086	0.695667	-4.14809E-001	7.27430E-004	0.00000E+000	-4.14000E-001	-8.29272E-004	10	..........a	-327.74
	2093	0.698	-4.07809E-001	6.89583E-004	0.00000E+000	-4.07000E-001	-7.79272E-004	10	..........a	-327.74
	2100	0.700333	-4.00759E-001	6.56998E-004	0.00000E+000	-4.00000E-001	-8.29272E-004	10	..........a	-327.74
	2107	0.702667	-3.93909E-001	6.26419E-004	0.00000E+000	-3.93000E-001	-7.29272E-004	10	..........a	-327.74
	2114	0.705	-3.86859E-001	6.01104E-004	0.00000E+000	-3.86000E-001	-8.29272E-004	10	..........a	-327.74
	2121	0.707333	-3.79909E-001	5.77292E-004	0.00000E+000	-3.79000E-001	-6.79272E-004	10	..........a	-327.74
	2128	0.709667	-3.72809E-001	5.56989E-004	0.00000E+000	-3.72000E-001	-8.29272E-004	10	..........a	-327.74
	2135	0.712	-3.65834E-001	5.35183E-004	0.00000E+000	-3.65000E-001	-7.29272E-004	10	..........a	-327.74
	2142	0.714333	-3.58734E-001	5.18390E-004	0.00000E+000	-3.58000E-001	-8.29272E-004	10	..........a	-327.74
	2149	0.716667	-3.51934E-001	5.00594E-004	0.00000E+000	-3.51000E-001	-6.29272E-004	10	..........a	-327.74
	2156	0.719	-3.44859E-001	4.85053E-004	0.00000E+000	-3.44000E-001	-7.79272E-004	10	..........a	-327.74
	2163	0.721333	-3.37909E-001	4.73524E-004	0.00000E+000	-3.37000E-001	-6.29272E-004	10	..........a	-327.74
	2170	0.723667	-3.30759E-001	4.57482E-004	0.00000E+000	-3.30000E-001	-8.29272E-004	10	..........a	-327.74
	2177	0.726	-3.23909E-001	4.46955E-004	0.00000E+000	-3.23000E-001	-7.79272E-004	10	..........a	-327.74
	2184	0.728333	-3.16809E-001	4.36428E-004	0.00000E+000	-3.16000E-001	-7.79272E-004	10	..........a	-327.74
	2191	0.730667	-3.09884E-001	4.22642E-004	0.00000E+000	-3.09000E-001	-8.29272E-004	10	..........a	-327.74
	2198	0.733	-3.02734E-001	4.17378E-004	0.00000E+000	-3.02000E-001	-7.79272E-004	10	..........a	-327.74
	2205	0.735333	-2.95834E-001	4.05347E-004	0.00000E+000	-2.95000E-001	-7.29272E-004	10	..........a	-327.74
	2212	0.737667	-2.88709E-001	3.99332E-004	0.00000E+000	-2.88000E-001	-7.29272E-004	10	..........a	-327.74
	2219	0.74	-2.81909E-001	3.87050E-004	0.00000E+000	-2.81000E-001	-7.79272E-004	10	..........a	-327.74
	2226	0.742333	-2.74959E-001	3.82037E-004	0.00000E+000	-2.74000E-001	-7.79272E-004	10	..........a	-327.74
	2233	0.744667	-2.67634E-001	3.71008E-004	0.00000E+000	-2.67000E-001	-7.79272E-004	10	..........a	-327.74
	2240	0.747	-2.60809E-001	3.66998E-004	0.00000E+000	-2.60000E-001	-7.29272E-004	10	..........a	-327.74
	2247	0.749333	-2.53909E-001	3.57975E-004	0.00000E+000	-2.53000E-001	-8.29272E-004	10	..........a	-327.74
	2254	0.751667	-2.46859E-001	3.54215E-004	0.00000E+000	-2.46000E-001	-8.29272E-004	10	..........a	-327.74
	2261	0.754	-2.40109E-001	3.49452E-004	0.00000E+000	-2.39000E-001	-8.29272E-004	10	..........a	-327.74
	2268	0.756333	-2.32834E-001	3.44941E-004	0.00000E+000	-2.32000E-001	-8.29272E-004	10	..........a	-327.74
	2275	0.758667	-2.25859E-001	3.38925E-004	0.00000E+000	-2.25000E-001	-8.29272E-004	10	..........a	-327.74
	2282	0.761	-2.18984E-001	3.31907E-004	0.00000E+000	-2.18000E-001	-8.29272E-004	10	..........a	-327.74
	2289	0.763333	-2.11834E-001	3.28649E-004	0.00000E+000	-2.11000E-001	-7.29272E-004	10	..........a	-327.74
	2296	0.765667	-2.04734E-001	3.23636E-004	0.00000E+000	-2.04000E-001	-7.79272E-004	10	..........a	-327.74
	2303	0.768	-1.97909E-001	3.18372E-004	0.00000E+000	-1.97000E-001	-8.29272E-004	10	..........a	-327.74
	2310	0.770333	-1.90709E-001	3.14362E-004	0.00000E+000	-1.90000E-001	-8.29272E-004	10	..........a	-327.74
	2317	0.772667	-1.83959E-001	3.07594E-004	0.00000E+000	-1.83000E-001	-7.79272E-004	10	..........a	-327.74
	2324	0.775	-1.76884E-001	3.06090E-004	0.00000E+000	-1.76000E-001	-8.29272E-004	10	..........a	-327.74
	2331	0.777333	-1.69909E-001	2.99323E-004	0.00000E+000	-1.69000E-001	-5.79272E-004	10	..........a	-327.74
	2338	0.779667	-1.63109E-001	2.98320E-004	0.00000E+000	-1.62000E-001	-7.79272E-004	10	..........a	-327.74
	2345	0.782	-1.55759E-001	2.93307E-004	0.00000E+000	-1.55000E-001	-8.29272E-004	10	..........a	-327.74
	2352	0.784333	-1.48909E-001	2.87292E-004	0.00000E+000	-1.48000E-001	-7.79272E-004	10	..........a	-327.74
	2359	0.786667	-1.41959E-001	2.84785E-004	0.00000E+000	-1.41000E-001	-5.79272E-004	10	..........a	-327.74
	2366	0.789	-1.34859E-001	2.79772E-004	0.00000E+000	-1.34000E-001	-7.79272E-004	10	..........a	-327.74
	2373	0.791333	-1.27984E-001	2.76514E-004	0.00000E+000	-1.27000E-001	-7.79272E-004	10	..........a	-327.74
	2380	0.793667	-1.21034E-001	2.72503E-004	0.00000E+000	-1.20000E-001	-8.29272E-004	10	..........a	-327.74
	2387	0.796	-1.13934E-001	2.71501E-004	0.00000E+000	-1.13000E-001	-7.79272E-004	10	..........a	-327.74
	2394	0.798333	-1.07109E-001	2.67992E-004	0.00000E+000	-1.06000E-001	-8.29272E-004	10	..........a	-327.74
	2401	0.800667	-9.99340E-002	2.64483E-004	0.00000E+000	-9.90000E-002	-6.29272E-004	10	..........a	-327.74
	2408	0.803	-9.31090E-002	2.62477E-004	0.00000E+000	-9.20000E-002	-7.79272E-004	10	..........a	-327.74
	2415	0.805333	-8.59840E-002	2.58968E-004	0.00000E+000	-8.50000E-002	-7.79272E-004	10	..........a	-327.74
	2422	0.807667	-7.88340E-002	2.56462E-004	0.00000E+000	-7.80000E-002	-7.79272E-004	10	..........a	-327.74
	2429	0.81	-7.19340E-002	2.53203E-004	0.00000E+000	-7.10000E-002	-7.79272E-004	10	..........a	-327.74
	2436	0.812333	-6.49590E-002	2.53203E-004	0.00000E+000	-6.40000E-002	-6.29272E-004	10	..........a	-327.74
	2443	0.814667	-5.79090E-002	2.48942E-004	0.00000E+000	-5.70000E-002	-8.29272E-004	10	..........a	-327.74
	2450	0.817	-5.11090E-002	2.45935E-004	0.00000E+000	-5.00000E-002	-8.29272E-004	10	..........a	-327.74
	2457	0.819333	-4.40340E-002	2.45433E-004	0.00000E+000	-4.30000E-002	-8.29272E-004	10	..........a	-327.74
	2464	0.821667	-3.70590E-002	2.40170E-004	0.00000E+000	-3.60000E-002	-8.29272E-004	10	..........a	-327.74
	2471	0.824	-3.00340E-002	2.39418E-004	0.00000E+000	-2.90000E-002	-8.29272E-004	10	..........a	-327.74
	2478	0.826333	-2.28590E-002	2.37914E-004	0.00000E+000	-2.20000E-002	-8.29272E-004	10	..........a	-327.74
	2485	0.828667	-1.59840E-002	2.34906E-004	0.00000E+000	-1.50000E-002	-8.29272E-004	10	..........a	-327.74
	2492	0.831	-8.90900E-003	2.31397E-004	0.00000E+000	-8.00000E-003	-8.29272E-004	10	..........a	-327.74
	2499	0.833333	-1.95900E-003	2.31146E-004	0.00000E+000	-1.00000E-003	-7.79272E-004	10	..........a	-327.74
	2506	0.835667	4.96600E-003	2.28640E-004	0.00000E+000	5.99998E-003	-8.29272E-004	10	..........a	-327.74
	2513	0.838	1.20660E-002	2.27637E-004	0.00000E+000	1.30000E-002	-8.29272E-004	10	..........a	-327.74
	2520	0.840333	1.89660E-002	2.25381E-004	0.00000E+000	2.00000E-002	-7.79272E-004	10	..........a	-327.74
	2527	0.842667	2.60410E-002	2.23126E-004	0.00000E+000	2.70000E-002	-6.29272E-004	10	..........a	-327.74
	2534	0.845	3.31410E-002	2.19617E-004	0.00000E+000	3.40000E-002	-8.29272E-004	10	..........a	-327.74
	2541	0.847333	4.00160E-002	2.18865E-004	0.00000E+000	4.10000E-002	-8.29272E-004	10	..........a	-327.74
	2548	0.849667	4.69910E-002	2.15857E-004	0.00000E+000	4.80000E-002	-8.29272E-004	10	..........a	-327.74
	2555	0.852	5.40910E-002	2.15356E-004	0.00000E+000	5.50000E-002	-8.29272E-004	10	..........a	-327.74
	2562	0.854333	6.09660E-002	2.13100E-004	0.00000E+000	6.20000E-002	-8.29272E-004	10	..........a	-327.74
	2569	0.856667	6.79910E-002	2.12598E-004	0.00000E+000	6.90000E-002	-8.29272E-004	10	..........a	-327.74
	2576	0.859	7.50410E-002	2.09340E-004	0.00000E+000	7.60000E-002	-7.79272E-004	10	..........a	-327.74
	2583	0.861333	8.20410E-002	2.06834E-004	0.00000E+000	8.30000E-002	-8.29272E-004	10	..........a	-327.74
	2590	0.863667	8.89160E-002	2.06834E-004	0.00000E+000	9.00000E-002	-7.29272E-004	10	..........a	-327.74
	2597	0.866	9.59660E-002	2.02071E-004	0.00000E+000	9.70000E-002	-6.29272E-004	10	..........a	-327.74
	2604	0.868333	1.02891E-001	2.03826E-004	0.00000E+000	1.04000E-001	-8.29272E-004	10	..........a	-327.74
	2611	0.870667	1.09941E-001	2.01570E-004	0.00000E+000	1.11000E-001	-7.79272E-004	10	..........a	-327.74
	2618	0.873	1.16866E-001	2.01319E-004	0.00000E+000	1.18000E-001	-6.29272E-004	10	..........a	-327.74
	2625	0.875333	1.23941E-001	1.97810E-004	0.00000E+000	1.25000E-001	-8.29272E-004	10	..........a	-327.74
	2632	0.877667	1.31041E-001	1.95554E-004	0.00000E+000	1.32000E-001	-7.29272E-004	10	..........a	-327.74
	2639	0.88	1.38041E-001	1.96056E-004	0.00000E+000	1.39000E-001	-8.29272E-004	10	..........a	-327.74
	2646	0.882333	1.45191E-001	1.92296E-004	0.00000E+000	1.46000E-001	-8.29272E-004	10	..........a	-327.74
	2653	0.884667	1.51866E-001	1.90541E-004	0.00000E+000	1.53000E-001	-4.29272E-004	10	..........a	-327.74
	2660	0.887	1.58891E-001	1.90040E-004	0.00000E+000	1.60000E-001	-7.79272E-004	10	..........a	-327.74
	2667	0.889333	1.66066E-001	1.88035E-004	0.00000E+000	1.67000E-001	-8.29272E-004	10	..........a	-327.74
	2674	0.891667	1.72891E-001	1.84526E-004	0.00000E+000	1.74000E-001	-6.29272E-004	10	..........a	-327.74
	2681	0.894	1.79866E-001	1.86531E-004	0.00000E+000	1.81000E-001	-8.29272E-004	10	..........a	-327.74
	2688	0.896333	1.86891E-001	1.83022E-004	0.00000E+000	1.88000E-001	-8.29272E-004	10	..........a	-327.74
	2695	0.898667	1.93941E-001	1.79012E-004	0.00000E+000	1.95000E-001	-8.29272E-004	10	..........a	-327.74
	2702	0.901	2.01191E-001	1.79513E-004	0.00000E+000	2.02000E-001	-8.29272E-004	10	..........a	-327.74
	2709	0.903333	2.07991E-001	1.78009E-004	0.00000E+000	2.09000E-001	-6.29272E-004	10	..........a	-327.74
	2716	0.905667	2.14941E-001	1.76505E-004	0.00000E+000	2.16000E-001	-7.79272E-004	10	..........a	-327.74
	2723	0.908	2.22091E-001	1.74500E-004	0.00000E+000	2.23000E-001	-8.29272E-004	10	..........a	-327.74
	2730	0.910333	2.28841E-001	1.72996E-004	0.00000E+000	2.30000E-001	-8.29272E-004	10	..........a	-327.74
	2737	0.912667	2.35991E-001	1.70239E-004	0.00000E+000	2.37000E-001	-8.29272E-004	10	..........a	-327.74
	2744	0.915	2.42891E-001	1.70740E-004	0.00000E+000	2.44000E-001	-7.29272E-004	10	..........a	-327.74
	2751	0.917333	2.49791E-001	1.68484E-004	0.00000E+000	2.51000E-001	-8.29272E-004	10	..........a	-327.74
	2758	0.919667	2.56891E-001	1.66980E-004	0.00000E+000	2.58000E-001	-7.79272E-004	10	..........a	-327.74
	2765	0.922	2.64016E-001	1.64975E-004	0.00000E+000	2.65000E-001	-8.29272E-004	10	..........a	-327.74
	2772	0.924333	2.70841E-001	1.65476E-004	0.00000E+000	2.72000E-001	-8.29272E-004	10	..........a	-327.74
	2779	0.926667	2.77966E-001	1.62970E-004	0.00000E+000	2.79000E-001	-6.79272E-004	10	..........a	-327.74
	2786	0.929	2.84866E-001	1.62970E-004	0.00000E+000	2.86000E-001	-8.29272E-004	10	..........a	-327.74
	2793	0.931333	2.91966E-001	1.61215E-004	0.00000E+000	2.93000E-001	-8.29272E-004	10	..........a	-327.74
	2800	0.933667	2.98891E-001	1.60213E-004	0.00000E+000	3.00000E-001	-8.29272E-004	10	..........a	-327.74
	2807	0.936	3.05891E-001	1.60213E-004	0.00000E+000	3.07000E-001	-8.29272E-004	10	..........a	-327.74
	2814	0.938333	3.12866E-001	1.59461E-004	0.00000E+000	3.14000E-001	-7.79272E-004	10	..........a	-327.74
	2821	0.940667	3.19866E-001	1.57456E-004	0.00000E+000	3.21000E-001	-7.79272E-004	10	..........a	-327.74
	2828	0.943	3.26891E-001	1.56954E-004	0.00000E+000	3.28000E-001	-8.29272E-004	10	..........a	-327.74
	2835	0.945333	3.33966E-001	1.55200E-004	0.00000E+000	3.35000E-001	-8.29272E-004	10	..........a	-327.74
	2842	0.947667	3.40891E-001	1.54699E-004	0.00000E+000	3.42000E-001	-6.29272E-004	10	..........a	-327.74
	2849	0.95	3.47866E-001	1.54197E-004	0.00000E+000	3.49000E-001	-7.79272E-004	10	..........a	-327.74
	2856	0.95233	3.54991E-001	1.55200E-004	0.00000E+000	3.56000E-001	-7.79272E-004	10	..........a	-327.74
	2863	0.95467	3.61766E-001	1.51440E-004	0.00000E+000	3.63000E-001	-7.79272E-004	10	..........a	-327.74
	2870	0.957	3.68866E-001	1.51190E-004	0.00000E+000	3.70000E-001	-7.79272E-004	10	..........a	-327.74
	2877	0.95933	3.75841E-001	1.50438E-004	0.00000E+000	3.77000E-001	-7.29272E-004	10	..........a	-327.74
	2884	0.96167	3.82891E-001	1.49435E-004	0.00000E+000	3.84000E-001	-8.29272E-004	10	..........a	-327.74
	2891	0.964	3.89941E-001	1.50939E-004	0.00000E+000	3.91000E-001	-7.79272E-004	10	..........a	-327.74
	2898	0.96633	3.96866E-001	1.49686E-004	0.00000E+000	3.98000E-001	-7.79272E-004	10	..........a	-327.74
	2905	0.96867	4.03866E-001	1.45926E-004	0.00000E+000	4.05000E-001	-7.79272E-004	10	..........a	-327.74
	2912	0.971	4.10891E-001	1.46929E-004	0.00000E+000	4.12000E-001	-7.79272E-004	10	..........a	-327.74
	2919	0.97333	4.17766E-001	1.43921E-004	0.00000E+000	4.19000E-001	-8.29272E-004	10	..........a	-327.74
	2926	0.97567	4.24891E-001	1.46177E-004	0.00000E+000	4.26000E-001	-6.79272E-004	10	..........a	-327.74
	2933	0.978	4.31941E-001	1.45174E-004	0.00000E+000	4.33000E-001	-8.29272E-004	10	..........a	-327.74
	2940	0.98033	4.38841E-001	1.44171E-004	0.00000E+000	4.40000E-001	-7.29272E-004	10	..........a	-327.74
	2947	0.98267	4.45766E-001	1.39660E-004	0.00000E+000	4.47000E-001	-8.29272E-004	10	..........a	-327.74
	2954	0.985	4.52891E-001	1.43921E-004	0.00000E+000	4.54000E-001	-8.29272E-004	10	..........a	-327.74
	2961	0.98733	4.59766E-001	1.40913E-004	0.00000E+000	4.61000E-001	-8.29272E-004	10	..........a	-327.74
	2968	0.98967	4.66841E-001	1.38156E-004	0.00000E+000	4.68000E-001	-8.29272E-004	10	..........a	-327.74
	2975	0.992	4.73866E-001	1.39660E-004	0.00000E+000	4.75000E-001	-7.79272E-004	10	..........a	-327.74
	2982	0.99433	4.80791E-001	1.37905E-004	0.00000E+000	4.82000E-001	-6.29272E-004	10	..........a	-327.74
	2989	0.99667	4.87791E-001	1.40161E-004	0.00000E+000	4.89000E-001	-7.79272E-004	10	..........a	-327.74
	2996	0.999	4.94841E-001	1.37655E-004	0.00000E+000	4.96000E-001	-8.79272E-004	10	..........a	-327.74
	3000	1.00033	4.98891E-001	1.39409E-004	0.00000E+000	5.00000E-001	-6.29272E-004	10	..........a	-327.74
CURVE2	TABLE
	Pt	T	Vf	Im	Vu	Sig	Ach	IERange	Over	Temp
	#	s	V vs. Ref.	A	V	V	V	#	bits	deg C
	3001	1.00067	4.98841E-001	1.35649E-004	0.00000E+000	5.00000E-001	-8.29272E-004	10	..........a	-327.74