File: data/02-SI/Figures_S9_S11_RDE/18btmapaq-rde/1mkcl-5mmolar18btmapaq-nitrogen-rde-900mvpers-50mvpers.DTA
EXPLAIN
TAG	LSV
TITLE	LABEL	Linear Sweep Voltammetry	Test &Identifier
DATE	LABEL	1/31/2023	Date
TIME	LABEL	15:28:49	Time
NOTES	NOTES	1	&Notes...

PSTAT	PSTAT	REF3000-21108	Potentiostat
VINIT	POTEN	5.00000E-001	F	&Initial E (V)
VFINAL	POTEN	-1.00000E+000	F	&Final E (V)
SCANRATE	QUANT	4.99999E+001	&Scan Rate (mV/s)
STEPSIZE	QUANT	1.00000E-001	St&ep Size (mV)
IMODE	SELECTOR	0	I/E Range &Mode
IRANGE	QUANT	1.00000E+002	&Max Current (mA)
AREA	QUANT	1.00000E+000	Electrode &Area (cm^2)
ELECTRODETYPE	SELECTOR	0	Electrode Type
STRIPPING	TOGGLE	F	Used for Stripping
POLARITY	TOGGLE	F	Signal Polarity
CONDIT	TWOPARAM	F	1.50000E+001	0.00000E+000	Conditionin&g	Time(s)	E(V)
DELAY	TWOPARAM	F	3.00000E+001	0.00000E+000	Init. De&lay	Time(s)	Stab.(mV/s)
EQDELAY	QUANT	0.00000E+000	Equil. &Time (s)
IRCOMP	SELECTOR	0	IRCom&p
PFCOR	QUANT	5.00000E+001	PF Corr. (ohm)
SAMPLINGMODE	SELECTOR	1	Sampling &Mode
EOC	QUANT	0	Open Circuit (V)
PSTATMODEL	IQUANT	5	Pstat Model
PSTATSECTION	LABEL	REF3000-21108	Pstat Section
PSTATSERIALNO	LABEL	21108	Pstat Serial Number
CTRLMODE	IQUANT	1	Control Mode
ELECTROMETER	IQUANT	0	RE=0 or CS=1
IESTAB	IQUANT	2	I/E Stability
CASPEED	IQUANT	4	Control Amp Speed
CONVENTION	IQUANT	1	Current Convention
ICHRANGE	IQUANT	2	Ich Range
ICHRANGEMODE	TOGGLE	F	Ich Auto Range
ICHOFFSETENABLE	TOGGLE	F	Ich Offset Enable
ICHOFFSET	QUANT	0	Ich Offset (V)
ICHFILTER	IQUANT	2	Ich Filter
VCHRANGE	IQUANT	2	Vch Range
VCHRANGEMODE	TOGGLE	T	Vch Auto Range
VCHOFFSETENABLE	TOGGLE	F	Vch Offset Enable
VCHOFFSET	QUANT	0	Vch Offset (V)
VCHFILTER	IQUANT	2	Vch Filter
ACHRANGE	IQUANT	2	Ach Range
ACHOFFSETENABLE	TOGGLE	F	Ach Offset Enable
ACHOFFSET	QUANT	0	Ach Offset (V)
ACHFILTER	IQUANT	0	Ach Filter
IERANGELOWERLIMIT	IQUANT	2	I/E Range Lower Limit
IERANGEMODE	TOGGLE	T	I/E AutoRange
IERANGE	IQUANT	11	I/E Range
POSFEEDENABLE	TOGGLE	F	Positive Feedback IR Comp
POSFEEDRESISTANCE	QUANT	0	Positive Feedback Resistance (ohm)
ACHSELECT	IQUANT	0	Ach Select
SENSECABLEID	IQUANT	14	Sense Cable ID
PWRCABLEID	IQUANT	7	Power Cable ID
DCCALDATE	LABEL	11/9/2022	DC Calibration Date
ACCALDATE	LABEL	11/9/2022	AC Calibration Date
THERMOSELECT	IQUANT	1	Thermo Select
FRAMEWORKVERSION	LABEL	7.8.2	Framework Version
INSTRUMENTVERSION	LABEL	4.40	Instrument Version
COMPLIANCEVOLTAGE	IQUANT	0	Compliance Voltage
CURVE	TABLE	15001
	Pt	T	Vf	Im	Vu	Sig	Ach	IERange	Over	Cycle	Temp
	#	s	V vs. Ref.	A	V	V	V	#	bits	#	deg C
	0	0.002	4.99613E-001	-3.33755E-005	0.00000E+000	5.00000E-001	-7.04272E-004	11	..........a	0	-327.74
	32	0.066	4.95560E-001	1.07828E-005	0.00000E+000	4.96800E-001	-7.37606E-004	8	..........a	0	-327.74
	64	0.13	4.92377E-001	7.26388E-006	0.00000E+000	4.93600E-001	-7.70939E-004	8	..........a	0	-327.74
	96	0.194	4.89152E-001	6.11605E-006	0.00000E+000	4.90400E-001	-7.45939E-004	8	..........a	0	-327.74
	128	0.258	4.86043E-001	4.82116E-006	0.00000E+000	4.87200E-001	-8.04272E-004	8	..........a	0	-327.74
	160	0.322	4.82781E-001	4.54951E-006	0.00000E+000	4.84000E-001	-8.04272E-004	8	..........a	0	-327.74
	192	0.386	4.79568E-001	4.03122E-006	0.00000E+000	4.80800E-001	-7.45939E-004	8	..........a	0	-327.74
	224	0.45	4.76377E-001	3.67250E-006	0.00000E+000	4.77600E-001	-7.37606E-004	8	..........a	0	-327.74
	256	0.514	4.73202E-001	3.71291E-006	0.00000E+000	4.74400E-001	-7.37606E-004	8	..........a	0	-327.74
	288	0.578	4.69985E-001	3.34711E-006	0.00000E+000	4.71200E-001	-7.45939E-004	8	..........a	0	-327.74
	320	0.642	4.66802E-001	2.93922E-006	0.00000E+000	4.68000E-001	-7.29272E-004	8	..........a	0	-327.74
	352	0.706	4.63593E-001	2.86423E-006	0.00000E+000	4.64800E-001	-7.62605E-004	8	..........a	0	-327.74
	384	0.77	4.60410E-001	2.69008E-006	0.00000E+000	4.61600E-001	-7.79272E-004	8	..........a	0	-327.74
	416	0.834	4.57206E-001	2.69383E-006	0.00000E+000	4.58400E-001	-8.04272E-004	8	..........a	0	-327.74
	448	0.898	4.54031E-001	2.50843E-006	0.00000E+000	4.55200E-001	-7.62605E-004	8	..........a	0	-327.74
	480	0.962	4.50781E-001	2.37177E-006	0.00000E+000	4.52000E-001	-7.70939E-004	8	..........a	0	-327.74
	512	1.026	4.47581E-001	2.12846E-006	0.00000E+000	4.48800E-001	-7.95939E-004	8	..........a	0	-327.74
	544	1.09	4.44431E-001	2.19678E-006	0.00000E+000	4.45600E-001	-7.79272E-004	8	..........a	0	-327.74
	576	1.154	4.41222E-001	2.15929E-006	0.00000E+000	4.42400E-001	-7.45939E-004	8	..........a	0	-327.74
	608	1.218	4.38006E-001	2.16304E-006	0.00000E+000	4.39200E-001	-7.87605E-004	8	..........a	0	-327.74
	640	1.282	4.34835E-001	1.95597E-006	0.00000E+000	4.36000E-001	-8.12605E-004	8	..........a	0	-327.74
	672	1.346	4.31606E-001	1.90764E-006	0.00000E+000	4.32800E-001	-7.79272E-004	8	..........a	0	-327.74
	704	1.41	4.28418E-001	1.90681E-006	0.00000E+000	4.29600E-001	-7.79272E-004	8	..........a	0	-327.74
	736	1.474	4.25206E-001	1.81056E-006	0.00000E+000	4.26400E-001	-7.12606E-004	8	..........a	0	-327.74
	768	1.538	4.22018E-001	1.97013E-006	0.00000E+000	4.23200E-001	-7.70939E-004	8	..........a	0	-327.74
	800	1.602	4.18806E-001	1.73057E-006	0.00000E+000	4.20000E-001	-7.62605E-004	8	..........a	0	-327.74
	832	1.666	4.15597E-001	1.66141E-006	0.00000E+000	4.16800E-001	-8.45939E-004	8	..........a	0	-327.74
	864	1.73	4.12397E-001	1.66474E-006	0.00000E+000	4.13600E-001	-7.70939E-004	8	..........a	0	-327.74
	896	1.794	4.09256E-001	1.62141E-006	0.00000E+000	4.10400E-001	-7.29272E-004	8	..........a	0	-327.74
	928	1.858	4.06006E-001	1.40226E-006	0.00000E+000	4.07200E-001	-7.87605E-004	8	..........a	0	-327.74
	960	1.922	4.02822E-001	1.47184E-006	0.00000E+000	4.04000E-001	-7.37606E-004	8	..........a	0	-327.74
	992	1.986	3.99614E-001	1.21728E-006	0.00000E+000	4.00800E-001	-7.95939E-004	8	..........a	0	-327.74
	1024	2.05	3.96385E-001	1.30561E-006	0.00000E+000	3.97600E-001	-7.45939E-004	8	..........a	0	-327.74
	1056	2.114	3.93193E-001	1.34019E-006	0.00000E+000	3.94400E-001	-7.87605E-004	8	..........a	0	-327.74
	1088	2.178	3.89960E-001	1.14520E-006	0.00000E+000	3.91200E-001	-7.95939E-004	8	..........a	0	-327.74
	1120	2.242	3.86818E-001	1.23769E-006	0.00000E+000	3.88000E-001	-7.54272E-004	8	..........a	0	-327.74
	1152	2.306	3.83618E-001	1.11687E-006	0.00000E+000	3.84800E-001	-7.70939E-004	8	..........a	0	-327.74
	1184	2.37	3.80431E-001	1.10854E-006	0.00000E+000	3.81600E-001	-8.29272E-004	8	..........a	0	-327.74
	1216	2.434	3.77214E-001	1.06479E-006	0.00000E+000	3.78400E-001	-7.87605E-004	8	..........a	0	-327.74
	1248	2.498	3.74006E-001	9.11053E-007	0.00000E+000	3.75200E-001	-7.62605E-004	8	..........a	0	-327.74
	1280	2.562	3.70847E-001	8.12728E-007	0.00000E+000	3.72000E-001	-8.20939E-004	8	..........a	0	-327.74
	1312	2.626	3.67610E-001	8.66057E-007	0.00000E+000	3.68800E-001	-8.04272E-004	8	..........a	0	-327.74
	1344	2.69	3.64435E-001	6.15660E-007	0.00000E+000	3.65600E-001	-7.70939E-004	8	..........a	0	-327.74
	1376	2.754	3.61243E-001	7.14403E-007	0.00000E+000	3.62400E-001	-7.95939E-004	8	..........a	0	-327.74
	1408	2.818	3.58052E-001	7.88980E-007	0.00000E+000	3.59200E-001	-7.87605E-004	8	..........a	0	-327.74
	1440	2.882	3.54843E-001	4.77755E-007	0.00000E+000	3.56000E-001	-7.45939E-004	8	..........a	0	-327.74
	1472	2.946	3.51643E-001	4.75255E-007	0.00000E+000	3.52800E-001	-7.79272E-004	8	..........a	0	-327.74
	1504	3.01	3.48447E-001	6.18577E-007	0.00000E+000	3.49600E-001	-7.95939E-004	8	..........a	0	-327.74
	1536	3.074	3.45260E-001	4.06511E-007	0.00000E+000	3.46400E-001	-7.87605E-004	8	..........a	0	-327.74
	1568	3.138	3.42018E-001	4.79005E-007	0.00000E+000	3.43200E-001	-8.04272E-004	8	..........a	0	-327.74
	1600	3.202	3.38818E-001	4.67339E-007	0.00000E+000	3.40000E-001	-7.70939E-004	8	..........a	0	-327.74
	1632	3.266	3.35622E-001	6.13577E-007	0.00000E+000	3.36800E-001	-7.45939E-004	8	..........a	0	-327.74
	1664	3.33	3.32456E-001	4.14010E-007	0.00000E+000	3.33600E-001	-7.70939E-004	8	..........a	0	-327.74
	1696	3.394	3.29289E-001	3.62764E-007	0.00000E+000	3.30400E-001	-7.62605E-004	8	..........a	0	-327.74
	1728	3.458	3.26047E-001	2.21525E-007	0.00000E+000	3.27200E-001	-7.70939E-004	8	..........a	0	-327.74
	1760	3.522	3.22885E-001	3.23601E-007	0.00000E+000	3.24000E-001	-7.70939E-004	8	..........a	0	-327.74
	1792	3.586	3.19643E-001	2.81937E-007	0.00000E+000	3.20800E-001	-7.45939E-004	8	..........a	0	-327.74
	1824	3.65	3.16456E-001	3.12768E-007	0.00000E+000	3.17600E-001	-7.45939E-004	8	..........a	0	-327.74
	1856	3.714	3.13281E-001	1.54448E-007	0.00000E+000	3.14400E-001	-7.79272E-004	8	..........a	0	-327.74
	1888	3.778	3.10060E-001	3.11102E-007	0.00000E+000	3.11200E-001	-7.79272E-004	8	..........a	0	-327.74
	1920	3.842	3.06864E-001	2.28192E-007	0.00000E+000	3.08000E-001	-7.87605E-004	8	..........a	0	-327.74
	1952	3.906	3.03681E-001	1.83195E-007	0.00000E+000	3.04800E-001	-7.87605E-004	8	..........a	0	-327.74
	1984	3.97	3.00493E-001	2.47357E-007	0.00000E+000	3.01600E-001	-7.70939E-004	8	..........a	0	-327.74
	2016	4.034	2.97289E-001	-5.92853E-008	0.00000E+000	2.98400E-001	-6.62606E-004	8	..........a	0	-327.74
	2048	4.098	2.94081E-001	8.77862E-008	0.00000E+000	2.95200E-001	-7.37606E-004	8	..........a	0	-327.74
	2080	4.162	2.90860E-001	1.56531E-007	0.00000E+000	2.92000E-001	-7.54272E-004	8	..........a	0	-327.74
	2112	4.226	2.87652E-001	1.06951E-007	0.00000E+000	2.88800E-001	-7.37606E-004	8	..........a	0	-327.74
	2144	4.29	2.84468E-001	-6.67847E-008	0.00000E+000	2.85600E-001	-7.54272E-004	8	..........a	0	-327.74
	2176	4.354	2.81293E-001	1.61947E-007	0.00000E+000	2.82400E-001	-7.37606E-004	8	..........a	0	-327.74
	2208	4.418	2.78097E-001	1.73752E-008	0.00000E+000	2.79200E-001	-7.62605E-004	8	..........a	0	-327.74
	2240	4.482	2.74868E-001	1.57781E-007	0.00000E+000	2.76000E-001	-7.04272E-004	8	..........a	0	-327.74
	2272	4.546	2.71677E-001	1.65280E-007	0.00000E+000	2.72800E-001	-7.70939E-004	8	..........a	0	-327.74
	2304	4.61	2.68489E-001	7.69537E-008	0.00000E+000	2.69600E-001	-7.54272E-004	8	..........a	0	-327.74
	2336	4.674	2.65260E-001	-2.84545E-008	0.00000E+000	2.66400E-001	-7.45939E-004	8	..........a	0	-327.74
	2368	4.738	2.62072E-001	1.61114E-007	0.00000E+000	2.63200E-001	-7.79272E-004	8	..........a	0	-327.74
	2400	4.802	2.58902E-001	1.04452E-007	0.00000E+000	2.60000E-001	-8.04272E-004	8	..........a	0	-327.74
	2432	4.866	2.55685E-001	3.62629E-009	0.00000E+000	2.56800E-001	-7.20939E-004	8	..........a	0	-327.74
	2464	4.93	2.52472E-001	-5.72022E-008	0.00000E+000	2.53600E-001	-7.87605E-004	8	..........a	0	-327.74
	2496	4.994	2.49314E-001	1.67780E-007	0.00000E+000	2.50400E-001	-7.37606E-004	8	..........a	0	-327.74
	2528	5.058	2.46106E-001	9.98686E-008	0.00000E+000	2.47200E-001	-7.79272E-004	8	..........a	0	-327.74
	2560	5.122	2.42755E-001	-9.96987E-008	0.00000E+000	2.44000E-001	-7.70939E-004	8	......s...a	0	-327.74
	2592	5.186	2.39561E-001	4.40397E-008	0.00000E+000	2.40800E-001	-7.29272E-004	8	..........a	0	-327.74
	2624	5.25	2.36362E-001	1.15701E-007	0.00000E+000	2.37600E-001	-7.54272E-004	8	..........a	0	-327.74
	2656	5.314	2.33159E-001	1.94584E-008	0.00000E+000	2.34400E-001	-7.20939E-004	8	..........a	0	-327.74
	2688	5.378	2.29972E-001	3.11241E-008	0.00000E+000	2.31200E-001	-7.29272E-004	8	..........a	0	-327.74
	2720	5.442	2.26772E-001	1.57781E-007	0.00000E+000	2.28000E-001	-7.29272E-004	8	..........a	0	-327.74
	2752	5.506	2.23563E-001	6.57046E-008	0.00000E+000	2.24800E-001	-7.62605E-004	8	..........a	0	-327.74
	2784	5.57	2.20363E-001	-3.55372E-008	0.00000E+000	2.21600E-001	-7.70939E-004	8	..........a	0	-327.74
	2816	5.634	2.17176E-001	1.77918E-008	0.00000E+000	2.18400E-001	-7.95939E-004	8	..........a	0	-327.74
	2848	5.698	2.13978E-001	4.32064E-008	0.00000E+000	2.15200E-001	-7.12606E-004	8	..........a	0	-327.74
	2880	5.762	2.10771E-001	2.37639E-009	0.00000E+000	2.12000E-001	-7.70939E-004	8	..........a	0	-327.74
	2912	5.826	2.07585E-001	1.15701E-007	0.00000E+000	2.08800E-001	-8.04272E-004	8	..........a	0	-327.74
	2944	5.89	2.04383E-001	3.40405E-008	0.00000E+000	2.05600E-001	-7.45939E-004	8	..........a	0	-327.74
	2976	5.954	2.01164E-001	4.02900E-008	0.00000E+000	2.02400E-001	-7.54272E-004	8	..........a	0	-327.74
	3008	6.018	1.97995E-001	-8.09503E-008	0.00000E+000	1.99200E-001	-7.79272E-004	8	..........a	0	-327.74
	3040	6.082	1.94785E-001	-6.63681E-008	0.00000E+000	1.96000E-001	-7.87605E-004	8	..........a	0	-327.74
	3072	6.146	1.91591E-001	8.65363E-008	0.00000E+000	1.92800E-001	-7.95939E-004	8	..........a	0	-327.74
	3104	6.21	1.88391E-001	1.07091E-008	0.00000E+000	1.89600E-001	-8.12605E-004	8	..........a	0	-327.74
	3136	6.274	1.85179E-001	-5.05360E-008	0.00000E+000	1.86400E-001	-7.37606E-004	8	..........a	0	-327.74
	3168	6.338	1.81991E-001	-3.09543E-008	0.00000E+000	1.83200E-001	-7.29272E-004	8	..........a	0	-327.74
	3200	6.402	1.78816E-001	1.43615E-007	0.00000E+000	1.80000E-001	-7.62605E-004	8	..........a	0	-327.74
	3232	6.466	1.75605E-001	-3.72038E-008	0.00000E+000	1.76800E-001	-7.45939E-004	8	..........a	0	-327.74
	3264	6.53	1.72407E-001	-6.42849E-008	0.00000E+000	1.73600E-001	-7.54272E-004	8	..........a	0	-327.74
	3296	6.594	1.69192E-001	-1.02199E-007	0.00000E+000	1.70400E-001	-8.29272E-004	8	..........a	0	-327.74
	3328	6.658	1.65997E-001	-1.61360E-007	0.00000E+000	1.67200E-001	-8.04272E-004	8	..........a	0	-327.74
	3360	6.722	1.62810E-001	1.73752E-008	0.00000E+000	1.64000E-001	-8.04272E-004	8	..........a	0	-327.74
	3392	6.786	1.59628E-001	1.36532E-007	0.00000E+000	1.60800E-001	-7.29272E-004	8	..........a	0	-327.74
	3424	6.85	1.56416E-001	-1.41362E-007	0.00000E+000	1.57600E-001	-7.87605E-004	8	..........a	0	-327.74
	3456	6.914	1.53214E-001	-8.76164E-008	0.00000E+000	1.54400E-001	-7.45939E-004	8	..........a	0	-327.74
	3488	6.978	1.50009E-001	-1.00532E-007	0.00000E+000	1.51200E-001	-7.29272E-004	8	..........a	0	-327.74
	3520	7.042	1.46816E-001	-1.39279E-007	0.00000E+000	1.48000E-001	-7.12606E-004	8	..........a	0	-327.74
	3552	7.106	1.43619E-001	-2.62320E-009	0.00000E+000	1.44800E-001	-8.37606E-004	8	..........a	0	-327.74
	3584	7.17	1.40418E-001	-2.06773E-007	0.00000E+000	1.41600E-001	-8.04272E-004	8	..........a	0	-327.74
	3616	7.234	1.37213E-001	-1.63444E-007	0.00000E+000	1.38400E-001	-7.95939E-004	8	..........a	0	-327.74
	3648	7.298	1.34014E-001	-1.15947E-007	0.00000E+000	1.35200E-001	-7.54272E-004	8	..........a	0	-327.74
	3680	7.362	1.30816E-001	-2.01218E-008	0.00000E+000	1.32000E-001	-7.37606E-004	8	..........a	0	-327.74
	3712	7.426	1.27645E-001	-1.78994E-009	0.00000E+000	1.28800E-001	-7.70939E-004	8	..........a	0	-327.74
	3744	7.49	1.24406E-001	-9.34492E-008	0.00000E+000	1.25600E-001	-7.54272E-004	8	..........a	0	-327.74
	3776	7.554	1.21223E-001	-8.88663E-008	0.00000E+000	1.22400E-001	-8.04272E-004	8	..........a	0	-327.74
	3808	7.618	1.18017E-001	-1.18447E-007	0.00000E+000	1.19200E-001	-7.29272E-004	8	..........a	0	-327.74
	3840	7.682	1.14821E-001	-1.19697E-007	0.00000E+000	1.16000E-001	-7.45939E-004	8	..........a	0	-327.74
	3872	7.746	1.11626E-001	5.07058E-008	0.00000E+000	1.12800E-001	-7.62605E-004	8	..........a	0	-327.74
	3904	7.81	1.08420E-001	-4.42865E-008	0.00000E+000	1.09600E-001	-7.45939E-004	8	..........a	0	-327.74
	3936	7.874	1.05233E-001	9.19525E-008	0.00000E+000	1.06400E-001	-7.54272E-004	8	..........a	0	-327.74
	3968	7.938	1.02036E-001	7.37599E-009	0.00000E+000	1.03200E-001	-7.79272E-004	8	..........a	0	-327.74
	4000	8.002	9.88318E-002	-1.70110E-007	0.00000E+000	1.00000E-001	-8.45939E-004	8	..........a	0	-327.74
	4032	8.066	9.56439E-002	-7.01178E-008	0.00000E+000	9.68000E-002	-6.87606E-004	8	..........a	0	-327.74
	4064	8.13	9.24376E-002	-1.99274E-007	0.00000E+000	9.36000E-002	-7.45939E-004	8	..........a	0	-327.74
	4096	8.194	8.92422E-002	-9.59490E-008	0.00000E+000	9.04000E-002	-7.54272E-004	8	..........a	0	-327.74
	4128	8.258	8.60414E-002	-1.48028E-007	0.00000E+000	8.72000E-002	-7.37606E-004	8	..........a	0	-327.74
	4160	8.322	8.28489E-002	-2.34271E-007	0.00000E+000	8.40000E-002	-7.37606E-004	8	..........a	0	-327.74
	4192	8.386	7.96543E-002	-2.13023E-007	0.00000E+000	8.08000E-002	-7.37606E-004	8	..........a	0	-327.74
	4224	8.45	7.64456E-002	-1.81776E-007	0.00000E+000	7.76000E-002	-7.04272E-004	8	..........a	0	-327.74
	4256	8.514	7.32556E-002	-5.13693E-008	0.00000E+000	7.44000E-002	-7.79272E-004	8	..........a	0	-327.74
	4288	8.578	7.00560E-002	-1.30530E-007	0.00000E+000	7.12000E-002	-8.12605E-004	8	..........a	0	-327.74
	4320	8.642	6.68522E-002	-2.58853E-007	0.00000E+000	6.80000E-002	-7.54272E-004	8	..........a	0	-327.74
	4352	8.706	6.36551E-002	-1.45945E-007	0.00000E+000	6.48000E-002	-7.04272E-004	8	..........a	0	-327.74
	4384	8.77	6.04581E-002	-4.88695E-008	0.00000E+000	6.16000E-002	-8.04272E-004	8	..........a	0	-327.74
	4416	8.834	5.72397E-002	-2.01774E-007	0.00000E+000	5.84000E-002	-7.04272E-004	8	..........a	0	-327.74
	4448	8.898	5.40581E-002	-9.67823E-008	0.00000E+000	5.52000E-002	-7.79272E-004	8	..........a	0	-327.74
	4480	8.962	5.08522E-002	-8.80330E-008	0.00000E+000	5.20000E-002	-7.37606E-004	8	..........a	0	-327.74
	4512	9.026	4.76506E-002	-2.25939E-007	0.00000E+000	4.88000E-002	-7.20939E-004	8	..........a	0	-327.74
	4544	9.09	4.44618E-002	-8.13669E-008	0.00000E+000	4.56000E-002	-7.20939E-004	8	..........a	0	-327.74
	4576	9.154	4.12689E-002	-1.29280E-007	0.00000E+000	4.24000E-002	-7.87605E-004	8	..........a	0	-327.74
	4608	9.218	3.80739E-002	-1.05115E-007	0.00000E+000	3.92000E-002	-7.37606E-004	8	..........a	0	-327.74
	4640	9.282	3.48606E-002	-5.53964E-009	0.00000E+000	3.60000E-002	-7.87605E-004	8	..........a	0	-327.74
	4672	9.346	3.16701E-002	-2.17189E-007	0.00000E+000	3.28000E-002	-7.79272E-004	8	..........a	0	-327.74
	4704	9.41	2.84589E-002	-1.05948E-007	0.00000E+000	2.96000E-002	-8.29272E-004	8	..........a	0	-327.74
	4736	9.474	2.52768E-002	-2.17606E-007	0.00000E+000	2.64000E-002	-7.45939E-004	8	..........a	0	-327.74
	4768	9.538	2.20477E-002	-1.57194E-007	0.00000E+000	2.32000E-002	-8.04272E-004	8	..........a	0	-327.74
	4800	9.602	1.88582E-002	-2.90100E-007	0.00000E+000	2.00000E-002	-7.70939E-004	8	..........a	0	-327.74
	4832	9.666	1.56652E-002	-1.50528E-007	0.00000E+000	1.68000E-002	-7.37606E-004	8	..........a	0	-327.74
	4864	9.73	1.24582E-002	2.94576E-008	0.00000E+000	1.36000E-002	-8.04272E-004	8	..........a	0	-327.74
	4896	9.794	9.26197E-003	-2.46770E-007	0.00000E+000	1.04000E-002	-7.37606E-004	8	..........a	0	-327.74
	4928	9.858	6.05860E-003	-3.65927E-007	0.00000E+000	7.20000E-003	-7.45939E-004	8	..........a	0	-327.74
	4960	9.922	2.87581E-003	-2.12190E-007	0.00000E+000	4.00001E-003	-7.79272E-004	8	..........a	0	-327.74
	4992	9.986	-3.24318E-004	-2.33855E-007	0.00000E+000	7.99984E-004	-7.20939E-004	8	..........a	0	-327.74
	5024	10.05	-3.51461E-003	-2.17189E-007	0.00000E+000	-2.40001E-003	-7.37606E-004	8	..........a	0	-327.74
	5056	10.114	-6.72478E-003	-3.15515E-007	0.00000E+000	-5.60001E-003	-7.20939E-004	8	..........a	0	-327.74
	5088	10.178	-9.92807E-003	-1.10948E-007	0.00000E+000	-8.80000E-003	-7.45939E-004	8	..........a	0	-327.74
	5120	10.242	-1.31286E-002	-2.75101E-007	0.00000E+000	-1.20000E-002	-7.29272E-004	8	..........a	0	-327.74
	5152	10.306	-1.63216E-002	-1.02615E-007	0.00000E+000	-1.52000E-002	-7.45939E-004	8	..........a	0	-327.74
	5184	10.37	-1.95296E-002	-1.89275E-007	0.00000E+000	-1.84000E-002	-8.29272E-004	8	..........a	0	-327.74
	5216	10.434	-2.27081E-002	-2.24272E-007	0.00000E+000	-2.16000E-002	-7.45939E-004	8	..........a	0	-327.74
	5248	10.498	-2.59205E-002	-1.74693E-007	0.00000E+000	-2.48000E-002	-7.04272E-004	8	..........a	0	-327.74
	5280	10.562	-2.91182E-002	-2.40937E-007	0.00000E+000	-2.80000E-002	-7.45939E-004	8	..........a	0	-327.74
	5312	10.626	-3.23199E-002	-2.72185E-007	0.00000E+000	-3.12000E-002	-7.45939E-004	8	..........a	0	-327.74
	5344	10.69	-3.55169E-002	-2.40937E-007	0.00000E+000	-3.44000E-002	-7.70939E-004	8	..........a	0	-327.74
	5376	10.754	-3.86949E-002	-2.23855E-007	0.00000E+000	-3.76000E-002	-7.20939E-004	8	..........a	0	-327.74
	5408	10.818	-4.19099E-002	-1.65110E-007	0.00000E+000	-4.08000E-002	-7.87605E-004	8	..........a	0	-327.74
	5440	10.882	-4.51107E-002	-1.94691E-007	0.00000E+000	-4.40000E-002	-6.87606E-004	8	..........a	0	-327.74
	5472	10.946	-4.82911E-002	-2.42604E-007	0.00000E+000	-4.72000E-002	-6.87606E-004	8	..........a	0	-327.74
	5504	11.01	-5.14940E-002	-2.58019E-007	0.00000E+000	-5.04000E-002	-7.54272E-004	8	..........a	0	-327.74
	5536	11.074	-5.46857E-002	-1.37612E-007	0.00000E+000	-5.36000E-002	-7.04272E-004	8	..........a	0	-327.74
	5568	11.138	-5.78915E-002	-1.61777E-007	0.00000E+000	-5.68000E-002	-7.45939E-004	8	..........a	0	-327.74
	5600	11.202	-6.11036E-002	-1.51778E-007	0.00000E+000	-6.00000E-002	-7.54272E-004	8	..........a	0	-327.74
	5632	11.266	-6.42832E-002	-1.15531E-007	0.00000E+000	-6.32000E-002	-7.54272E-004	8	..........a	0	-327.74
	5664	11.33	-6.74907E-002	-3.62594E-007	0.00000E+000	-6.64000E-002	-7.79272E-004	8	..........a	0	-327.74
	5696	11.394	-7.06957E-002	-9.34492E-008	0.00000E+000	-6.96000E-002	-7.29272E-004	8	..........a	0	-327.74
	5728	11.458	-7.38769E-002	-2.01774E-007	0.00000E+000	-7.28000E-002	-7.20939E-004	8	..........a	0	-327.74
	5760	11.522	-7.70757E-002	-1.57611E-007	0.00000E+000	-7.60000E-002	-7.62605E-004	8	..........a	0	-327.74
	5792	11.586	-8.02828E-002	-2.79684E-007	0.00000E+000	-7.92000E-002	-7.79272E-004	8	..........a	0	-327.74
	5824	11.65	-8.34774E-002	-2.48020E-007	0.00000E+000	-8.24000E-002	-7.37606E-004	8	..........a	0	-327.74
	5856	11.714	-8.66794E-002	-1.74276E-007	0.00000E+000	-8.56000E-002	-7.70939E-004	8	..........a	0	-327.74
	5888	11.778	-8.98699E-002	-1.91358E-007	0.00000E+000	-8.88000E-002	-7.70939E-004	8	..........a	0	-327.74
	5920	11.842	-9.30782E-002	-2.49687E-007	0.00000E+000	-9.20000E-002	-7.04272E-004	8	..........a	0	-327.74
	5952	11.906	-9.62894E-002	-3.90509E-007	0.00000E+000	-9.52000E-002	-7.12606E-004	8	..........a	0	-327.74
	5984	11.97	-9.94728E-002	-3.33013E-007	0.00000E+000	-9.84000E-002	-7.37606E-004	8	..........a	0	-327.74
	6016	12.034	-1.02674E-001	-2.65102E-007	0.00000E+000	-1.01600E-001	-7.37606E-004	8	..........a	0	-327.74
	6048	12.098	-1.05877E-001	-2.94266E-007	0.00000E+000	-1.04800E-001	-7.62605E-004	8	..........a	0	-327.74
	6080	12.162	-1.09070E-001	-3.20931E-007	0.00000E+000	-1.08000E-001	-7.37606E-004	8	..........a	0	-327.74
	6112	12.226	-1.12259E-001	-2.97183E-007	0.00000E+000	-1.11200E-001	-7.95939E-004	8	..........a	0	-327.74
	6144	12.29	-1.15457E-001	-2.45104E-007	0.00000E+000	-1.14400E-001	-7.45939E-004	8	..........a	0	-327.74
	6176	12.354	-1.18667E-001	-3.10098E-007	0.00000E+000	-1.17600E-001	-7.79272E-004	8	..........a	0	-327.74
	6208	12.418	-1.21856E-001	-2.49270E-007	0.00000E+000	-1.20800E-001	-7.62605E-004	8	..........a	0	-327.74
	6240	12.482	-1.25067E-001	-4.72169E-007	0.00000E+000	-1.24000E-001	-6.95939E-004	8	..........a	0	-327.74
	6272	12.546	-1.28246E-001	-2.35105E-007	0.00000E+000	-1.27200E-001	-6.95939E-004	8	..........a	0	-327.74
	6304	12.61	-1.31462E-001	-2.35521E-007	0.00000E+000	-1.30400E-001	-8.12605E-004	8	..........a	0	-327.74
	6336	12.674	-1.34644E-001	-3.74260E-007	0.00000E+000	-1.33600E-001	-7.70939E-004	8	..........a	0	-327.74
	6368	12.738	-1.37855E-001	-2.94683E-007	0.00000E+000	-1.36800E-001	-7.62605E-004	8	..........a	0	-327.74
	6400	12.802	-1.41052E-001	-4.22589E-007	0.00000E+000	-1.40000E-001	-7.04272E-004	8	..........a	0	-327.74
	6432	12.866	-1.44262E-001	-3.53845E-007	0.00000E+000	-1.43200E-001	-6.87606E-004	8	..........a	0	-327.74
	6464	12.93	-1.47454E-001	-4.84251E-007	0.00000E+000	-1.46400E-001	-7.37606E-004	8	..........a	0	-327.74
	6496	12.994	-1.50648E-001	-2.44687E-007	0.00000E+000	-1.49600E-001	-7.70939E-004	8	..........a	0	-327.74
	6528	13.058	-1.53840E-001	-2.38021E-007	0.00000E+000	-1.52800E-001	-7.62605E-004	8	..........a	0	-327.74
	6560	13.122	-1.57047E-001	-5.03000E-007	0.00000E+000	-1.56000E-001	-7.12606E-004	8	..........a	0	-327.74
	6592	13.186	-1.60243E-001	-3.85926E-007	0.00000E+000	-1.59200E-001	-7.20939E-004	8	..........a	0	-327.74
	6624	13.25	-1.63449E-001	-4.68419E-007	0.00000E+000	-1.62400E-001	-7.62605E-004	8	..........a	0	-327.74
	6656	13.314	-1.66655E-001	-2.91767E-007	0.00000E+000	-1.65600E-001	-7.54272E-004	8	..........a	0	-327.74
	6688	13.378	-1.69841E-001	-3.38013E-007	0.00000E+000	-1.68800E-001	-6.95939E-004	8	..........a	0	-327.74
	6720	13.442	-1.73042E-001	-4.77168E-007	0.00000E+000	-1.72000E-001	-7.62605E-004	8	..........a	0	-327.74
	6752	13.506	-1.76233E-001	-5.28414E-007	0.00000E+000	-1.75200E-001	-7.62605E-004	8	..........a	0	-327.74
	6784	13.57	-1.79437E-001	-4.91334E-007	0.00000E+000	-1.78400E-001	-7.70939E-004	8	..........a	0	-327.74
	6816	13.634	-1.82649E-001	-5.70078E-007	0.00000E+000	-1.81600E-001	-7.54272E-004	8	..........a	0	-327.74
	6848	13.698	-1.85832E-001	-4.07174E-007	0.00000E+000	-1.84800E-001	-7.95939E-004	8	..........a	0	-327.74
	6880	13.762	-1.89029E-001	-4.65086E-007	0.00000E+000	-1.88000E-001	-7.54272E-004	8	..........a	0	-327.74
	6912	13.826	-1.92223E-001	-5.27581E-007	0.00000E+000	-1.91200E-001	-7.70939E-004	8	..........a	0	-327.74
	6944	13.89	-1.95433E-001	-4.60503E-007	0.00000E+000	-1.94400E-001	-7.20939E-004	8	..........a	0	-327.74
	6976	13.954	-1.98627E-001	-5.59245E-007	0.00000E+000	-1.97600E-001	-7.95939E-004	8	..........a	0	-327.74
	7008	14.018	-2.01812E-001	-6.06741E-007	0.00000E+000	-2.00800E-001	-7.45939E-004	8	..........a	0	-327.74
	7040	14.082	-2.05017E-001	-5.35080E-007	0.00000E+000	-2.04000E-001	-7.29272E-004	8	..........a	0	-327.74
	7072	14.146	-2.08213E-001	-7.59229E-007	0.00000E+000	-2.07200E-001	-7.04272E-004	8	..........a	0	-327.74
	7104	14.21	-2.11414E-001	-4.57587E-007	0.00000E+000	-2.10400E-001	-7.95939E-004	8	..........a	0	-327.74
	7136	14.274	-2.14609E-001	-5.80493E-007	0.00000E+000	-2.13600E-001	-7.37606E-004	8	..........a	0	-327.74
	7168	14.338	-2.17836E-001	-7.70895E-007	0.00000E+000	-2.16800E-001	-7.87605E-004	8	..........a	0	-327.74
	7200	14.402	-2.21032E-001	-6.85485E-007	0.00000E+000	-2.20000E-001	-7.95939E-004	8	..........a	0	-327.74
	7232	14.466	-2.24217E-001	-6.64237E-007	0.00000E+000	-2.23200E-001	-7.20939E-004	8	..........a	0	-327.74
	7264	14.53	-2.27404E-001	-6.63403E-007	0.00000E+000	-2.26400E-001	-6.87606E-004	8	..........a	0	-327.74
	7296	14.594	-2.30613E-001	-7.06317E-007	0.00000E+000	-2.29600E-001	-7.95939E-004	8	..........a	0	-327.74
	7328	14.658	-2.33809E-001	-7.47980E-007	0.00000E+000	-2.32800E-001	-7.45939E-004	8	..........a	0	-327.74
	7360	14.722	-2.37005E-001	-7.83394E-007	0.00000E+000	-2.36000E-001	-8.20939E-004	8	..........a	0	-327.74
	7392	14.786	-2.40210E-001	-7.95476E-007	0.00000E+000	-2.39200E-001	-7.37606E-004	8	..........a	0	-327.74
	7424	14.85	-2.43398E-001	-8.00059E-007	0.00000E+000	-2.42400E-001	-7.37606E-004	8	..........a	0	-327.74
	7456	14.914	-2.46599E-001	-8.64221E-007	0.00000E+000	-2.45600E-001	-7.70939E-004	8	..........a	0	-327.74
	7488	14.978	-2.49793E-001	-8.09642E-007	0.00000E+000	-2.48800E-001	-7.79272E-004	8	..........a	0	-327.74
	7520	15.042	-2.53010E-001	-1.05171E-006	0.00000E+000	-2.52000E-001	-7.45939E-004	8	..........a	0	-327.74
	7552	15.106	-2.56180E-001	-9.91710E-007	0.00000E+000	-2.55200E-001	-6.87606E-004	8	..........a	0	-327.74
	7584	15.17	-2.59389E-001	-1.06337E-006	0.00000E+000	-2.58400E-001	-7.79272E-004	8	..........a	0	-327.74
	7616	15.234	-2.62607E-001	-1.16336E-006	0.00000E+000	-2.61600E-001	-7.95939E-004	8	..........a	0	-327.74
	7648	15.298	-2.65791E-001	-1.20628E-006	0.00000E+000	-2.64800E-001	-7.45939E-004	8	..........a	0	-327.74
	7680	15.362	-2.68932E-001	-1.25544E-006	0.00000E+000	-2.68000E-001	-7.62605E-004	8	..........a	0	-327.74
	7712	15.426	-2.72111E-001	-1.24377E-006	0.00000E+000	-2.71200E-001	-7.29272E-004	8	..........a	0	-327.74
	7744	15.49	-2.75340E-001	-1.31293E-006	0.00000E+000	-2.74400E-001	-7.95939E-004	8	..........a	0	-327.74
	7776	15.554	-2.78523E-001	-1.33793E-006	0.00000E+000	-2.77600E-001	-7.70939E-004	8	..........a	0	-327.74
	7808	15.618	-2.81690E-001	-1.28419E-006	0.00000E+000	-2.80800E-001	-7.45939E-004	8	..........a	0	-327.74
	7840	15.682	-2.84923E-001	-1.40626E-006	0.00000E+000	-2.84000E-001	-7.20939E-004	8	..........a	0	-327.74
	7872	15.746	-2.88128E-001	-1.50125E-006	0.00000E+000	-2.87200E-001	-7.62605E-004	8	..........a	0	-327.74
	7904	15.81	-2.91319E-001	-1.63916E-006	0.00000E+000	-2.90400E-001	-7.70939E-004	8	..........a	0	-327.74
	7936	15.874	-2.94511E-001	-1.53750E-006	0.00000E+000	-2.93600E-001	-7.70939E-004	8	..........a	0	-327.74
	7968	15.938	-2.97678E-001	-1.61458E-006	0.00000E+000	-2.96800E-001	-8.20939E-004	8	..........a	0	-327.74
	8000	16.002	-3.00932E-001	-1.76457E-006	0.00000E+000	-3.00000E-001	-7.54272E-004	8	..........a	0	-327.74
	8032	16.066	-3.04107E-001	-1.62166E-006	0.00000E+000	-3.03200E-001	-7.37606E-004	8	..........a	0	-327.74
	8064	16.13	-3.07278E-001	-1.86914E-006	0.00000E+000	-3.06400E-001	-8.29272E-004	8	..........a	0	-327.74
	8096	16.194	-3.10515E-001	-1.91164E-006	0.00000E+000	-3.09600E-001	-7.54272E-004	8	..........a	0	-327.74
	8128	16.258	-3.13748E-001	-1.99705E-006	0.00000E+000	-3.12800E-001	-7.29272E-004	8	..........a	0	-327.74
	8160	16.322	-3.16957E-001	-2.19661E-006	0.00000E+000	-3.16000E-001	-8.20939E-004	8	..........a	0	-327.74
	8192	16.386	-3.20107E-001	-2.22869E-006	0.00000E+000	-3.19200E-001	-7.70939E-004	8	..........a	0	-327.74
	8224	16.45	-3.23328E-001	-2.14412E-006	0.00000E+000	-3.22400E-001	-7.29272E-004	8	..........a	0	-327.74
	8256	16.514	-3.26507E-001	-2.27786E-006	0.00000E+000	-3.25600E-001	-7.04272E-004	8	..........a	0	-327.74
	8288	16.578	-3.29694E-001	-2.17287E-006	0.00000E+000	-3.28800E-001	-7.79272E-004	8	..........a	0	-327.74
	8320	16.642	-3.32861E-001	-2.35743E-006	0.00000E+000	-3.32000E-001	-8.12605E-004	8	..........a	0	-327.74
	8352	16.706	-3.36086E-001	-2.48617E-006	0.00000E+000	-3.35200E-001	-8.12605E-004	8	..........a	0	-327.74
	8384	16.77	-3.39294E-001	-2.59200E-006	0.00000E+000	-3.38400E-001	-7.29272E-004	8	..........a	0	-327.74
	8416	16.834	-3.42473E-001	-2.44659E-006	0.00000E+000	-3.41600E-001	-7.54272E-004	8	..........a	0	-327.74
	8448	16.898	-3.45669E-001	-2.60825E-006	0.00000E+000	-3.44800E-001	-7.12606E-004	8	..........a	0	-327.74
	8480	16.962	-3.48853E-001	-2.80865E-006	0.00000E+000	-3.48000E-001	-7.62605E-004	8	..........a	0	-327.74
	8512	17.026	-3.52107E-001	-2.98030E-006	0.00000E+000	-3.51200E-001	-7.79272E-004	8	..........a	0	-327.74
	8544	17.09	-3.55282E-001	-3.04655E-006	0.00000E+000	-3.54400E-001	-7.12606E-004	8	..........a	0	-327.74
	8576	17.154	-3.58490E-001	-3.27361E-006	0.00000E+000	-3.57600E-001	-6.54272E-004	8	..........a	0	-327.74
	8608	17.218	-3.61682E-001	-3.17945E-006	0.00000E+000	-3.60800E-001	-7.29272E-004	8	..........a	0	-327.74
	8640	17.282	-3.64894E-001	-3.41152E-006	0.00000E+000	-3.64000E-001	-8.20939E-004	8	..........a	0	-327.74
	8672	17.346	-3.68119E-001	-3.64691E-006	0.00000E+000	-3.67200E-001	-7.20939E-004	8	..........a	0	-327.74
	8704	17.41	-3.71294E-001	-3.72649E-006	0.00000E+000	-3.70400E-001	-7.95939E-004	8	..........a	0	-327.74
	8736	17.474	-3.74469E-001	-3.99105E-006	0.00000E+000	-3.73600E-001	-7.20939E-004	8	..........a	0	-327.74
	8768	17.538	-3.77653E-001	-4.06313E-006	0.00000E+000	-3.76800E-001	-7.45939E-004	8	..........a	0	-327.74
	8800	17.602	-3.80890E-001	-4.21145E-006	0.00000E+000	-3.80000E-001	-7.95939E-004	8	..........a	0	-327.74
	8832	17.666	-3.84061E-001	-4.81099E-006	0.00000E+000	-3.83200E-001	-7.62605E-004	8	..........a	0	-327.74
	8864	17.73	-3.87261E-001	-4.79765E-006	0.00000E+000	-3.86400E-001	-6.87606E-004	8	..........a	0	-327.74
	8896	17.794	-3.90473E-001	-4.95389E-006	0.00000E+000	-3.89600E-001	-7.20939E-004	8	..........a	0	-327.74
	8928	17.858	-3.93661E-001	-5.33136E-006	0.00000E+000	-3.92800E-001	-7.29272E-004	8	..........a	0	-327.74
	8960	17.922	-3.96844E-001	-5.85924E-006	0.00000E+000	-3.96000E-001	-7.29272E-004	8	..........a	0	-327.74
	8992	17.986	-4.00048E-001	-6.16088E-006	0.00000E+000	-3.99200E-001	-7.45939E-004	8	..........a	0	-327.74
	9024	18.05	-4.03257E-001	-6.75708E-006	0.00000E+000	-4.02400E-001	-7.62605E-004	8	..........a	0	-327.74
	9056	18.114	-4.06498E-001	-7.41411E-006	0.00000E+000	-4.05600E-001	-6.87606E-004	8	..........a	0	-327.74
	9088	18.178	-4.09669E-001	-7.90324E-006	0.00000E+000	-4.08800E-001	-7.70939E-004	8	..........a	0	-327.74
	9120	18.242	-4.12894E-001	-8.34779E-006	0.00000E+000	-4.12000E-001	-8.04272E-004	8	..........a	0	-327.74
	9152	18.306	-4.16090E-001	-8.97274E-006	0.00000E+000	-4.15200E-001	-7.95939E-004	8	..........a	0	-327.74
	9184	18.37	-4.19286E-001	-9.93433E-006	0.00000E+000	-4.18400E-001	-7.70939E-004	8	..........a	0	-327.74
	9216	18.434	-4.22432E-001	-1.07926E-005	0.00000E+000	-4.21600E-001	-7.70939E-004	8	..........a	0	-327.74
	9248	18.498	-4.25623E-001	-1.14167E-005	0.00000E+000	-4.24800E-001	-7.29272E-004	8	..........a	0	-327.74
	9280	18.562	-4.28840E-001	-1.28053E-005	0.00000E+000	-4.28000E-001	-7.04272E-004	8	..........a	0	-327.74
	9312	18.626	-4.32090E-001	-1.41161E-005	0.00000E+000	-4.31200E-001	-7.37606E-004	8	..........a	0	-327.74
	9344	18.69	-4.35215E-001	-1.54710E-005	0.00000E+000	-4.34400E-001	-7.70939E-004	8	..........a	0	-327.74
	9376	18.754	-4.38490E-001	-1.68804E-005	0.00000E+000	-4.37600E-001	-7.70939E-004	8	..........a	0	-327.74
	9408	18.818	-4.41636E-001	-1.84020E-005	0.00000E+000	-4.40800E-001	-7.29272E-004	8	..........a	0	-327.74
	9440	18.882	-4.44894E-001	-2.04118E-005	0.00000E+000	-4.44000E-001	-7.37606E-004	8	..........a	0	-327.74
	9472	18.946	-4.47998E-001	-2.25550E-005	0.00000E+000	-4.47200E-001	-7.62605E-004	8	..........a	0	-327.74
	9504	19.01	-4.51211E-001	-2.46669E-005	0.00000E+000	-4.50400E-001	-7.70939E-004	8	..........a	0	-327.74
	9536	19.074	-4.54461E-001	-2.72938E-005	0.00000E+000	-4.53600E-001	-7.87605E-004	8	..........a	0	-327.74
	9568	19.138	-4.57648E-001	-3.01715E-005	0.00000E+000	-4.56800E-001	-7.62605E-004	8	..........a	0	-327.74
	9600	19.202	-4.60823E-001	-3.31537E-005	0.00000E+000	-4.60000E-001	-7.29272E-004	8	..........a	0	-327.74
	9632	19.266	-4.64023E-001	-3.68188E-005	0.00000E+000	-4.63200E-001	-7.79272E-004	8	..........a	0	-327.74
	9664	19.33	-4.67182E-001	-4.08439E-005	0.00000E+000	-4.66400E-001	-7.54272E-004	8	..........a	0	-327.74
	9696	19.394	-4.70407E-001	-4.53077E-005	0.00000E+000	-4.69600E-001	-7.79272E-004	8	..........a	0	-327.74
	9728	19.458	-4.73594E-001	-5.01578E-005	0.00000E+000	-4.72800E-001	-7.95939E-004	8	..........a	0	-327.74
	9760	19.522	-4.76790E-001	-5.59656E-005	0.00000E+000	-4.76000E-001	-6.95939E-004	8	..........a	0	-327.74
	9792	19.586	-4.79957E-001	-6.21193E-005	0.00000E+000	-4.79200E-001	-7.79272E-004	8	..........a	0	-327.74
	9824	19.65	-4.83182E-001	-6.87079E-005	0.00000E+000	-4.82400E-001	-7.45939E-004	8	..........a	0	-327.74
	9856	19.714	-4.86361E-001	-7.67277E-005	0.00000E+000	-4.85600E-001	-7.62605E-004	8	..........a	0	-327.74
	9888	19.778	-4.89569E-001	-8.50087E-005	0.00000E+000	-4.88800E-001	-6.87606E-004	8	..........a	0	-327.74
	9920	19.842	-4.92728E-001	-9.41634E-005	0.00000E+000	-4.92000E-001	-7.20939E-004	8	..........a	0	-327.74
	9952	19.906	-4.95940E-001	-1.03939E-004	0.00000E+000	-4.95200E-001	-7.45939E-004	8	..........a	0	-327.74
	9984	19.97	-4.99053E-001	-1.15086E-004	0.00000E+000	-4.98400E-001	-7.20939E-004	8	..........a	0	-327.74
	10016	20.034	-5.02303E-001	-1.27090E-004	0.00000E+000	-5.01600E-001	-7.20939E-004	8	..........a	0	-327.74
	10048	20.098	-5.05498E-001	-1.40117E-004	0.00000E+000	-5.04800E-001	-7.29272E-004	8	..........a	0	-327.74
	10080	20.162	-5.08678E-001	-1.53777E-004	0.00000E+000	-5.08000E-001	-7.37606E-004	8	..........a	0	-327.74
	10112	20.226	-5.11853E-001	-1.68349E-004	0.00000E+000	-5.11200E-001	-7.12606E-004	8	..........a	0	-327.74
	10144	20.29	-5.15023E-001	-1.83725E-004	0.00000E+000	-5.14400E-001	-7.12606E-004	8	..........a	0	-327.74
	10176	20.354	-5.18198E-001	-1.99595E-004	0.00000E+000	-5.17600E-001	-7.95939E-004	8	..........a	0	-327.74
	10208	20.418	-5.21444E-001	-2.16405E-004	0.00000E+000	-5.20800E-001	-7.79272E-004	8	..........a	0	-327.74
	10240	20.482	-5.24536E-001	-2.33716E-004	0.00000E+000	-5.24000E-001	-7.70939E-004	8	..........a	0	-327.74
	10272	20.546	-5.27732E-001	-2.49091E-004	0.00000E+000	-5.27200E-001	-7.54272E-004	8	..........a	0	-327.74
	10304	20.61	-5.30911E-001	-2.65569E-004	0.00000E+000	-5.30400E-001	-7.87605E-004	8	..........a	0	-327.74
	10336	20.674	-5.34371E-001	-2.82589E-004	0.00000E+000	-5.33600E-001	-6.54272E-004	9	..........a	0	-327.74
	10368	20.738	-5.37525E-001	-2.96420E-004	0.00000E+000	-5.36800E-001	-7.20939E-004	9	..........a	0	-327.74
	10400	20.802	-5.40742E-001	-3.09600E-004	0.00000E+000	-5.40000E-001	-7.70939E-004	9	..........a	0	-327.74
	10432	20.866	-5.43933E-001	-3.21973E-004	0.00000E+000	-5.43200E-001	-7.70939E-004	9	..........a	0	-327.74
	10464	20.93	-5.47125E-001	-3.32474E-004	0.00000E+000	-5.46400E-001	-7.04272E-004	9	..........a	0	-327.74
	10496	20.994	-5.50317E-001	-3.40355E-004	0.00000E+000	-5.49600E-001	-7.54272E-004	9	..........a	0	-327.74
	10528	21.058	-5.53546E-001	-3.47183E-004	0.00000E+000	-5.52800E-001	-7.70939E-004	9	..........a	0	-327.74
	10560	21.122	-5.56754E-001	-3.52419E-004	0.00000E+000	-5.56000E-001	-8.20939E-004	9	..........a	0	-327.74
	10592	21.186	-5.59950E-001	-3.56276E-004	0.00000E+000	-5.59200E-001	-7.45939E-004	9	..........a	0	-327.74
	10624	21.25	-5.63100E-001	-3.59339E-004	0.00000E+000	-5.62400E-001	-7.37606E-004	9	..........a	0	-327.74
	10656	21.314	-5.66350E-001	-3.61692E-004	0.00000E+000	-5.65600E-001	-7.95939E-004	9	..........a	0	-327.74
	10688	21.378	-5.69533E-001	-3.63196E-004	0.00000E+000	-5.68800E-001	-7.70939E-004	9	..........a	0	-327.74
	10720	21.442	-5.72771E-001	-3.64759E-004	0.00000E+000	-5.72000E-001	-7.37606E-004	9	..........a	0	-327.74
	10752	21.506	-5.75962E-001	-3.66313E-004	0.00000E+000	-5.75200E-001	-7.45939E-004	9	..........a	0	-327.74
	10784	21.57	-5.79137E-001	-3.66927E-004	0.00000E+000	-5.78400E-001	-7.87605E-004	9	..........a	0	-327.74
	10816	21.634	-5.82362E-001	-3.67182E-004	0.00000E+000	-5.81600E-001	-7.20939E-004	9	..........a	0	-327.74
	10848	21.698	-5.85575E-001	-3.66982E-004	0.00000E+000	-5.84800E-001	-7.37606E-004	9	..........a	0	-327.74
	10880	21.762	-5.88750E-001	-3.67266E-004	0.00000E+000	-5.88000E-001	-7.87605E-004	9	..........a	0	-327.74
	10912	21.826	-5.91912E-001	-3.67792E-004	0.00000E+000	-5.91200E-001	-7.79272E-004	9	..........a	0	-327.74
	10944	21.89	-5.95129E-001	-3.67391E-004	0.00000E+000	-5.94400E-001	-7.45939E-004	9	..........a	0	-327.74
	10976	21.954	-5.98325E-001	-3.66225E-004	0.00000E+000	-5.97600E-001	-6.79272E-004	9	..........a	0	-327.74
	11008	22.018	-6.01537E-001	-3.66079E-004	0.00000E+000	-6.00800E-001	-7.20939E-004	9	..........a	0	-327.74
	11040	22.082	-6.04762E-001	-3.66965E-004	0.00000E+000	-6.04000E-001	-7.54272E-004	9	..........a	0	-327.74
	11072	22.146	-6.07942E-001	-3.67249E-004	0.00000E+000	-6.07200E-001	-7.29272E-004	9	..........a	0	-327.74
	11104	22.21	-6.11158E-001	-3.67542E-004	0.00000E+000	-6.10400E-001	-7.62605E-004	9	..........a	0	-327.74
	11136	22.274	-6.14283E-001	-3.69272E-004	0.00000E+000	-6.13600E-001	-7.37606E-004	9	..........a	0	-327.74
	11168	22.338	-6.17529E-001	-3.70325E-004	0.00000E+000	-6.16800E-001	-7.54272E-004	9	..........a	0	-327.74
	11200	22.402	-6.20725E-001	-3.70170E-004	0.00000E+000	-6.20000E-001	-6.87606E-004	9	..........a	0	-327.74
	11232	22.466	-6.23912E-001	-3.70601E-004	0.00000E+000	-6.23200E-001	-7.45939E-004	9	..........a	0	-327.74
	11264	22.53	-6.27083E-001	-3.70584E-004	0.00000E+000	-6.26400E-001	-6.95939E-004	9	..........a	0	-327.74
	11296	22.594	-6.30300E-001	-3.71353E-004	0.00000E+000	-6.29600E-001	-7.12606E-004	9	..........a	0	-327.74
	11328	22.658	-6.33517E-001	-3.70751E-004	0.00000E+000	-6.32800E-001	-7.54272E-004	9	..........a	0	-327.74
	11360	22.722	-6.36675E-001	-3.69134E-004	0.00000E+000	-6.36000E-001	-7.20939E-004	9	..........a	0	-327.74
	11392	22.786	-6.39921E-001	-3.68866E-004	0.00000E+000	-6.39200E-001	-7.12606E-004	9	..........a	0	-327.74
	11424	22.85	-6.43121E-001	-3.68837E-004	0.00000E+000	-6.42400E-001	-7.45939E-004	9	..........a	0	-327.74
	11456	22.914	-6.46296E-001	-3.67901E-004	0.00000E+000	-6.45600E-001	-7.29272E-004	9	..........a	0	-327.74
	11488	22.978	-6.49546E-001	-3.67295E-004	0.00000E+000	-6.48800E-001	-7.12606E-004	9	..........a	0	-327.74
	11520	23.042	-6.52671E-001	-3.67813E-004	0.00000E+000	-6.52000E-001	-7.54272E-004	9	..........a	0	-327.74
	11552	23.106	-6.55900E-001	-3.68708E-004	0.00000E+000	-6.55200E-001	-7.12606E-004	9	..........a	0	-327.74
	11584	23.17	-6.59092E-001	-3.68800E-004	0.00000E+000	-6.58400E-001	-7.37606E-004	9	..........a	0	-327.74
	11616	23.234	-6.62300E-001	-3.69326E-004	0.00000E+000	-6.61600E-001	-7.79272E-004	9	..........a	0	-327.74
	11648	23.298	-6.65475E-001	-3.68850E-004	0.00000E+000	-6.64800E-001	-7.87605E-004	9	..........a	0	-327.74
	11680	23.362	-6.68704E-001	-3.68173E-004	0.00000E+000	-6.68000E-001	-7.37606E-004	9	..........a	0	-327.74
	11712	23.426	-6.71887E-001	-3.68089E-004	0.00000E+000	-6.71200E-001	-7.45939E-004	9	..........a	0	-327.74
	11744	23.49	-6.75100E-001	-3.68545E-004	0.00000E+000	-6.74400E-001	-7.37606E-004	9	..........a	0	-327.74
	11776	23.554	-6.78271E-001	-3.68950E-004	0.00000E+000	-6.77600E-001	-7.12606E-004	9	..........a	0	-327.74
	11808	23.618	-6.81458E-001	-3.70049E-004	0.00000E+000	-6.80800E-001	-7.62605E-004	9	..........a	0	-327.74
	11840	23.682	-6.84675E-001	-3.70174E-004	0.00000E+000	-6.84000E-001	-7.54272E-004	9	..........a	0	-327.74
	11872	23.746	-6.87908E-001	-3.70099E-004	0.00000E+000	-6.87200E-001	-6.87606E-004	9	..........a	0	-327.74
	11904	23.81	-6.91092E-001	-3.70158E-004	0.00000E+000	-6.90400E-001	-7.04272E-004	9	..........a	0	-327.74
	11936	23.874	-6.94300E-001	-3.70375E-004	0.00000E+000	-6.93600E-001	-7.79272E-004	9	..........a	0	-327.74
	11968	23.938	-6.97496E-001	-3.68674E-004	0.00000E+000	-6.96800E-001	-6.95939E-004	9	..........a	0	-327.74
	12000	24.002	-7.00729E-001	-3.66940E-004	0.00000E+000	-7.00000E-001	-7.20939E-004	9	..........a	0	-327.74
	12032	24.066	-7.03871E-001	-3.67178E-004	0.00000E+000	-7.03200E-001	-7.62605E-004	9	..........a	0	-327.74
	12064	24.13	-7.07054E-001	-3.67872E-004	0.00000E+000	-7.06400E-001	-7.12606E-004	9	..........a	0	-327.74
	12096	24.194	-7.10258E-001	-3.68841E-004	0.00000E+000	-7.09600E-001	-7.20939E-004	9	..........a	0	-327.74
	12128	24.258	-7.13471E-001	-3.69385E-004	0.00000E+000	-7.12800E-001	-6.95939E-004	9	..........a	0	-327.74
	12160	24.322	-7.16675E-001	-3.69719E-004	0.00000E+000	-7.16000E-001	-7.12606E-004	9	..........a	0	-327.74
	12192	24.386	-7.19904E-001	-3.70041E-004	0.00000E+000	-7.19200E-001	-6.70939E-004	9	..........a	0	-327.74
	12224	24.45	-7.23104E-001	-3.68708E-004	0.00000E+000	-7.22400E-001	-7.54272E-004	9	..........a	0	-327.74
	12256	24.514	-7.26258E-001	-3.69209E-004	0.00000E+000	-7.25600E-001	-7.29272E-004	9	..........a	0	-327.74
	12288	24.578	-7.29475E-001	-3.69121E-004	0.00000E+000	-7.28800E-001	-7.54272E-004	9	..........a	0	-327.74
	12320	24.642	-7.32662E-001	-3.70183E-004	0.00000E+000	-7.32000E-001	-7.62605E-004	9	..........a	0	-327.74
	12352	24.706	-7.35842E-001	-3.70847E-004	0.00000E+000	-7.35200E-001	-7.29272E-004	9	..........a	0	-327.74
	12384	24.77	-7.39087E-001	-3.71369E-004	0.00000E+000	-7.38400E-001	-7.20939E-004	9	..........a	0	-327.74
	12416	24.834	-7.42271E-001	-3.71557E-004	0.00000E+000	-7.41600E-001	-7.95939E-004	9	..........a	0	-327.74
	12448	24.898	-7.45496E-001	-3.71081E-004	0.00000E+000	-7.44800E-001	-7.29272E-004	9	..........a	0	-327.74
	12480	24.962	-7.48662E-001	-3.70149E-004	0.00000E+000	-7.48000E-001	-7.45939E-004	9	..........a	0	-327.74
	12512	25.026	-7.51875E-001	-3.69627E-004	0.00000E+000	-7.51200E-001	-7.95939E-004	9	..........a	0	-327.74
	12544	25.09	-7.55012E-001	-3.70049E-004	0.00000E+000	-7.54400E-001	-7.54272E-004	9	..........a	0	-327.74
	12576	25.154	-7.58258E-001	-3.70107E-004	0.00000E+000	-7.57600E-001	-6.95939E-004	9	..........a	0	-327.74
	12608	25.218	-7.61483E-001	-3.69589E-004	0.00000E+000	-7.60800E-001	-7.62605E-004	9	..........a	0	-327.74
	12640	25.282	-7.64662E-001	-3.69995E-004	0.00000E+000	-7.64000E-001	-7.62605E-004	9	..........a	0	-327.74
	12672	25.346	-7.67862E-001	-3.69610E-004	0.00000E+000	-7.67200E-001	-7.12606E-004	9	..........a	0	-327.74
	12704	25.41	-7.71067E-001	-3.68837E-004	0.00000E+000	-7.70400E-001	-7.37606E-004	9	..........a	0	-327.74
	12736	25.474	-7.74258E-001	-3.69105E-004	0.00000E+000	-7.73600E-001	-7.62605E-004	9	..........a	0	-327.74
	12768	25.538	-7.77462E-001	-3.69242E-004	0.00000E+000	-7.76800E-001	-7.45939E-004	9	..........a	0	-327.74
	12800	25.602	-7.80646E-001	-3.68883E-004	0.00000E+000	-7.80000E-001	-7.62605E-004	9	..........a	0	-327.74
	12832	25.666	-7.83837E-001	-3.69385E-004	0.00000E+000	-7.83200E-001	-7.45939E-004	9	..........a	0	-327.74
	12864	25.73	-7.87037E-001	-3.70312E-004	0.00000E+000	-7.86400E-001	-7.54272E-004	9	..........a	0	-327.74
	12896	25.794	-7.90237E-001	-3.70550E-004	0.00000E+000	-7.89600E-001	-7.20939E-004	9	..........a	0	-327.74
	12928	25.858	-7.93446E-001	-3.70367E-004	0.00000E+000	-7.92800E-001	-7.04272E-004	9	..........a	0	-327.74
	12960	25.922	-7.96675E-001	-3.70199E-004	0.00000E+000	-7.96000E-001	-7.12606E-004	9	..........a	0	-327.74
	12992	25.986	-7.99829E-001	-3.70183E-004	0.00000E+000	-7.99200E-001	-7.37606E-004	9	..........a	0	-327.74
	13024	26.05	-8.03075E-001	-3.68983E-004	0.00000E+000	-8.02400E-001	-7.62605E-004	9	..........a	0	-327.74
	13056	26.114	-8.06233E-001	-3.68511E-004	0.00000E+000	-8.05600E-001	-7.70939E-004	9	..........a	0	-327.74
	13088	26.178	-8.09417E-001	-3.68520E-004	0.00000E+000	-8.08800E-001	-7.37606E-004	9	..........a	0	-327.74
	13120	26.242	-8.12683E-001	-3.68929E-004	0.00000E+000	-8.12000E-001	-6.95939E-004	9	..........a	0	-327.74
	13152	26.306	-8.15850E-001	-3.69573E-004	0.00000E+000	-8.15200E-001	-8.04272E-004	9	..........a	0	-327.74
	13184	26.37	-8.19017E-001	-3.68942E-004	0.00000E+000	-8.18400E-001	-7.62605E-004	9	..........a	0	-327.74
	13216	26.434	-8.22250E-001	-3.68561E-004	0.00000E+000	-8.21600E-001	-6.79272E-004	9	..........a	0	-327.74
	13248	26.498	-8.25421E-001	-3.68123E-004	0.00000E+000	-8.24800E-001	-7.54272E-004	9	..........a	0	-327.74
	13280	26.562	-8.28567E-001	-3.67542E-004	0.00000E+000	-8.28000E-001	-7.12606E-004	9	..........a	0	-327.74
	13312	26.626	-8.31767E-001	-3.67734E-004	0.00000E+000	-8.31200E-001	-7.12606E-004	9	..........a	0	-327.74
	13344	26.69	-8.35008E-001	-3.68611E-004	0.00000E+000	-8.34400E-001	-7.45939E-004	9	..........a	0	-327.74
	13376	26.754	-8.38162E-001	-3.69288E-004	0.00000E+000	-8.37600E-001	-6.87606E-004	9	..........a	0	-327.74
	13408	26.818	-8.41408E-001	-3.69042E-004	0.00000E+000	-8.40800E-001	-7.45939E-004	9	..........a	0	-327.74
	13440	26.882	-8.44629E-001	-3.68624E-004	0.00000E+000	-8.44000E-001	-7.29272E-004	9	..........a	0	-327.74
	13472	26.946	-8.47817E-001	-3.69385E-004	0.00000E+000	-8.47200E-001	-7.70939E-004	9	..........a	0	-327.74
	13504	27.01	-8.51012E-001	-3.68478E-004	0.00000E+000	-8.50400E-001	-7.62605E-004	9	..........a	0	-327.74
	13536	27.074	-8.54212E-001	-3.68578E-004	0.00000E+000	-8.53600E-001	-7.62605E-004	9	..........a	0	-327.74
	13568	27.138	-8.57375E-001	-3.68340E-004	0.00000E+000	-8.56800E-001	-7.54272E-004	9	..........a	0	-327.74
	13600	27.202	-8.60562E-001	-3.68357E-004	0.00000E+000	-8.60000E-001	-7.04272E-004	9	..........a	0	-327.74
	13632	27.266	-8.63737E-001	-3.69334E-004	0.00000E+000	-8.63200E-001	-6.95939E-004	9	..........a	0	-327.74
	13664	27.33	-8.66992E-001	-3.71043E-004	0.00000E+000	-8.66400E-001	-7.62605E-004	9	..........a	0	-327.74
	13696	27.394	-8.70192E-001	-3.71211E-004	0.00000E+000	-8.69600E-001	-7.54272E-004	9	..........a	0	-327.74
	13728	27.458	-8.73383E-001	-3.70358E-004	0.00000E+000	-8.72800E-001	-8.04272E-004	9	..........a	0	-327.74
	13760	27.522	-8.76562E-001	-3.69397E-004	0.00000E+000	-8.76000E-001	-7.54272E-004	9	..........a	0	-327.74
	13792	27.586	-8.79821E-001	-3.68085E-004	0.00000E+000	-8.79200E-001	-6.95939E-004	9	..........a	0	-327.74
	13824	27.65	-8.82937E-001	-3.67801E-004	0.00000E+000	-8.82400E-001	-7.12606E-004	9	..........a	0	-327.74
	13856	27.714	-8.86183E-001	-3.68695E-004	0.00000E+000	-8.85600E-001	-7.54272E-004	9	..........a	0	-327.74
	13888	27.778	-8.89350E-001	-3.69125E-004	0.00000E+000	-8.88800E-001	-7.37606E-004	9	..........a	0	-327.74
	13920	27.842	-8.92571E-001	-3.69476E-004	0.00000E+000	-8.92000E-001	-6.95939E-004	9	..........a	0	-327.74
	13952	27.906	-8.95733E-001	-3.69418E-004	0.00000E+000	-8.95200E-001	-7.29272E-004	9	..........a	0	-327.74
	13984	27.97	-8.98958E-001	-3.68570E-004	0.00000E+000	-8.98400E-001	-7.70939E-004	9	..........a	0	-327.74
	14016	28.034	-9.02192E-001	-3.69827E-004	0.00000E+000	-9.01600E-001	-7.29272E-004	9	..........a	0	-327.74
	14048	28.098	-9.05375E-001	-3.70421E-004	0.00000E+000	-9.04800E-001	-7.70939E-004	9	..........a	0	-327.74
	14080	28.162	-9.08537E-001	-3.69451E-004	0.00000E+000	-9.08000E-001	-7.20939E-004	9	..........a	0	-327.74
	14112	28.226	-9.11704E-001	-3.69765E-004	0.00000E+000	-9.11200E-001	-7.54272E-004	9	..........a	0	-327.74
	14144	28.29	-9.14946E-001	-3.69957E-004	0.00000E+000	-9.14400E-001	-6.95939E-004	9	..........a	0	-327.74
	14176	28.354	-9.18171E-001	-3.68749E-004	0.00000E+000	-9.17600E-001	-7.37606E-004	9	..........a	0	-327.74
	14208	28.418	-9.21392E-001	-3.68089E-004	0.00000E+000	-9.20800E-001	-6.70939E-004	9	..........a	0	-327.74
	14240	28.482	-9.24592E-001	-3.67993E-004	0.00000E+000	-9.24000E-001	-7.37606E-004	9	..........a	0	-327.74
	14272	28.546	-9.27792E-001	-3.68311E-004	0.00000E+000	-9.27200E-001	-7.12606E-004	9	..........a	0	-327.74
	14304	28.61	-9.30979E-001	-3.68845E-004	0.00000E+000	-9.30400E-001	-7.37606E-004	9	..........a	0	-327.74
	14336	28.674	-9.34117E-001	-3.69451E-004	0.00000E+000	-9.33600E-001	-6.87606E-004	9	..........a	0	-327.74
	14368	28.738	-9.37304E-001	-3.70492E-004	0.00000E+000	-9.36800E-001	-7.29272E-004	9	..........a	0	-327.74
	14400	28.802	-9.40500E-001	-3.71269E-004	0.00000E+000	-9.40000E-001	-6.95939E-004	9	..........a	0	-327.74
	14432	28.866	-9.43721E-001	-3.71654E-004	0.00000E+000	-9.43200E-001	-7.54272E-004	9	..........a	0	-327.74
	14464	28.93	-9.46983E-001	-3.70199E-004	0.00000E+000	-9.46400E-001	-7.87605E-004	9	..........a	0	-327.74
	14496	28.994	-9.50133E-001	-3.69418E-004	0.00000E+000	-9.49600E-001	-7.45939E-004	9	..........a	0	-327.74
	14528	29.058	-9.53387E-001	-3.69690E-004	0.00000E+000	-9.52800E-001	-7.04272E-004	9	..........a	0	-327.74
	14560	29.122	-9.56550E-001	-3.70329E-004	0.00000E+000	-9.56000E-001	-7.29272E-004	9	..........a	0	-327.74
	14592	29.186	-9.59700E-001	-3.70266E-004	0.00000E+000	-9.59200E-001	-7.54272E-004	9	..........a	0	-327.74
	14624	29.25	-9.62896E-001	-3.70346E-004	0.00000E+000	-9.62400E-001	-7.04272E-004	9	..........a	0	-327.74
	14656	29.314	-9.66133E-001	-3.70571E-004	0.00000E+000	-9.65600E-001	-7.54272E-004	9	..........a	0	-327.74
	14688	29.378	-9.69329E-001	-3.71194E-004	0.00000E+000	-9.68800E-001	-6.45939E-004	9	..........a	0	-327.74
	14720	29.442	-9.72546E-001	-3.70747E-004	0.00000E+000	-9.72000E-001	-7.87605E-004	9	..........a	0	-327.74
	14752	29.506	-9.75704E-001	-3.71942E-004	0.00000E+000	-9.75200E-001	-7.79272E-004	9	..........a	0	-327.74
	14784	29.57	-9.78979E-001	-3.72844E-004	0.00000E+000	-9.78400E-001	-7.20939E-004	9	..........a	0	-327.74
	14816	29.634	-9.82200E-001	-3.72978E-004	0.00000E+000	-9.81600E-001	-7.70939E-004	9	..........a	0	-327.74
	14848	29.698	-9.85287E-001	-3.72690E-004	0.00000E+000	-9.84800E-001	-7.87605E-004	9	..........a	0	-327.74
	14880	29.762	-9.88521E-001	-3.71896E-004	0.00000E+000	-9.88000E-001	-7.79272E-004	9	..........a	0	-327.74
	14912	29.826	-9.91717E-001	-3.71511E-004	0.00000E+000	-9.91200E-001	-7.45939E-004	9	..........a	0	-327.74
	14944	29.89	-9.94904E-001	-3.71624E-004	0.00000E+000	-9.94400E-001	-7.45939E-004	9	..........a	0	-327.74
	14976	29.954	-9.98154E-001	-3.73012E-004	0.00000E+000	-9.97600E-001	-7.29272E-004	9	..........a	0	-327.74
	15000	30.002	-1.00049E+000	-3.74165E-004	0.00000E+000	-1.00000E+000	-7.12606E-004	9	..........a	0	-327.74