File: data/02-SI/Figures_S9_S11_RDE/18btmapaq-rde/1mkcl-18btmapaq-nitrogen-800mvpers.DTA
EXPLAIN
TAG	CV
TITLE	LABEL	Cyclic Voltammetry	Test &Identifier
DATE	LABEL	1/31/2023	Date
TIME	LABEL	15:22:08	Time
NOTES	NOTES	1	&Notes...

PSTAT	PSTAT	REF3000-21108	Potentiostat
VINIT	POTEN	5.00000E-001	F	Initial &E (V)
VLIMIT1	POTEN	-1.00000E+000	F	Scan Limit &1 (V)
VLIMIT2	POTEN	5.00000E-001	F	Scan Limit &2 (V)
VFINAL	POTEN	5.00000E-001	F	Final &E (V)
SCANRATE	QUANT	7.99998E+002	&Scan Rate (mV/s)
STEPSIZE	QUANT	1.00000E+000	St&ep Size (mV)
CYCLES	IQUANT	1	C&ycles (#)
IMODE	SELECTOR	1	I/E Range &Mode
IRANGE	QUANT	1.00000E+001	&Max Current (mA)
AREA	QUANT	1.00000E+000	Electrode &Area (cm^2)
ELECTRODETYPE	SELECTOR	0	Electrode Type
STRIPPING	TOGGLE	F	Used for Stripping
POLARITY	TOGGLE	F	Signal Polarity
CONDIT	TWOPARAM	F	1.50000E+001	0.00000E+000	Conditionin&g	Time(s)	E(V)
DELAY	TWOPARAM	F	5.00000E+000	0.00000E+000	Init. De&lay	Time(s)	Stab.(mV/s)
EQDELAY	QUANT	0.00000E+000	Equil. &Time (s)
IRCOMP	SELECTOR	0	IRCom&p
PFCOR	QUANT	5.00000E+001	PF Corr. (ohm)
SAMPLINGMODE	SELECTOR	1	Sampling &Mode
EOC	QUANT	0	Open Circuit (V)
PSTATMODEL	IQUANT	5	Pstat Model
PSTATSECTION	LABEL	REF3000-21108	Pstat Section
PSTATSERIALNO	LABEL	21108	Pstat Serial Number
CTRLMODE	IQUANT	1	Control Mode
ELECTROMETER	IQUANT	0	RE=0 or CS=1
IESTAB	IQUANT	2	I/E Stability
CASPEED	IQUANT	4	Control Amp Speed
CONVENTION	IQUANT	1	Current Convention
ICHRANGE	IQUANT	2	Ich Range
ICHRANGEMODE	TOGGLE	F	Ich Auto Range
ICHOFFSETENABLE	TOGGLE	F	Ich Offset Enable
ICHOFFSET	QUANT	0	Ich Offset (V)
ICHFILTER	IQUANT	1	Ich Filter
VCHRANGE	IQUANT	2	Vch Range
VCHRANGEMODE	TOGGLE	F	Vch Auto Range
VCHOFFSETENABLE	TOGGLE	F	Vch Offset Enable
VCHOFFSET	QUANT	0	Vch Offset (V)
VCHFILTER	IQUANT	1	Vch Filter
ACHRANGE	IQUANT	2	Ach Range
ACHOFFSETENABLE	TOGGLE	F	Ach Offset Enable
ACHOFFSET	QUANT	0	Ach Offset (V)
ACHFILTER	IQUANT	0	Ach Filter
IERANGELOWERLIMIT	IQUANT	2	I/E Range Lower Limit
IERANGEMODE	TOGGLE	F	I/E AutoRange
IERANGE	IQUANT	10	I/E Range
POSFEEDENABLE	TOGGLE	F	Positive Feedback IR Comp
POSFEEDRESISTANCE	QUANT	0	Positive Feedback Resistance (ohm)
ACHSELECT	IQUANT	0	Ach Select
SENSECABLEID	IQUANT	14	Sense Cable ID
PWRCABLEID	IQUANT	7	Power Cable ID
DCCALDATE	LABEL	11/9/2022	DC Calibration Date
ACCALDATE	LABEL	11/9/2022	AC Calibration Date
THERMOSELECT	IQUANT	1	Thermo Select
FRAMEWORKVERSION	LABEL	7.8.2	Framework Version
INSTRUMENTVERSION	LABEL	4.40	Instrument Version
COMPLIANCEVOLTAGE	IQUANT	0	Compliance Voltage
CURVE1	TABLE
	Pt	T	Vf	Im	Vu	Sig	Ach	IERange	Over	Temp
	#	s	V vs. Ref.	A	V	V	V	#	bits	deg C
	0	0.00125	4.98631E-001	1.27480E-005	0.00000E+000	5.00000E-001	-6.29272E-004	10	..........a	-327.74
	7	0.01	4.91671E-001	7.06665E-006	0.00000E+000	4.93000E-001	-6.29272E-004	10	..........a	-327.74
	14	0.01875	4.84631E-001	4.86094E-006	0.00000E+000	4.86000E-001	-6.29272E-004	10	..........a	-327.74
	21	0.0275	4.77758E-001	3.05627E-006	0.00000E+000	4.79000E-001	-6.29272E-004	10	..........a	-327.74
	28	0.03625	4.70604E-001	3.15850E-007	0.00000E+000	4.72000E-001	-6.79272E-004	10	..........a	-327.74
	35	0.045	4.63631E-001	4.49530E-007	0.00000E+000	4.65000E-001	-6.16772E-004	10	..........a	-327.74
	42	0.05375	4.56818E-001	-2.95929E-006	0.00000E+000	4.58000E-001	-6.29272E-004	10	..........a	-327.74
	49	0.0625	4.49651E-001	-4.63028E-006	0.00000E+000	4.51000E-001	-6.29272E-004	10	..........a	-327.74
	56	0.07125	4.42704E-001	-4.89764E-006	0.00000E+000	4.44000E-001	-6.29272E-004	10	..........a	-327.74
	63	0.08	4.35658E-001	-6.36811E-006	0.00000E+000	4.37000E-001	-6.29272E-004	10	..........a	-327.74
	70	0.08875	4.28671E-001	-4.69712E-006	0.00000E+000	4.30000E-001	-6.29272E-004	10	..........a	-327.74
	77	0.0975	4.21718E-001	-5.90023E-006	0.00000E+000	4.23000E-001	-6.29272E-004	10	..........a	-327.74
	84	0.10625	4.14611E-001	-7.03651E-006	0.00000E+000	4.16000E-001	-6.29272E-004	10	..........a	-327.74
	91	0.115	4.07644E-001	-7.97226E-006	0.00000E+000	4.09000E-001	-6.29272E-004	10	..........a	-327.74
	98	0.12375	4.00811E-001	-7.97226E-006	0.00000E+000	4.02000E-001	-6.29272E-004	10	..........a	-327.74
	105	0.1325	3.93664E-001	-8.30646E-006	0.00000E+000	3.95000E-001	-6.29272E-004	10	..........a	-327.74
	112	0.14125	3.86691E-001	-8.10594E-006	0.00000E+000	3.88000E-001	-6.29272E-004	10	..........a	-327.74
	119	0.15	3.79731E-001	-8.84118E-006	0.00000E+000	3.81000E-001	-6.16772E-004	10	..........a	-327.74
	126	0.15875	3.72698E-001	-9.91061E-006	0.00000E+000	3.74000E-001	-6.29272E-004	10	..........a	-327.74
	133	0.1675	3.65718E-001	-9.17537E-006	0.00000E+000	3.67000E-001	-6.04272E-004	10	..........a	-327.74
	140	0.17625	3.58618E-001	-9.77693E-006	0.00000E+000	3.60000E-001	-6.29272E-004	10	..........a	-327.74
	147	0.185	3.51704E-001	-1.15148E-005	0.00000E+000	3.53000E-001	-6.29272E-004	10	..........a	-327.74
	154	0.19375	3.44724E-001	-1.16484E-005	0.00000E+000	3.46000E-001	-6.29272E-004	10	..........a	-327.74
	161	0.2025	3.37664E-001	-1.08464E-005	0.00000E+000	3.39000E-001	-6.29272E-004	10	..........a	-327.74
	168	0.21125	3.30758E-001	-1.15148E-005	0.00000E+000	3.32000E-001	-6.29272E-004	10	..........a	-327.74
	175	0.22	3.23791E-001	-1.16484E-005	0.00000E+000	3.25000E-001	-6.29272E-004	10	..........a	-327.74
	182	0.22875	3.16704E-001	-1.17153E-005	0.00000E+000	3.18000E-001	-6.29272E-004	10	..........a	-327.74
	189	0.2375	3.09778E-001	-1.13811E-005	0.00000E+000	3.11000E-001	-6.29272E-004	10	..........a	-327.74
	196	0.24625	3.02751E-001	-1.17153E-005	0.00000E+000	3.04000E-001	-6.66772E-004	10	..........a	-327.74
	203	0.255	2.95731E-001	-1.25842E-005	0.00000E+000	2.97000E-001	-6.16772E-004	10	..........a	-327.74
	210	0.26375	2.88764E-001	-1.17153E-005	0.00000E+000	2.90000E-001	-6.29272E-004	10	..........a	-327.74
	217	0.2725	2.81724E-001	-1.21832E-005	0.00000E+000	2.83000E-001	-6.41772E-004	10	..........a	-327.74
	224	0.28125	2.74691E-001	-1.14479E-005	0.00000E+000	2.76000E-001	-6.29272E-004	10	..........a	-327.74
	231	0.29	2.67658E-001	-1.22500E-005	0.00000E+000	2.69000E-001	-6.29272E-004	10	..........a	-327.74
	238	0.29875	2.60711E-001	-1.14479E-005	0.00000E+000	2.62000E-001	-6.29272E-004	10	..........a	-327.74
	245	0.3075	2.53798E-001	-1.15816E-005	0.00000E+000	2.55000E-001	-6.29272E-004	10	..........a	-327.74
	252	0.31625	2.46778E-001	-1.13142E-005	0.00000E+000	2.48000E-001	-6.66772E-004	10	..........a	-327.74
	259	0.325	2.39724E-001	-1.19158E-005	0.00000E+000	2.41000E-001	-6.29272E-004	10	..........a	-327.74
	266	0.33375	2.32878E-001	-1.18490E-005	0.00000E+000	2.34000E-001	-6.29272E-004	10	..........a	-327.74
	273	0.3425	2.25738E-001	-1.13142E-005	0.00000E+000	2.27000E-001	-6.29272E-004	10	..........a	-327.74
	280	0.35125	2.18718E-001	-1.13142E-005	0.00000E+000	2.20000E-001	-6.29272E-004	10	..........a	-327.74
	287	0.36	2.11744E-001	-1.26510E-005	0.00000E+000	2.13000E-001	-6.54272E-004	10	..........a	-327.74
	294	0.36875	2.04744E-001	-1.19158E-005	0.00000E+000	2.06000E-001	-6.29272E-004	10	..........a	-327.74
	301	0.3775	1.97824E-001	-1.17821E-005	0.00000E+000	1.99000E-001	-6.29272E-004	10	..........a	-327.74
	308	0.38625	1.90798E-001	-1.20495E-005	0.00000E+000	1.92000E-001	-6.29272E-004	10	..........a	-327.74
	315	0.395	1.83731E-001	-1.23168E-005	0.00000E+000	1.85000E-001	-6.29272E-004	10	..........a	-327.74
	322	0.40375	1.76971E-001	-1.25842E-005	0.00000E+000	1.78000E-001	-6.29272E-004	10	..........a	-327.74
	329	0.4125	1.69731E-001	-1.23168E-005	0.00000E+000	1.71000E-001	-6.29272E-004	10	..........a	-327.74
	336	0.42125	1.62771E-001	-1.27179E-005	0.00000E+000	1.64000E-001	-6.29272E-004	10	..........a	-327.74
	343	0.43	1.55864E-001	-1.33863E-005	0.00000E+000	1.57000E-001	-6.29272E-004	10	..........a	-327.74
	350	0.43875	1.48784E-001	-1.26510E-005	0.00000E+000	1.50000E-001	-6.16772E-004	10	..........a	-327.74
	357	0.4475	1.41824E-001	-1.23837E-005	0.00000E+000	1.43000E-001	-6.29272E-004	10	..........a	-327.74
	364	0.45625	1.34798E-001	-1.33863E-005	0.00000E+000	1.36000E-001	-6.29272E-004	10	..........a	-327.74
	371	0.465	1.27784E-001	-1.17153E-005	0.00000E+000	1.29000E-001	-6.29272E-004	10	..........a	-327.74
	378	0.47375	1.20944E-001	-1.23168E-005	0.00000E+000	1.22000E-001	-6.29272E-004	10	..........a	-327.74
	385	0.4825	1.13778E-001	-1.22500E-005	0.00000E+000	1.15000E-001	-6.29272E-004	10	..........a	-327.74
	392	0.49125	1.06798E-001	-1.23837E-005	0.00000E+000	1.08000E-001	-6.29272E-004	10	..........a	-327.74
	399	0.5	9.99043E-002	-1.30521E-005	0.00000E+000	1.01000E-001	-6.16772E-004	10	..........a	-327.74
	406	0.50875	9.28243E-002	-1.23837E-005	0.00000E+000	9.40000E-002	-6.29272E-004	10	..........a	-327.74
	413	0.5175	8.58310E-002	-1.21832E-005	0.00000E+000	8.70000E-002	-6.29272E-004	10	..........a	-327.74
	420	0.52625	7.88043E-002	-1.35199E-005	0.00000E+000	8.00000E-002	-6.29272E-004	10	..........a	-327.74
	427	0.535	7.17643E-002	-1.29184E-005	0.00000E+000	7.30000E-002	-6.29272E-004	10	..........a	-327.74
	434	0.54375	6.49510E-002	-1.33863E-005	0.00000E+000	6.60000E-002	-6.29272E-004	10	..........a	-327.74
	441	0.5525	5.78043E-002	-1.27179E-005	0.00000E+000	5.90000E-002	-6.41772E-004	10	..........a	-327.74
	448	0.56125	5.08310E-002	-1.24505E-005	0.00000E+000	5.20000E-002	-6.29272E-004	10	..........a	-327.74
	455	0.57	4.39710E-002	-1.27847E-005	0.00000E+000	4.50000E-002	-6.66772E-004	10	..........a	-327.74
	462	0.57875	3.68110E-002	-1.25842E-005	0.00000E+000	3.80000E-002	-6.41772E-004	10	..........a	-327.74
	469	0.5875	2.98177E-002	-1.23168E-005	0.00000E+000	3.10000E-002	-6.29272E-004	10	..........a	-327.74
	476	0.59625	2.28977E-002	-1.34531E-005	0.00000E+000	2.40000E-002	-6.29272E-004	10	..........a	-327.74
	483	0.605	1.58243E-002	-1.35199E-005	0.00000E+000	1.70000E-002	-6.29272E-004	10	..........a	-327.74
	490	0.61375	8.89767E-003	-1.28516E-005	0.00000E+000	9.99999E-003	-6.29272E-004	10	..........a	-327.74
	497	0.6225	1.86434E-003	-1.27847E-005	0.00000E+000	2.99999E-003	-6.41772E-004	10	..........a	-327.74
	504	0.63125	-5.21566E-003	-1.42552E-005	0.00000E+000	-4.00001E-003	-6.16772E-004	10	..........a	-327.74
	511	0.64	-1.19890E-002	-1.41215E-005	0.00000E+000	-1.10000E-002	-6.66772E-004	10	..........a	-327.74
	518	0.64875	-1.92090E-002	-1.42552E-005	0.00000E+000	-1.80000E-002	-6.29272E-004	10	..........a	-327.74
	525	0.6575	-2.61690E-002	-1.37873E-005	0.00000E+000	-2.50000E-002	-6.16772E-004	10	..........a	-327.74
	532	0.66625	-3.31890E-002	-1.29184E-005	0.00000E+000	-3.20000E-002	-6.29272E-004	10	..........a	-327.74
	539	0.675	-4.01957E-002	-1.33194E-005	0.00000E+000	-3.90000E-002	-6.54272E-004	10	..........a	-327.74
	546	0.68375	-4.71290E-002	-1.34531E-005	0.00000E+000	-4.60000E-002	-6.29272E-004	10	..........a	-327.74
	553	0.6925	-5.41290E-002	-1.35868E-005	0.00000E+000	-5.30000E-002	-6.29272E-004	10	..........a	-327.74
	560	0.70125	-6.12423E-002	-1.46562E-005	0.00000E+000	-6.00000E-002	-7.04272E-004	10	..........a	-327.74
	567	0.71	-6.81757E-002	-1.41883E-005	0.00000E+000	-6.70000E-002	-6.29272E-004	10	..........a	-327.74
	574	0.71875	-7.52023E-002	-1.33863E-005	0.00000E+000	-7.40000E-002	-6.41772E-004	10	..........a	-327.74
	581	0.7275	-8.20890E-002	-1.31189E-005	0.00000E+000	-8.10000E-002	-6.29272E-004	10	..........a	-327.74
	588	0.73625	-8.89290E-002	-1.30521E-005	0.00000E+000	-8.80000E-002	-6.41772E-004	10	..........a	-327.74
	595	0.745	-9.61357E-002	-1.33194E-005	0.00000E+000	-9.50000E-002	-6.29272E-004	10	..........a	-327.74
	602	0.75375	-1.03062E-001	-1.39878E-005	0.00000E+000	-1.02000E-001	-6.66772E-004	10	..........a	-327.74
	609	0.7625	-1.10162E-001	-1.39878E-005	0.00000E+000	-1.09000E-001	-6.29272E-004	10	..........a	-327.74
	616	0.77125	-1.17162E-001	-1.39878E-005	0.00000E+000	-1.16000E-001	-6.29272E-004	10	..........a	-327.74
	623	0.78	-1.24116E-001	-1.37205E-005	0.00000E+000	-1.23000E-001	-6.29272E-004	10	..........a	-327.74
	630	0.78875	-1.31162E-001	-1.42552E-005	0.00000E+000	-1.30000E-001	-6.29272E-004	10	..........a	-327.74
	637	0.7975	-1.38069E-001	-1.35199E-005	0.00000E+000	-1.37000E-001	-6.29272E-004	10	..........a	-327.74
	644	0.80625	-1.45122E-001	-1.34531E-005	0.00000E+000	-1.44000E-001	-6.66772E-004	10	..........a	-327.74
	651	0.815	-1.52142E-001	-1.38541E-005	0.00000E+000	-1.51000E-001	-6.29272E-004	10	..........a	-327.74
	658	0.82375	-1.59049E-001	-1.41215E-005	0.00000E+000	-1.58000E-001	-6.66772E-004	10	..........a	-327.74
	665	0.8325	-1.66036E-001	-1.45225E-005	0.00000E+000	-1.65000E-001	-6.29272E-004	10	..........a	-327.74
	672	0.84125	-1.73122E-001	-1.45894E-005	0.00000E+000	-1.72000E-001	-6.29272E-004	10	..........a	-327.74
	679	0.85	-1.79929E-001	-1.43220E-005	0.00000E+000	-1.79000E-001	-6.29272E-004	10	..........a	-327.74
	686	0.85875	-1.87136E-001	-1.45225E-005	0.00000E+000	-1.86000E-001	-6.29272E-004	10	..........a	-327.74
	693	0.8675	-1.94129E-001	-1.55251E-005	0.00000E+000	-1.93000E-001	-6.29272E-004	10	..........a	-327.74
	700	0.87625	-2.01069E-001	-1.51909E-005	0.00000E+000	-2.00000E-001	-6.29272E-004	10	..........a	-327.74
	707	0.885	-2.08082E-001	-1.49236E-005	0.00000E+000	-2.07000E-001	-6.29272E-004	10	..........a	-327.74
	714	0.89375	-2.15036E-001	-1.56588E-005	0.00000E+000	-2.14000E-001	-6.29272E-004	10	..........a	-327.74
	721	0.9025	-2.22109E-001	-1.56588E-005	0.00000E+000	-2.21000E-001	-6.29272E-004	10	..........a	-327.74
	728	0.91125	-2.29089E-001	-1.65946E-005	0.00000E+000	-2.28000E-001	-6.29272E-004	10	..........a	-327.74
	735	0.92	-2.35869E-001	-1.55251E-005	0.00000E+000	-2.35000E-001	-6.29272E-004	10	..........a	-327.74
	742	0.92875	-2.43069E-001	-1.75303E-005	0.00000E+000	-2.42000E-001	-6.29272E-004	10	..........a	-327.74
	749	0.9375	-2.50076E-001	-1.73298E-005	0.00000E+000	-2.49000E-001	-6.29272E-004	10	..........a	-327.74
	756	0.94625	-2.57029E-001	-1.79314E-005	0.00000E+000	-2.56000E-001	-6.29272E-004	10	..........a	-327.74
	763	0.955	-2.64056E-001	-2.02039E-005	0.00000E+000	-2.63000E-001	-6.66772E-004	10	..........a	-327.74
	770	0.96375	-2.71089E-001	-2.00702E-005	0.00000E+000	-2.70000E-001	-6.66772E-004	10	..........a	-327.74
	777	0.9725	-2.78062E-001	-1.98029E-005	0.00000E+000	-2.77000E-001	-6.29272E-004	10	..........a	-327.74
	784	0.98125	-2.85089E-001	-1.94687E-005	0.00000E+000	-2.84000E-001	-6.29272E-004	10	..........a	-327.74
	791	0.99	-2.91876E-001	-1.98697E-005	0.00000E+000	-2.91000E-001	-6.29272E-004	10	..........a	-327.74
	798	0.99875	-2.99102E-001	-2.14070E-005	0.00000E+000	-2.98000E-001	-6.29272E-004	10	..........a	-327.74
	805	1.0075	-3.06076E-001	-2.19417E-005	0.00000E+000	-3.05000E-001	-6.29272E-004	10	..........a	-327.74
	812	1.01625	-3.13009E-001	-2.32785E-005	0.00000E+000	-3.12000E-001	-6.29272E-004	10	..........a	-327.74
	819	1.025	-3.20036E-001	-2.28107E-005	0.00000E+000	-3.19000E-001	-6.29272E-004	10	..........a	-327.74
	826	1.03375	-3.27002E-001	-2.32785E-005	0.00000E+000	-3.26000E-001	-6.16772E-004	10	..........a	-327.74
	833	1.0425	-3.34022E-001	-2.58184E-005	0.00000E+000	-3.33000E-001	-6.29272E-004	10	..........a	-327.74
	840	1.05125	-3.41062E-001	-2.62195E-005	0.00000E+000	-3.40000E-001	-6.66772E-004	10	..........a	-327.74
	847	1.06	-3.47949E-001	-2.70884E-005	0.00000E+000	-3.47000E-001	-6.29272E-004	10	..........a	-327.74
	854	1.06875	-3.55102E-001	-2.82915E-005	0.00000E+000	-3.54000E-001	-6.29272E-004	10	..........a	-327.74
	861	1.0775	-3.62042E-001	-2.91604E-005	0.00000E+000	-3.61000E-001	-6.54272E-004	10	..........a	-327.74
	868	1.08625	-3.68776E-001	-3.04972E-005	0.00000E+000	-3.68000E-001	-6.16772E-004	10	..........a	-327.74
	875	1.095	-3.76029E-001	-3.23019E-005	0.00000E+000	-3.75000E-001	-6.29272E-004	10	..........a	-327.74
	882	1.10375	-3.83009E-001	-3.32376E-005	0.00000E+000	-3.82000E-001	-6.29272E-004	10	..........a	-327.74
	889	1.1125	-3.90016E-001	-3.47749E-005	0.00000E+000	-3.89000E-001	-6.29272E-004	10	..........a	-327.74
	896	1.12125	-3.97036E-001	-3.65128E-005	0.00000E+000	-3.96000E-001	-6.29272E-004	10	..........a	-327.74
	903	1.13	-4.03922E-001	-3.84511E-005	0.00000E+000	-4.03000E-001	-6.41772E-004	10	..........a	-327.74
	910	1.13875	-4.11076E-001	-4.08573E-005	0.00000E+000	-4.10000E-001	-6.29272E-004	10	..........a	-327.74
	917	1.1475	-4.18089E-001	-4.43998E-005	0.00000E+000	-4.17000E-001	-6.66772E-004	10	..........a	-327.74
	924	1.15625	-4.25029E-001	-4.68729E-005	0.00000E+000	-4.24000E-001	-6.29272E-004	10	..........a	-327.74
	931	1.165	-4.32036E-001	-5.36237E-005	0.00000E+000	-4.31000E-001	-6.66772E-004	10	..........a	-327.74
	938	1.17375	-4.38942E-001	-5.93719E-005	0.00000E+000	-4.38000E-001	-6.29272E-004	10	..........a	-327.74
	945	1.1825	-4.45989E-001	-6.75932E-005	0.00000E+000	-4.45000E-001	-6.29272E-004	10	..........a	-327.74
	952	1.19125	-4.52949E-001	-7.86886E-005	0.00000E+000	-4.52000E-001	-6.29272E-004	10	..........a	-327.74
	959	1.2	-4.59956E-001	-9.39280E-005	0.00000E+000	-4.59000E-001	-6.29272E-004	10	..........a	-327.74
	966	1.20875	-4.67062E-001	-1.12376E-004	0.00000E+000	-4.66000E-001	-6.29272E-004	10	..........a	-327.74
	973	1.2175	-4.74016E-001	-1.37374E-004	0.00000E+000	-4.73000E-001	-6.29272E-004	10	..........a	-327.74
	980	1.22625	-4.81042E-001	-1.65446E-004	0.00000E+000	-4.80000E-001	-6.29272E-004	10	..........a	-327.74
	987	1.235	-4.87976E-001	-1.99668E-004	0.00000E+000	-4.87000E-001	-6.29272E-004	10	..........a	-327.74
	994	1.24375	-4.94929E-001	-2.40975E-004	0.00000E+000	-4.94000E-001	-6.29272E-004	10	..........a	-327.74
	1001	1.2525	-5.01996E-001	-2.91238E-004	0.00000E+000	-5.01000E-001	-6.29272E-004	10	..........a	-327.74
	1008	1.26125	-5.08976E-001	-3.48320E-004	0.00000E+000	-5.08000E-001	-6.29272E-004	10	..........a	-327.74
	1015	1.27	-5.15876E-001	-4.11683E-004	0.00000E+000	-5.15000E-001	-6.29272E-004	10	..........a	-327.74
	1022	1.27875	-5.23076E-001	-4.77788E-004	0.00000E+000	-5.22000E-001	-6.29272E-004	10	..........a	-327.74
	1029	1.2875	-5.29996E-001	-5.45697E-004	0.00000E+000	-5.29000E-001	-6.29272E-004	10	..........a	-327.74
	1036	1.29625	-5.36936E-001	-6.11200E-004	0.00000E+000	-5.36000E-001	-6.29272E-004	10	..........a	-327.74
	1043	1.305	-5.43969E-001	-6.68949E-004	0.00000E+000	-5.43000E-001	-6.29272E-004	10	..........a	-327.74
	1050	1.31375	-5.50982E-001	-7.16205E-004	0.00000E+000	-5.50000E-001	-6.29272E-004	10	..........a	-327.74
	1057	1.3225	-5.57916E-001	-7.50360E-004	0.00000E+000	-5.57000E-001	-6.29272E-004	10	..........a	-327.74
	1064	1.33125	-5.64936E-001	-7.68941E-004	0.00000E+000	-5.64000E-001	-6.29272E-004	10	..........a	-327.74
	1071	1.34	-5.71876E-001	-7.73152E-004	0.00000E+000	-5.71000E-001	-6.29272E-004	10	..........a	-327.74
	1078	1.34875	-5.78982E-001	-7.56910E-004	0.00000E+000	-5.78000E-001	-6.29272E-004	10	..........a	-327.74
	1085	1.3575	-5.85989E-001	-7.28369E-004	0.00000E+000	-5.85000E-001	-6.29272E-004	10	..........a	-327.74
	1092	1.36625	-5.92889E-001	-6.91675E-004	0.00000E+000	-5.92000E-001	-6.66772E-004	10	..........a	-327.74
	1099	1.375	-5.99962E-001	-6.52841E-004	0.00000E+000	-5.99000E-001	-6.29272E-004	10	..........a	-327.74
	1106	1.38375	-6.06896E-001	-6.15678E-004	0.00000E+000	-6.06000E-001	-6.29272E-004	10	..........a	-327.74
	1113	1.3925	-6.13962E-001	-5.84998E-004	0.00000E+000	-6.13000E-001	-6.54272E-004	10	..........a	-327.74
	1120	1.40125	-6.20882E-001	-5.56525E-004	0.00000E+000	-6.20000E-001	-6.16772E-004	10	..........a	-327.74
	1127	1.41	-6.27909E-001	-5.29588E-004	0.00000E+000	-6.27000E-001	-6.29272E-004	10	..........a	-327.74
	1134	1.41875	-6.34982E-001	-5.09336E-004	0.00000E+000	-6.34000E-001	-6.29272E-004	10	..........a	-327.74
	1141	1.4275	-6.41902E-001	-4.90688E-004	0.00000E+000	-6.41000E-001	-6.29272E-004	10	..........a	-327.74
	1148	1.43625	-6.48742E-001	-4.74713E-004	0.00000E+000	-6.48000E-001	-6.29272E-004	10	..........a	-327.74
	1155	1.445	-6.55929E-001	-4.59073E-004	0.00000E+000	-6.55000E-001	-6.29272E-004	10	..........a	-327.74
	1162	1.45375	-6.62889E-001	-4.46240E-004	0.00000E+000	-6.62000E-001	-6.29272E-004	10	..........a	-327.74
	1169	1.4625	-6.69856E-001	-4.33139E-004	0.00000E+000	-6.69000E-001	-6.66772E-004	10	..........a	-327.74
	1176	1.47125	-6.76982E-001	-4.22645E-004	0.00000E+000	-6.76000E-001	-6.54272E-004	10	..........a	-327.74
	1183	1.48	-6.83896E-001	-4.11082E-004	0.00000E+000	-6.83000E-001	-6.29272E-004	10	..........a	-327.74
	1190	1.48875	-6.90956E-001	-4.00454E-004	0.00000E+000	-6.90000E-001	-6.29272E-004	10	..........a	-327.74
	1197	1.4975	-6.97929E-001	-3.93770E-004	0.00000E+000	-6.97000E-001	-6.66772E-004	10	..........a	-327.74
	1204	1.50625	-7.04849E-001	-3.81205E-004	0.00000E+000	-7.04000E-001	-6.79272E-004	10	..........a	-327.74
	1211	1.515	-7.11916E-001	-3.74654E-004	0.00000E+000	-7.11000E-001	-6.29272E-004	10	..........a	-327.74
	1218	1.52375	-7.18856E-001	-3.67235E-004	0.00000E+000	-7.18000E-001	-6.29272E-004	10	..........a	-327.74
	1225	1.5325	-7.25889E-001	-3.59281E-004	0.00000E+000	-7.25000E-001	-6.41772E-004	10	..........a	-327.74
	1232	1.54125	-7.32822E-001	-3.51795E-004	0.00000E+000	-7.32000E-001	-6.66772E-004	10	..........a	-327.74
	1239	1.55	-7.39836E-001	-3.46582E-004	0.00000E+000	-7.39000E-001	-6.29272E-004	10	..........a	-327.74
	1246	1.55875	-7.46869E-001	-3.38360E-004	0.00000E+000	-7.46000E-001	-6.29272E-004	10	..........a	-327.74
	1253	1.5675	-7.53836E-001	-3.33682E-004	0.00000E+000	-7.53000E-001	-6.29272E-004	10	..........a	-327.74
	1260	1.57625	-7.60876E-001	-3.28201E-004	0.00000E+000	-7.60000E-001	-6.29272E-004	10	..........a	-327.74
	1267	1.585	-7.67889E-001	-3.22319E-004	0.00000E+000	-7.67000E-001	-6.16772E-004	10	..........a	-327.74
	1274	1.59375	-7.74849E-001	-3.18041E-004	0.00000E+000	-7.74000E-001	-6.29272E-004	10	..........a	-327.74
	1281	1.6025	-7.81849E-001	-3.12828E-004	0.00000E+000	-7.81000E-001	-6.29272E-004	10	..........a	-327.74
	1288	1.61125	-7.88856E-001	-3.06879E-004	0.00000E+000	-7.88000E-001	-6.29272E-004	10	..........a	-327.74
	1295	1.62	-7.95789E-001	-3.03069E-004	0.00000E+000	-7.95000E-001	-6.29272E-004	10	..........a	-327.74
	1302	1.62875	-8.02882E-001	-3.00128E-004	0.00000E+000	-8.02000E-001	-6.54272E-004	10	..........a	-327.74
	1309	1.6375	-8.09902E-001	-2.96920E-004	0.00000E+000	-8.09000E-001	-6.54272E-004	10	..........a	-327.74
	1316	1.64625	-8.16816E-001	-2.91439E-004	0.00000E+000	-8.16000E-001	-6.29272E-004	10	..........a	-327.74
	1323	1.655	-8.23876E-001	-2.87897E-004	0.00000E+000	-8.23000E-001	-6.29272E-004	10	..........a	-327.74
	1330	1.66375	-8.30796E-001	-2.84421E-004	0.00000E+000	-8.30000E-001	-6.41772E-004	10	..........a	-327.74
	1337	1.6725	-8.37856E-001	-2.82148E-004	0.00000E+000	-8.37000E-001	-6.29272E-004	10	..........a	-327.74
	1344	1.68125	-8.44822E-001	-2.78539E-004	0.00000E+000	-8.44000E-001	-6.29272E-004	10	..........a	-327.74
	1351	1.69	-8.51856E-001	-2.75197E-004	0.00000E+000	-8.51000E-001	-6.29272E-004	10	..........a	-327.74
	1358	1.69875	-8.58789E-001	-2.71855E-004	0.00000E+000	-8.58000E-001	-6.29272E-004	10	..........a	-327.74
	1365	1.7075	-8.65769E-001	-2.69382E-004	0.00000E+000	-8.65000E-001	-6.29272E-004	10	..........a	-327.74
	1372	1.71625	-8.72682E-001	-2.66842E-004	0.00000E+000	-8.72000E-001	-6.54272E-004	10	..........a	-327.74
	1379	1.725	-8.79882E-001	-2.63567E-004	0.00000E+000	-8.79000E-001	-6.29272E-004	10	..........a	-327.74
	1386	1.73375	-8.86789E-001	-2.61762E-004	0.00000E+000	-8.86000E-001	-6.66772E-004	10	..........a	-327.74
	1393	1.7425	-8.93716E-001	-2.60024E-004	0.00000E+000	-8.93000E-001	-6.29272E-004	10	..........a	-327.74
	1400	1.75125	-9.00776E-001	-2.55011E-004	0.00000E+000	-9.00000E-001	-6.29272E-004	10	..........a	-327.74
	1407	1.76	-9.07769E-001	-2.54009E-004	0.00000E+000	-9.07000E-001	-6.29272E-004	10	..........a	-327.74
	1414	1.76875	-9.14829E-001	-2.52271E-004	0.00000E+000	-9.14000E-001	-6.29272E-004	10	..........a	-327.74
	1421	1.7775	-9.21809E-001	-2.49597E-004	0.00000E+000	-9.21000E-001	-6.29272E-004	10	..........a	-327.74
	1428	1.78625	-9.28736E-001	-2.48394E-004	0.00000E+000	-9.28000E-001	-6.29272E-004	10	..........a	-327.74
	1435	1.795	-9.35769E-001	-2.43849E-004	0.00000E+000	-9.35000E-001	-6.29272E-004	10	..........a	-327.74
	1442	1.80375	-9.42762E-001	-2.42512E-004	0.00000E+000	-9.42000E-001	-6.29272E-004	10	..........a	-327.74
	1449	1.8125	-9.49689E-001	-2.40440E-004	0.00000E+000	-9.49000E-001	-6.54272E-004	10	..........a	-327.74
	1456	1.82125	-9.56796E-001	-2.38970E-004	0.00000E+000	-9.56000E-001	-6.29272E-004	10	..........a	-327.74
	1463	1.83	-9.63762E-001	-2.38903E-004	0.00000E+000	-9.63000E-001	-6.29272E-004	10	..........a	-327.74
	1470	1.83875	-9.70756E-001	-2.35160E-004	0.00000E+000	-9.70000E-001	-6.29272E-004	10	..........a	-327.74
	1477	1.8475	-9.77742E-001	-2.35160E-004	0.00000E+000	-9.77000E-001	-6.29272E-004	10	..........a	-327.74
	1484	1.85625	-9.84682E-001	-2.32085E-004	0.00000E+000	-9.84000E-001	-6.29272E-004	10	..........a	-327.74
	1491	1.865	-9.91816E-001	-2.31952E-004	0.00000E+000	-9.91000E-001	-6.29272E-004	10	..........a	-327.74
	1498	1.87375	-9.98742E-001	-2.29345E-004	0.00000E+000	-9.98000E-001	-6.66772E-004	10	..........a	-327.74
	1505	1.8825	-9.95742E-001	-2.18584E-004	0.00000E+000	-9.95000E-001	-6.29272E-004	10	..........a	-327.74
	1512	1.89125	-9.88789E-001	-2.11566E-004	0.00000E+000	-9.88000E-001	-6.29272E-004	10	..........a	-327.74
	1519	1.9	-9.81602E-001	-2.07555E-004	0.00000E+000	-9.81000E-001	-6.66772E-004	10	..........a	-327.74
	1526	1.90875	-9.74716E-001	-2.03612E-004	0.00000E+000	-9.74000E-001	-6.29272E-004	10	..........a	-327.74
	1533	1.9175	-9.67756E-001	-2.01206E-004	0.00000E+000	-9.67000E-001	-6.41772E-004	10	..........a	-327.74
	1540	1.92625	-9.60702E-001	-1.97596E-004	0.00000E+000	-9.60000E-001	-6.29272E-004	10	..........a	-327.74
	1547	1.935	-9.53729E-001	-1.94722E-004	0.00000E+000	-9.53000E-001	-6.29272E-004	10	..........a	-327.74
	1554	1.94375	-9.46796E-001	-1.91581E-004	0.00000E+000	-9.46000E-001	-6.29272E-004	10	..........a	-327.74
	1561	1.9525	-9.39816E-001	-1.90645E-004	0.00000E+000	-9.39000E-001	-6.29272E-004	10	..........a	-327.74
	1568	1.96125	-9.32809E-001	-1.88105E-004	0.00000E+000	-9.32000E-001	-6.29272E-004	10	..........a	-327.74
	1575	1.97	-9.25696E-001	-1.87303E-004	0.00000E+000	-9.25000E-001	-6.66772E-004	10	..........a	-327.74
	1582	1.97875	-9.18742E-001	-1.86233E-004	0.00000E+000	-9.18000E-001	-6.66772E-004	10	..........a	-327.74
	1589	1.9875	-9.11789E-001	-1.84496E-004	0.00000E+000	-9.11000E-001	-6.29272E-004	10	..........a	-327.74
	1596	1.99625	-9.04729E-001	-1.83159E-004	0.00000E+000	-9.04000E-001	-6.66772E-004	10	..........a	-327.74
	1603	2.005	-8.97749E-001	-1.81154E-004	0.00000E+000	-8.97000E-001	-6.29272E-004	10	..........a	-327.74
	1610	2.01375	-8.90789E-001	-1.79416E-004	0.00000E+000	-8.90000E-001	-6.66772E-004	10	..........a	-327.74
	1617	2.0225	-8.83762E-001	-1.77611E-004	0.00000E+000	-8.83000E-001	-6.16772E-004	10	..........a	-327.74
	1624	2.03125	-8.76782E-001	-1.74871E-004	0.00000E+000	-8.76000E-001	-6.41772E-004	10	..........a	-327.74
	1631	2.04	-8.69736E-001	-1.75138E-004	0.00000E+000	-8.69000E-001	-6.29272E-004	10	..........a	-327.74
	1638	2.04875	-8.62782E-001	-1.73133E-004	0.00000E+000	-8.62000E-001	-6.54272E-004	10	..........a	-327.74
	1645	2.0575	-8.55896E-001	-1.72331E-004	0.00000E+000	-8.55000E-001	-6.79272E-004	10	..........a	-327.74
	1652	2.06625	-8.48656E-001	-1.70125E-004	0.00000E+000	-8.48000E-001	-6.29272E-004	10	..........a	-327.74
	1659	2.075	-8.41836E-001	-1.69791E-004	0.00000E+000	-8.41000E-001	-6.66772E-004	10	..........a	-327.74
	1666	2.08375	-8.34769E-001	-1.69724E-004	0.00000E+000	-8.34000E-001	-6.54272E-004	10	..........a	-327.74
	1673	2.0925	-8.27769E-001	-1.68655E-004	0.00000E+000	-8.27000E-001	-6.41772E-004	10	..........a	-327.74
	1680	2.10125	-8.20756E-001	-1.67051E-004	0.00000E+000	-8.20000E-001	-6.66772E-004	10	..........a	-327.74
	1687	2.11	-8.13882E-001	-1.65313E-004	0.00000E+000	-8.13000E-001	-6.66772E-004	10	..........a	-327.74
	1694	2.11875	-8.06876E-001	-1.63040E-004	0.00000E+000	-8.06000E-001	-6.41772E-004	10	..........a	-327.74
	1701	2.1275	-7.99922E-001	-1.62305E-004	0.00000E+000	-7.99000E-001	-6.41772E-004	10	..........a	-327.74
	1708	2.13625	-7.92822E-001	-1.60300E-004	0.00000E+000	-7.92000E-001	-6.29272E-004	10	..........a	-327.74
	1715	2.145	-7.85856E-001	-1.60834E-004	0.00000E+000	-7.85000E-001	-6.29272E-004	10	..........a	-327.74
	1722	2.15375	-7.78856E-001	-1.58361E-004	0.00000E+000	-7.78000E-001	-6.29272E-004	10	..........a	-327.74
	1729	2.1625	-7.71809E-001	-1.58161E-004	0.00000E+000	-7.71000E-001	-6.29272E-004	10	..........a	-327.74
	1736	2.17125	-7.64922E-001	-1.57091E-004	0.00000E+000	-7.64000E-001	-6.41772E-004	10	..........a	-327.74
	1743	2.18	-7.57922E-001	-1.55955E-004	0.00000E+000	-7.57000E-001	-6.29272E-004	10	..........a	-327.74
	1750	2.18875	-7.50909E-001	-1.55420E-004	0.00000E+000	-7.50000E-001	-6.54272E-004	10	..........a	-327.74
	1757	2.1975	-7.43902E-001	-1.54150E-004	0.00000E+000	-7.43000E-001	-6.29272E-004	10	..........a	-327.74
	1764	2.20625	-7.36849E-001	-1.53415E-004	0.00000E+000	-7.36000E-001	-6.79272E-004	10	..........a	-327.74
	1771	2.215	-7.29909E-001	-1.51410E-004	0.00000E+000	-7.29000E-001	-6.29272E-004	10	..........a	-327.74
	1778	2.22375	-7.22909E-001	-1.50541E-004	0.00000E+000	-7.22000E-001	-6.29272E-004	10	..........a	-327.74
	1785	2.2325	-7.15842E-001	-1.51076E-004	0.00000E+000	-7.15000E-001	-6.29272E-004	10	..........a	-327.74
	1792	2.24125	-7.08942E-001	-1.48736E-004	0.00000E+000	-7.08000E-001	-6.29272E-004	10	..........a	-327.74
	1799	2.25	-7.01742E-001	-1.47199E-004	0.00000E+000	-7.01000E-001	-7.04272E-004	10	..........a	-327.74
	1806	2.25875	-6.94929E-001	-1.45328E-004	0.00000E+000	-6.94000E-001	-6.66772E-004	10	..........a	-327.74
	1813	2.2675	-6.87936E-001	-1.43857E-004	0.00000E+000	-6.87000E-001	-6.29272E-004	10	..........a	-327.74
	1820	2.27625	-6.80876E-001	-1.41651E-004	0.00000E+000	-6.80000E-001	-6.29272E-004	10	..........a	-327.74
	1827	2.285	-6.73956E-001	-1.39847E-004	0.00000E+000	-6.73000E-001	-6.29272E-004	10	..........a	-327.74
	1834	2.29375	-6.66896E-001	-1.39513E-004	0.00000E+000	-6.66000E-001	-6.29272E-004	10	..........a	-327.74
	1841	2.3025	-6.59876E-001	-1.37441E-004	0.00000E+000	-6.59000E-001	-6.29272E-004	10	..........a	-327.74
	1848	2.31125	-6.52916E-001	-1.35101E-004	0.00000E+000	-6.52000E-001	-6.29272E-004	10	..........a	-327.74
	1855	2.32	-6.45929E-001	-1.32962E-004	0.00000E+000	-6.45000E-001	-6.29272E-004	10	..........a	-327.74
	1862	2.32875	-6.38969E-001	-1.29687E-004	0.00000E+000	-6.38000E-001	-7.04272E-004	10	..........a	-327.74
	1869	2.3375	-6.31922E-001	-1.24741E-004	0.00000E+000	-6.31000E-001	-6.29272E-004	10	..........a	-327.74
	1876	2.34625	-6.24816E-001	-1.20396E-004	0.00000E+000	-6.24000E-001	-6.54272E-004	10	..........a	-327.74
	1883	2.355	-6.17922E-001	-1.15383E-004	0.00000E+000	-6.17000E-001	-6.54272E-004	10	..........a	-327.74
	1890	2.36375	-6.10942E-001	-1.10504E-004	0.00000E+000	-6.10000E-001	-6.29272E-004	10	..........a	-327.74
	1897	2.3725	-6.03949E-001	-1.02283E-004	0.00000E+000	-6.03000E-001	-6.29272E-004	10	..........a	-327.74
	1904	2.38125	-5.96942E-001	-9.45295E-005	0.00000E+000	-5.96000E-001	-6.29272E-004	10	..........a	-327.74
	1911	2.39	-5.89936E-001	-8.12953E-005	0.00000E+000	-5.89000E-001	-6.54272E-004	10	..........a	-327.74
	1918	2.39875	-5.83002E-001	-6.79942E-005	0.00000E+000	-5.82000E-001	-6.54272E-004	10	..........a	-327.74
	1925	2.4075	-5.75969E-001	-4.94797E-005	0.00000E+000	-5.75000E-001	-6.41772E-004	10	..........a	-327.74
	1932	2.41625	-5.68849E-001	-2.48827E-005	0.00000E+000	-5.68000E-001	-6.29272E-004	10	..........a	-327.74
	1939	2.425	-5.61962E-001	6.59877E-006	0.00000E+000	-5.61000E-001	-6.29272E-004	10	..........a	-327.74
	1946	2.43375	-5.55002E-001	4.76383E-005	0.00000E+000	-5.54000E-001	-6.29272E-004	10	..........a	-327.74
	1953	2.4425	-5.47896E-001	9.70327E-005	0.00000E+000	-5.47000E-001	-6.29272E-004	10	..........a	-327.74
	1960	2.45125	-5.41016E-001	1.60062E-004	0.00000E+000	-5.40000E-001	-6.29272E-004	10	..........a	-327.74
	1967	2.46	-5.33969E-001	2.34188E-004	0.00000E+000	-5.33000E-001	-6.29272E-004	10	..........a	-327.74
	1974	2.46875	-5.26989E-001	3.13326E-004	0.00000E+000	-5.26000E-001	-6.29272E-004	10	..........a	-327.74
	1981	2.4775	-5.19989E-001	3.95605E-004	0.00000E+000	-5.19000E-001	-6.66772E-004	10	..........a	-327.74
	1988	2.48625	-5.12949E-001	4.66723E-004	0.00000E+000	-5.12000E-001	-6.66772E-004	10	..........a	-327.74
	1995	2.495	-5.05996E-001	5.21130E-004	0.00000E+000	-5.05000E-001	-6.54272E-004	10	..........a	-327.74
	2002	2.50375	-4.98969E-001	5.55887E-004	0.00000E+000	-4.98000E-001	-6.29272E-004	10	..........a	-327.74
	2009	2.5125	-4.91862E-001	5.69856E-004	0.00000E+000	-4.91000E-001	-7.04272E-004	10	..........a	-327.74
	2016	2.52125	-4.84996E-001	5.65712E-004	0.00000E+000	-4.84000E-001	-6.66772E-004	10	..........a	-327.74
	2023	2.53	-4.78009E-001	5.48735E-004	0.00000E+000	-4.77000E-001	-6.29272E-004	10	..........a	-327.74
	2030	2.53875	-4.70962E-001	5.23403E-004	0.00000E+000	-4.70000E-001	-6.29272E-004	10	..........a	-327.74
	2037	2.5475	-4.64016E-001	4.96934E-004	0.00000E+000	-4.63000E-001	-6.79272E-004	10	..........a	-327.74
	2044	2.55625	-4.57002E-001	4.67124E-004	0.00000E+000	-4.56000E-001	-6.29272E-004	10	..........a	-327.74
	2051	2.565	-4.49996E-001	4.37380E-004	0.00000E+000	-4.49000E-001	-6.79272E-004	10	..........a	-327.74
	2058	2.57375	-4.43076E-001	4.10444E-004	0.00000E+000	-4.42000E-001	-6.29272E-004	10	..........a	-327.74
	2065	2.5825	-4.35856E-001	3.85446E-004	0.00000E+000	-4.35000E-001	-6.29272E-004	10	..........a	-327.74
	2072	2.59125	-4.29062E-001	3.61049E-004	0.00000E+000	-4.28000E-001	-6.54272E-004	10	..........a	-327.74
	2079	2.6	-4.21982E-001	3.40997E-004	0.00000E+000	-4.21000E-001	-6.29272E-004	10	..........a	-327.74
	2086	2.60875	-4.15002E-001	3.23285E-004	0.00000E+000	-4.14000E-001	-6.29272E-004	10	..........a	-327.74
	2093	2.6175	-4.08056E-001	3.06575E-004	0.00000E+000	-4.07000E-001	-6.29272E-004	10	..........a	-327.74
	2100	2.62625	-4.01022E-001	2.91870E-004	0.00000E+000	-4.00000E-001	-6.66772E-004	10	..........a	-327.74
	2107	2.635	-3.94036E-001	2.77901E-004	0.00000E+000	-3.93000E-001	-6.29272E-004	10	..........a	-327.74
	2114	2.64375	-3.87102E-001	2.65134E-004	0.00000E+000	-3.86000E-001	-6.79272E-004	10	..........a	-327.74
	2121	2.6525	-3.80029E-001	2.53838E-004	0.00000E+000	-3.79000E-001	-6.29272E-004	10	..........a	-327.74
	2128	2.66125	-3.73096E-001	2.44481E-004	0.00000E+000	-3.72000E-001	-6.29272E-004	10	..........a	-327.74
	2135	2.67	-3.66049E-001	2.34455E-004	0.00000E+000	-3.65000E-001	-6.54272E-004	10	..........a	-327.74
	2142	2.67875	-3.58976E-001	2.28038E-004	0.00000E+000	-3.58000E-001	-6.29272E-004	10	..........a	-327.74
	2149	2.6875	-3.52042E-001	2.18815E-004	0.00000E+000	-3.51000E-001	-6.66772E-004	10	..........a	-327.74
	2156	2.69625	-3.44942E-001	2.12999E-004	0.00000E+000	-3.44000E-001	-6.54272E-004	10	..........a	-327.74
	2163	2.705	-3.38036E-001	2.06717E-004	0.00000E+000	-3.37000E-001	-6.29272E-004	10	..........a	-327.74
	2170	2.71375	-3.31096E-001	1.98763E-004	0.00000E+000	-3.30000E-001	-6.29272E-004	10	..........a	-327.74
	2177	2.7225	-3.24022E-001	1.94284E-004	0.00000E+000	-3.23000E-001	-6.29272E-004	10	..........a	-327.74
	2184	2.73125	-3.17096E-001	1.86932E-004	0.00000E+000	-3.16000E-001	-7.16772E-004	10	..........a	-327.74
	2191	2.74	-3.10029E-001	1.82721E-004	0.00000E+000	-3.09000E-001	-7.04272E-004	10	..........a	-327.74
	2198	2.74875	-3.03036E-001	1.77842E-004	0.00000E+000	-3.02000E-001	-6.54272E-004	10	..........a	-327.74
	2205	2.7575	-2.96036E-001	1.74567E-004	0.00000E+000	-2.95000E-001	-6.66772E-004	10	..........a	-327.74
	2212	2.76625	-2.89022E-001	1.69220E-004	0.00000E+000	-2.88000E-001	-6.29272E-004	10	..........a	-327.74
	2219	2.775	-2.82069E-001	1.67348E-004	0.00000E+000	-2.81000E-001	-6.79272E-004	10	..........a	-327.74
	2226	2.78375	-2.75069E-001	1.62135E-004	0.00000E+000	-2.74000E-001	-6.29272E-004	10	..........a	-327.74
	2233	2.7925	-2.67996E-001	1.58592E-004	0.00000E+000	-2.67000E-001	-6.54272E-004	10	..........a	-327.74
	2240	2.80125	-2.61062E-001	1.55517E-004	0.00000E+000	-2.60000E-001	-6.29272E-004	10	..........a	-327.74
	2247	2.81	-2.54149E-001	1.52109E-004	0.00000E+000	-2.53000E-001	-6.29272E-004	10	..........a	-327.74
	2254	2.81875	-2.47082E-001	1.48232E-004	0.00000E+000	-2.46000E-001	-6.29272E-004	10	..........a	-327.74
	2261	2.8275	-2.40076E-001	1.45759E-004	0.00000E+000	-2.39000E-001	-6.66772E-004	10	..........a	-327.74
	2268	2.83625	-2.33089E-001	1.42952E-004	0.00000E+000	-2.32000E-001	-6.91772E-004	10	..........a	-327.74
	2275	2.845	-2.26069E-001	1.41281E-004	0.00000E+000	-2.25000E-001	-6.66772E-004	10	..........a	-327.74
	2282	2.85375	-2.19089E-001	1.38741E-004	0.00000E+000	-2.18000E-001	-6.29272E-004	10	..........a	-327.74
	2289	2.8625	-2.12022E-001	1.36000E-004	0.00000E+000	-2.11000E-001	-6.29272E-004	10	..........a	-327.74
	2296	2.87125	-2.05036E-001	1.33059E-004	0.00000E+000	-2.04000E-001	-6.54272E-004	10	..........a	-327.74
	2303	2.88	-1.98109E-001	1.31522E-004	0.00000E+000	-1.97000E-001	-6.54272E-004	10	..........a	-327.74
	2310	2.88875	-1.91042E-001	1.29116E-004	0.00000E+000	-1.90000E-001	-6.54272E-004	10	..........a	-327.74
	2317	2.8975	-1.84096E-001	1.24236E-004	0.00000E+000	-1.83000E-001	-6.29272E-004	10	..........a	-327.74
	2324	2.90625	-1.77149E-001	1.22833E-004	0.00000E+000	-1.76000E-001	-6.29272E-004	10	..........a	-327.74
	2331	2.915	-1.70122E-001	1.20961E-004	0.00000E+000	-1.69000E-001	-6.66772E-004	10	..........a	-327.74
	2338	2.92375	-1.63116E-001	1.19290E-004	0.00000E+000	-1.62000E-001	-6.29272E-004	10	..........a	-327.74
	2345	2.9325	-1.56016E-001	1.16617E-004	0.00000E+000	-1.55000E-001	-6.54272E-004	10	..........a	-327.74
	2352	2.94125	-1.49182E-001	1.15079E-004	0.00000E+000	-1.48000E-001	-6.29272E-004	10	..........a	-327.74
	2359	2.95	-1.42122E-001	1.15280E-004	0.00000E+000	-1.41000E-001	-6.29272E-004	10	..........a	-327.74
	2366	2.95875	-1.35096E-001	1.12673E-004	0.00000E+000	-1.34000E-001	-6.29272E-004	10	..........a	-327.74
	2373	2.9675	-1.28109E-001	1.10401E-004	0.00000E+000	-1.27000E-001	-6.29272E-004	10	..........a	-327.74
	2380	2.97625	-1.21156E-001	1.07727E-004	0.00000E+000	-1.20000E-001	-6.29272E-004	10	..........a	-327.74
	2387	2.985	-1.14082E-001	1.06724E-004	0.00000E+000	-1.13000E-001	-6.29272E-004	10	..........a	-327.74
	2394	2.99375	-1.07136E-001	1.04786E-004	0.00000E+000	-1.06000E-001	-6.29272E-004	10	..........a	-327.74
	2401	3.0025	-1.00176E-001	1.01645E-004	0.00000E+000	-9.90000E-002	-6.29272E-004	10	..........a	-327.74
	2408	3.01125	-9.31557E-002	1.02179E-004	0.00000E+000	-9.20000E-002	-6.54272E-004	10	..........a	-327.74
	2415	3.02	-8.61957E-002	1.01377E-004	0.00000E+000	-8.50000E-002	-6.54272E-004	10	..........a	-327.74
	2422	3.02875	-7.90757E-002	1.00375E-004	0.00000E+000	-7.80000E-002	-6.29272E-004	10	..........a	-327.74
	2429	3.0375	-7.21423E-002	9.87037E-005	0.00000E+000	-7.10000E-002	-6.41772E-004	10	..........a	-327.74
	2436	3.04625	-6.51490E-002	9.75006E-005	0.00000E+000	-6.40000E-002	-6.29272E-004	10	..........a	-327.74
	2443	3.055	-5.81557E-002	9.55623E-005	0.00000E+000	-5.70000E-002	-6.29272E-004	10	..........a	-327.74
	2450	3.06375	-5.11890E-002	9.54954E-005	0.00000E+000	-5.00000E-002	-6.54272E-004	10	..........a	-327.74
	2457	3.0725	-4.41823E-002	9.32229E-005	0.00000E+000	-4.30000E-002	-6.66772E-004	10	..........a	-327.74
	2464	3.08125	-3.71757E-002	9.16187E-005	0.00000E+000	-3.60000E-002	-6.79272E-004	10	..........a	-327.74
	2471	3.09	-3.01890E-002	9.19529E-005	0.00000E+000	-2.90000E-002	-6.79272E-004	10	..........a	-327.74
	2478	3.09875	-2.31690E-002	8.94799E-005	0.00000E+000	-2.20000E-002	-6.54272E-004	10	..........a	-327.74
	2485	3.1075	-1.63023E-002	8.72742E-005	0.00000E+000	-1.50000E-002	-6.29272E-004	10	..........a	-327.74
	2492	3.11625	-9.15566E-003	8.72073E-005	0.00000E+000	-8.00000E-003	-6.79272E-004	10	..........a	-327.74
	2499	3.125	-2.14233E-003	8.68063E-005	0.00000E+000	-1.00000E-003	-6.54272E-004	10	..........a	-327.74
	2506	3.13375	4.81100E-003	8.60042E-005	0.00000E+000	5.99998E-003	-6.66772E-004	10	..........a	-327.74
	2513	3.1425	1.18310E-002	8.56700E-005	0.00000E+000	1.30000E-002	-6.29272E-004	10	..........a	-327.74
	2520	3.15125	1.88710E-002	8.40659E-005	0.00000E+000	2.00000E-002	-6.29272E-004	10	..........a	-327.74
	2527	3.16	2.58177E-002	8.37317E-005	0.00000E+000	2.70000E-002	-6.29272E-004	10	..........a	-327.74
	2534	3.16875	3.28577E-002	8.33306E-005	0.00000E+000	3.40000E-002	-6.79272E-004	10	..........a	-327.74
	2541	3.1775	3.98710E-002	8.23949E-005	0.00000E+000	4.10000E-002	-6.54272E-004	10	..........a	-327.74
	2548	3.18625	4.69043E-002	8.11918E-005	0.00000E+000	4.80000E-002	-6.41772E-004	10	..........a	-327.74
	2555	3.195	5.37910E-002	8.01892E-005	0.00000E+000	5.50000E-002	-6.29272E-004	10	..........a	-327.74
	2562	3.20375	6.08577E-002	8.11918E-005	0.00000E+000	6.20000E-002	-6.29272E-004	10	..........a	-327.74
	2569	3.2125	6.79377E-002	7.94539E-005	0.00000E+000	6.90000E-002	-6.29272E-004	10	..........a	-327.74
	2576	3.22125	7.48443E-002	7.78498E-005	0.00000E+000	7.60000E-002	-6.79272E-004	10	..........a	-327.74
	2583	3.23	8.17843E-002	7.67804E-005	0.00000E+000	8.30000E-002	-6.29272E-004	10	..........a	-327.74
	2590	3.23875	8.88777E-002	7.53767E-005	0.00000E+000	9.00000E-002	-6.29272E-004	10	..........a	-327.74
	2597	3.2475	9.57843E-002	7.53099E-005	0.00000E+000	9.70000E-002	-6.54272E-004	10	..........a	-327.74
	2604	3.25625	1.02811E-001	7.36389E-005	0.00000E+000	1.04000E-001	-6.54272E-004	10	..........a	-327.74
	2611	3.265	1.09858E-001	7.30373E-005	0.00000E+000	1.11000E-001	-6.54272E-004	10	..........a	-327.74
	2618	3.27375	1.16738E-001	7.20347E-005	0.00000E+000	1.18000E-001	-6.29272E-004	10	..........a	-327.74
	2625	3.2825	1.23764E-001	7.11658E-005	0.00000E+000	1.25000E-001	-6.29272E-004	10	..........a	-327.74
	2632	3.29125	1.30804E-001	7.09653E-005	0.00000E+000	1.32000E-001	-6.29272E-004	10	..........a	-327.74
	2639	3.3	1.37744E-001	6.96285E-005	0.00000E+000	1.39000E-001	-6.54272E-004	10	..........a	-327.74
	2646	3.30875	1.44898E-001	6.96285E-005	0.00000E+000	1.46000E-001	-6.29272E-004	10	..........a	-327.74
	2653	3.3175	1.51784E-001	6.85591E-005	0.00000E+000	1.53000E-001	-6.29272E-004	10	..........a	-327.74
	2660	3.32625	1.58771E-001	6.77570E-005	0.00000E+000	1.60000E-001	-6.54272E-004	10	..........a	-327.74
	2667	3.335	1.65858E-001	6.75565E-005	0.00000E+000	1.67000E-001	-6.29272E-004	10	..........a	-327.74
	2674	3.34375	1.72751E-001	6.62865E-005	0.00000E+000	1.74000E-001	-6.29272E-004	10	..........a	-327.74
	2681	3.3525	1.79838E-001	6.48829E-005	0.00000E+000	1.81000E-001	-6.66772E-004	10	..........a	-327.74
	2688	3.36125	1.86724E-001	6.48829E-005	0.00000E+000	1.88000E-001	-6.04272E-004	10	..........a	-327.74
	2695	3.37	1.93751E-001	6.41477E-005	0.00000E+000	1.95000E-001	-6.79272E-004	10	..........a	-327.74
	2702	3.37875	2.00838E-001	6.30782E-005	0.00000E+000	2.02000E-001	-6.91772E-004	10	..........a	-327.74
	2709	3.3875	2.07718E-001	6.26772E-005	0.00000E+000	2.09000E-001	-6.29272E-004	10	..........a	-327.74
	2716	3.39625	2.14718E-001	6.19420E-005	0.00000E+000	2.16000E-001	-6.66772E-004	10	..........a	-327.74
	2723	3.405	2.21791E-001	6.06052E-005	0.00000E+000	2.23000E-001	-6.54272E-004	10	..........a	-327.74
	2730	3.41375	2.28711E-001	6.06720E-005	0.00000E+000	2.30000E-001	-6.66772E-004	10	..........a	-327.74
	2737	3.4225	2.35718E-001	5.73969E-005	0.00000E+000	2.37000E-001	-6.41772E-004	10	..........a	-327.74
	2744	3.43125	2.42738E-001	5.77311E-005	0.00000E+000	2.44000E-001	-6.66772E-004	10	..........a	-327.74
	2751	3.44	2.49724E-001	5.79984E-005	0.00000E+000	2.51000E-001	-6.29272E-004	10	..........a	-327.74
	2758	3.44875	2.56851E-001	5.65279E-005	0.00000E+000	2.58000E-001	-6.29272E-004	10	..........a	-327.74
	2765	3.4575	2.63758E-001	5.66616E-005	0.00000E+000	2.65000E-001	-6.41772E-004	10	..........a	-327.74
	2772	3.46625	2.70731E-001	5.61269E-005	0.00000E+000	2.72000E-001	-6.66772E-004	10	..........a	-327.74
	2779	3.475	2.77771E-001	5.67953E-005	0.00000E+000	2.79000E-001	-6.29272E-004	10	..........a	-327.74
	2786	3.48375	2.84691E-001	5.47901E-005	0.00000E+000	2.86000E-001	-6.66772E-004	10	..........a	-327.74
	2793	3.4925	2.91671E-001	5.46564E-005	0.00000E+000	2.93000E-001	-7.16772E-004	10	..........a	-327.74
	2800	3.50125	2.98584E-001	5.51243E-005	0.00000E+000	3.00000E-001	-6.29272E-004	10	..........a	-327.74
	2807	3.51	3.05691E-001	5.44559E-005	0.00000E+000	3.07000E-001	-6.66772E-004	10	..........a	-327.74
	2814	3.51875	3.12724E-001	5.39880E-005	0.00000E+000	3.14000E-001	-6.66772E-004	10	..........a	-327.74
	2821	3.5275	3.19664E-001	5.38544E-005	0.00000E+000	3.21000E-001	-6.29272E-004	10	..........a	-327.74
	2828	3.53625	3.26744E-001	5.39880E-005	0.00000E+000	3.28000E-001	-7.16772E-004	10	..........a	-327.74
	2835	3.545	3.33784E-001	5.33197E-005	0.00000E+000	3.35000E-001	-6.54272E-004	10	..........a	-327.74
	2842	3.55375	3.40684E-001	5.25176E-005	0.00000E+000	3.42000E-001	-6.29272E-004	10	..........a	-327.74
	2849	3.5625	3.47744E-001	5.25176E-005	0.00000E+000	3.49000E-001	-6.54272E-004	10	..........a	-327.74
	2856	3.57125	3.54678E-001	5.29186E-005	0.00000E+000	3.56000E-001	-6.29272E-004	10	..........a	-327.74
	2863	3.58	3.61644E-001	5.25176E-005	0.00000E+000	3.63000E-001	-6.79272E-004	10	..........a	-327.74
	2870	3.58875	3.68704E-001	5.19829E-005	0.00000E+000	3.70000E-001	-6.66772E-004	10	..........a	-327.74
	2877	3.5975	3.75664E-001	5.17155E-005	0.00000E+000	3.77000E-001	-6.29272E-004	10	..........a	-327.74
	2884	3.60625	3.82658E-001	5.16487E-005	0.00000E+000	3.84000E-001	-6.66772E-004	10	..........a	-327.74
	2891	3.615	3.89698E-001	5.12476E-005	0.00000E+000	3.91000E-001	-6.66772E-004	10	..........a	-327.74
	2898	3.62375	3.96658E-001	5.08466E-005	0.00000E+000	3.98000E-001	-6.29272E-004	10	..........a	-327.74
	2905	3.6325	4.03658E-001	5.06461E-005	0.00000E+000	4.05000E-001	-6.54272E-004	10	..........a	-327.74
	2912	3.64125	4.10698E-001	4.95766E-005	0.00000E+000	4.12000E-001	-6.54272E-004	10	..........a	-327.74
	2919	3.65	4.17638E-001	5.01782E-005	0.00000E+000	4.19000E-001	-6.29272E-004	10	..........a	-327.74
	2926	3.65875	4.24904E-001	4.93093E-005	0.00000E+000	4.26000E-001	-6.29272E-004	10	..........a	-327.74
	2933	3.6675	4.31658E-001	4.91088E-005	0.00000E+000	4.33000E-001	-6.79272E-004	10	..........a	-327.74
	2940	3.67625	4.38658E-001	4.78388E-005	0.00000E+000	4.40000E-001	-6.29272E-004	10	..........a	-327.74
	2947	3.685	4.45724E-001	4.79056E-005	0.00000E+000	4.47000E-001	-6.29272E-004	10	..........a	-327.74
	2954	3.69375	4.52704E-001	4.78388E-005	0.00000E+000	4.54000E-001	-6.54272E-004	10	..........a	-327.74
	2961	3.7025	4.59751E-001	4.77051E-005	0.00000E+000	4.61000E-001	-6.29272E-004	10	..........a	-327.74
	2968	3.71125	4.66658E-001	4.81730E-005	0.00000E+000	4.68000E-001	-7.16772E-004	10	..........a	-327.74
	2975	3.72	4.73604E-001	4.69031E-005	0.00000E+000	4.75000E-001	-6.29272E-004	10	..........a	-327.74
	2982	3.72875	4.80724E-001	4.73041E-005	0.00000E+000	4.82000E-001	-6.54272E-004	10	..........a	-327.74
	2989	3.7375	4.87678E-001	4.73041E-005	0.00000E+000	4.89000E-001	-6.29272E-004	10	..........a	-327.74
	2996	3.74625	4.94618E-001	4.69031E-005	0.00000E+000	4.96000E-001	-7.16772E-004	10	..........a	-327.74
	3000	3.75125	4.98578E-001	4.61010E-005	0.00000E+000	5.00000E-001	-6.29272E-004	10	..........a	-327.74
CURVE2	TABLE
	Pt	T	Vf	Im	Vu	Sig	Ach	IERange	Over	Temp
	#	s	V vs. Ref.	A	V	V	V	#	bits	deg C
	3001	3.7525	4.98658E-001	4.43631E-005	0.00000E+000	5.00000E-001	-6.29272E-004	10	..........a	-327.74