File: data/02-SI/Figures_S9_S11_RDE/18btmapaq-rde/1mkcl-18btmapaq-nitrogen-5000mvpers.DTA
EXPLAIN
TAG	CV
TITLE	LABEL	Cyclic Voltammetry	Test &Identifier
DATE	LABEL	1/31/2023	Date
TIME	LABEL	15:23:14	Time
NOTES	NOTES	1	&Notes...

PSTAT	PSTAT	REF3000-21108	Potentiostat
VINIT	POTEN	5.00000E-001	F	Initial &E (V)
VLIMIT1	POTEN	-1.00000E+000	F	Scan Limit &1 (V)
VLIMIT2	POTEN	5.00000E-001	F	Scan Limit &2 (V)
VFINAL	POTEN	5.00000E-001	F	Final &E (V)
SCANRATE	QUANT	4.99999E+003	&Scan Rate (mV/s)
STEPSIZE	QUANT	1.00000E+000	St&ep Size (mV)
CYCLES	IQUANT	1	C&ycles (#)
IMODE	SELECTOR	1	I/E Range &Mode
IRANGE	QUANT	1.00000E+001	&Max Current (mA)
AREA	QUANT	1.00000E+000	Electrode &Area (cm^2)
ELECTRODETYPE	SELECTOR	0	Electrode Type
STRIPPING	TOGGLE	F	Used for Stripping
POLARITY	TOGGLE	F	Signal Polarity
CONDIT	TWOPARAM	F	1.50000E+001	0.00000E+000	Conditionin&g	Time(s)	E(V)
DELAY	TWOPARAM	F	5.00000E+000	0.00000E+000	Init. De&lay	Time(s)	Stab.(mV/s)
EQDELAY	QUANT	0.00000E+000	Equil. &Time (s)
IRCOMP	SELECTOR	0	IRCom&p
PFCOR	QUANT	5.00000E+001	PF Corr. (ohm)
SAMPLINGMODE	SELECTOR	1	Sampling &Mode
EOC	QUANT	0	Open Circuit (V)
PSTATMODEL	IQUANT	5	Pstat Model
PSTATSECTION	LABEL	REF3000-21108	Pstat Section
PSTATSERIALNO	LABEL	21108	Pstat Serial Number
CTRLMODE	IQUANT	1	Control Mode
ELECTROMETER	IQUANT	0	RE=0 or CS=1
IESTAB	IQUANT	2	I/E Stability
CASPEED	IQUANT	4	Control Amp Speed
CONVENTION	IQUANT	1	Current Convention
ICHRANGE	IQUANT	2	Ich Range
ICHRANGEMODE	TOGGLE	F	Ich Auto Range
ICHOFFSETENABLE	TOGGLE	F	Ich Offset Enable
ICHOFFSET	QUANT	0	Ich Offset (V)
ICHFILTER	IQUANT	1	Ich Filter
VCHRANGE	IQUANT	2	Vch Range
VCHRANGEMODE	TOGGLE	F	Vch Auto Range
VCHOFFSETENABLE	TOGGLE	F	Vch Offset Enable
VCHOFFSET	QUANT	0	Vch Offset (V)
VCHFILTER	IQUANT	1	Vch Filter
ACHRANGE	IQUANT	2	Ach Range
ACHOFFSETENABLE	TOGGLE	F	Ach Offset Enable
ACHOFFSET	QUANT	0	Ach Offset (V)
ACHFILTER	IQUANT	0	Ach Filter
IERANGELOWERLIMIT	IQUANT	2	I/E Range Lower Limit
IERANGEMODE	TOGGLE	F	I/E AutoRange
IERANGE	IQUANT	10	I/E Range
POSFEEDENABLE	TOGGLE	F	Positive Feedback IR Comp
POSFEEDRESISTANCE	QUANT	0	Positive Feedback Resistance (ohm)
ACHSELECT	IQUANT	0	Ach Select
SENSECABLEID	IQUANT	14	Sense Cable ID
PWRCABLEID	IQUANT	7	Power Cable ID
DCCALDATE	LABEL	11/9/2022	DC Calibration Date
ACCALDATE	LABEL	11/9/2022	AC Calibration Date
THERMOSELECT	IQUANT	1	Thermo Select
FRAMEWORKVERSION	LABEL	7.8.2	Framework Version
INSTRUMENTVERSION	LABEL	4.40	Instrument Version
COMPLIANCEVOLTAGE	IQUANT	0	Compliance Voltage
CURVE1	TABLE
	Pt	T	Vf	Im	Vu	Sig	Ach	IERange	Over	Temp
	#	s	V vs. Ref.	A	V	V	V	#	bits	deg C
	0	0.0002	4.98791E-001	2.71185E-005	0.00000E+000	5.00000E-001	-6.29272E-004	10	..........a	-327.74
	7	0.0016	4.91791E-001	7.06665E-006	0.00000E+000	4.93000E-001	-8.29272E-004	10	..........a	-327.74
	14	0.003	4.84791E-001	1.05109E-006	0.00000E+000	4.86000E-001	-8.29272E-004	10	..........a	-327.74
	21	0.0044	4.77941E-001	-4.46318E-006	0.00000E+000	4.79000E-001	-8.29272E-004	10	..........a	-327.74
	28	0.0058	4.70491E-001	-6.96967E-006	0.00000E+000	4.72000E-001	-6.29272E-004	10	..........a	-327.74
	35	0.0072	4.63791E-001	-7.47096E-006	0.00000E+000	4.65000E-001	-9.29272E-004	10	..........a	-327.74
	42	0.0086	4.56841E-001	-1.34865E-005	0.00000E+000	4.58000E-001	-2.29272E-004	10	..........a	-327.74
	49	0.01	4.49541E-001	-1.44891E-005	0.00000E+000	4.51000E-001	-9.29272E-004	10	..........a	-327.74
	56	0.0114	4.42891E-001	-1.14813E-005	0.00000E+000	4.44000E-001	-7.29272E-004	10	..........a	-327.74
	63	0.0128	4.35991E-001	-1.54917E-005	0.00000E+000	4.37000E-001	-9.29272E-004	10	..........a	-327.74
	70	0.0142	4.28791E-001	-1.69956E-005	0.00000E+000	4.30000E-001	-6.29272E-004	10	..........a	-327.74
	77	0.0156	4.21741E-001	-2.25099E-005	0.00000E+000	4.23000E-001	-9.29272E-004	10	..........a	-327.74
	84	0.017	4.14641E-001	-2.20086E-005	0.00000E+000	4.16000E-001	-9.29272E-004	10	..........a	-327.74
	91	0.0184	4.07991E-001	-1.90008E-005	0.00000E+000	4.09000E-001	-6.29272E-004	10	..........a	-327.74
	98	0.0198	4.00841E-001	-2.25099E-005	0.00000E+000	4.02000E-001	-7.29272E-004	10	..........a	-327.74
	105	0.0212	3.93641E-001	-2.25099E-005	0.00000E+000	3.95000E-001	-9.29272E-004	10	..........a	-327.74
	112	0.0226	3.86991E-001	-2.10060E-005	0.00000E+000	3.88000E-001	-9.29272E-004	10	..........a	-327.74
	119	0.024	3.79791E-001	-2.80241E-005	0.00000E+000	3.81000E-001	-6.29272E-004	10	..........a	-327.74
	126	0.0254	3.72841E-001	-2.55177E-005	0.00000E+000	3.74000E-001	-8.29272E-004	10	..........a	-327.74
	133	0.0268	3.65741E-001	-3.05306E-005	0.00000E+000	3.67000E-001	-9.29272E-004	10	..........a	-327.74
	140	0.0282	3.58891E-001	-3.00293E-005	0.00000E+000	3.60000E-001	-1.02927E-003	10	..........a	-327.74
	147	0.0296	3.51841E-001	-3.45410E-005	0.00000E+000	3.53000E-001	-1.12927E-003	10	..........a	-327.74
	154	0.031	3.44741E-001	-3.10319E-005	0.00000E+000	3.46000E-001	-9.29272E-004	10	..........a	-327.74
	161	0.0324	3.38091E-001	-3.15332E-005	0.00000E+000	3.39000E-001	-9.29272E-004	10	..........a	-327.74
	168	0.0338	3.30941E-001	-3.25358E-005	0.00000E+000	3.32000E-001	-9.29272E-004	10	..........a	-327.74
	175	0.0352	3.23991E-001	-3.50423E-005	0.00000E+000	3.25000E-001	-9.29272E-004	10	..........a	-327.74
	182	0.0366	3.16791E-001	-3.45410E-005	0.00000E+000	3.18000E-001	-7.29272E-004	10	..........a	-327.74
	189	0.038	3.09891E-001	-3.50423E-005	0.00000E+000	3.11000E-001	-9.29272E-004	10	..........a	-327.74
	196	0.0394	3.02991E-001	-3.65462E-005	0.00000E+000	3.04000E-001	-9.29272E-004	10	..........a	-327.74
	203	0.0408	2.96041E-001	-3.60449E-005	0.00000E+000	2.97000E-001	-9.29272E-004	10	..........a	-327.74
	210	0.0422	2.88791E-001	-3.50423E-005	0.00000E+000	2.90000E-001	-9.29272E-004	10	..........a	-327.74
	217	0.0436	2.81891E-001	-3.60449E-005	0.00000E+000	2.83000E-001	-9.29272E-004	10	..........a	-327.74
	224	0.045	2.74791E-001	-3.20345E-005	0.00000E+000	2.76000E-001	-5.29272E-004	10	..........a	-327.74
	231	0.0464	2.67741E-001	-3.30371E-005	0.00000E+000	2.69000E-001	-5.29272E-004	10	..........a	-327.74
	238	0.0478	2.60791E-001	-3.25358E-005	0.00000E+000	2.62000E-001	-1.02927E-003	10	..........a	-327.74
	245	0.0492	2.53691E-001	-3.80501E-005	0.00000E+000	2.55000E-001	-9.29272E-004	10	..........a	-327.74
	252	0.0506	2.47091E-001	-3.50423E-005	0.00000E+000	2.48000E-001	-9.29272E-004	10	..........a	-327.74
	259	0.052	2.39791E-001	-3.65462E-005	0.00000E+000	2.41000E-001	-9.29272E-004	10	..........a	-327.74
	266	0.0534	2.32791E-001	-4.10579E-005	0.00000E+000	2.34000E-001	-6.29272E-004	10	..........a	-327.74
	273	0.0548	2.25791E-001	-3.65462E-005	0.00000E+000	2.27000E-001	-8.29272E-004	10	..........a	-327.74
	280	0.0562	2.18991E-001	-3.65462E-005	0.00000E+000	2.20000E-001	-9.29272E-004	10	..........a	-327.74
	287	0.0576	2.11891E-001	-3.70475E-005	0.00000E+000	2.13000E-001	-9.29272E-004	10	..........a	-327.74
	294	0.059	2.04791E-001	-4.00553E-005	0.00000E+000	2.06000E-001	-8.29272E-004	10	..........a	-327.74
	301	0.0604	1.97841E-001	-3.85514E-005	0.00000E+000	1.99000E-001	-9.29272E-004	10	..........a	-327.74
	308	0.0618	1.90991E-001	-3.95540E-005	0.00000E+000	1.92000E-001	-8.29272E-004	10	..........a	-327.74
	315	0.0632	1.83991E-001	-4.20605E-005	0.00000E+000	1.85000E-001	-9.29272E-004	10	..........a	-327.74
	322	0.0646	1.76841E-001	-3.95540E-005	0.00000E+000	1.78000E-001	-9.29272E-004	10	..........a	-327.74
	329	0.066	1.69841E-001	-3.45410E-005	0.00000E+000	1.71000E-001	-9.29272E-004	10	..........a	-327.74
	336	0.0674	1.62941E-001	-3.80501E-005	0.00000E+000	1.64000E-001	-8.29272E-004	10	..........a	-327.74
	343	0.0688	1.55891E-001	-4.00553E-005	0.00000E+000	1.57000E-001	-8.29272E-004	10	..........a	-327.74
	350	0.0702	1.48791E-001	-3.90527E-005	0.00000E+000	1.50000E-001	-1.12927E-003	10	..........a	-327.74
	357	0.0716	1.42191E-001	-4.20605E-005	0.00000E+000	1.43000E-001	-9.29272E-004	10	..........a	-327.74
	364	0.073	1.34991E-001	-4.05566E-005	0.00000E+000	1.36000E-001	-9.29272E-004	10	..........a	-327.74
	371	0.0744	1.27891E-001	-4.25618E-005	0.00000E+000	1.29000E-001	-9.29272E-004	10	..........a	-327.74
	378	0.0758	1.20991E-001	-3.95540E-005	0.00000E+000	1.22000E-001	-9.29272E-004	10	..........a	-327.74
	385	0.0772	1.13941E-001	-4.25618E-005	0.00000E+000	1.15000E-001	-1.02927E-003	10	..........a	-327.74
	392	0.0786	1.06991E-001	-4.25618E-005	0.00000E+000	1.08000E-001	-9.29272E-004	10	..........a	-327.74
	399	0.08	9.99910E-002	-4.15592E-005	0.00000E+000	1.01000E-001	-9.29272E-004	10	..........a	-327.74
	406	0.0814	9.28910E-002	-4.40656E-005	0.00000E+000	9.40000E-002	-9.29272E-004	10	..........a	-327.74
	413	0.0828	8.58910E-002	-4.65721E-005	0.00000E+000	8.70000E-002	-9.29272E-004	10	..........a	-327.74
	420	0.0842	7.89910E-002	-4.40656E-005	0.00000E+000	8.00000E-002	-8.29272E-004	10	..........a	-327.74
	427	0.0856	7.19910E-002	-4.60708E-005	0.00000E+000	7.30000E-002	-1.12927E-003	10	..........a	-327.74
	434	0.087	6.49910E-002	-4.05566E-005	0.00000E+000	6.60000E-002	-9.29272E-004	10	..........a	-327.74
	441	0.0884	5.80910E-002	-4.45669E-005	0.00000E+000	5.90000E-002	-9.29272E-004	10	..........a	-327.74
	448	0.0898	5.10910E-002	-4.45669E-005	0.00000E+000	5.20000E-002	-8.29272E-004	10	..........a	-327.74
	455	0.0912	4.43410E-002	-4.40656E-005	0.00000E+000	4.50000E-002	-9.29272E-004	10	..........a	-327.74
	462	0.0926	3.68910E-002	-4.60708E-005	0.00000E+000	3.80000E-002	-7.29272E-004	10	..........a	-327.74
	469	0.094	3.00910E-002	-4.50682E-005	0.00000E+000	3.10000E-002	-9.29272E-004	10	..........a	-327.74
	476	0.0954	2.29910E-002	-4.40656E-005	0.00000E+000	2.40000E-002	-9.29272E-004	10	..........a	-327.74
	483	0.0968	1.59410E-002	-4.50682E-005	0.00000E+000	1.70000E-002	-9.29272E-004	10	..........a	-327.74
	490	0.0982	8.89100E-003	-4.35643E-005	0.00000E+000	9.99999E-003	-9.29272E-004	10	..........a	-327.74
	497	0.0996	2.19100E-003	-4.45669E-005	0.00000E+000	2.99999E-003	-7.29272E-004	10	..........a	-327.74
	504	0.101	-5.10900E-003	-4.50682E-005	0.00000E+000	-4.00001E-003	-8.29272E-004	10	..........a	-327.74
	511	0.1024	-1.20090E-002	-4.60708E-005	0.00000E+000	-1.10000E-002	-9.29272E-004	10	..........a	-327.74
	518	0.1038	-1.90590E-002	-4.25618E-005	0.00000E+000	-1.80000E-002	-7.29272E-004	10	..........a	-327.74
	525	0.1052	-2.60590E-002	-4.70734E-005	0.00000E+000	-2.50000E-002	-6.29272E-004	10	..........a	-327.74
	532	0.1066	-3.30090E-002	-4.45669E-005	0.00000E+000	-3.20000E-002	-9.29272E-004	10	..........a	-327.74
	539	0.108	-4.00090E-002	-4.05566E-005	0.00000E+000	-3.90000E-002	-8.29272E-004	10	..........a	-327.74
	546	0.1094	-4.71090E-002	-4.60708E-005	0.00000E+000	-4.60000E-002	-9.29272E-004	10	..........a	-327.74
	553	0.1108	-5.39090E-002	-4.55695E-005	0.00000E+000	-5.30000E-002	-9.29272E-004	10	..........a	-327.74
	560	0.1122	-6.10090E-002	-4.50682E-005	0.00000E+000	-6.00000E-002	-9.29272E-004	10	..........a	-327.74
	567	0.1136	-6.81090E-002	-4.55695E-005	0.00000E+000	-6.70000E-002	-9.29272E-004	10	..........a	-327.74
	574	0.115	-7.51090E-002	-4.60708E-005	0.00000E+000	-7.40000E-002	-9.29272E-004	10	..........a	-327.74
	581	0.1164	-8.19590E-002	-4.45669E-005	0.00000E+000	-8.10000E-002	-9.29272E-004	10	..........a	-327.74
	588	0.1178	-8.88090E-002	-4.60708E-005	0.00000E+000	-8.80000E-002	-1.12927E-003	10	..........a	-327.74
	595	0.1192	-9.61590E-002	-4.45669E-005	0.00000E+000	-9.50000E-002	-7.29272E-004	10	..........a	-327.74
	602	0.1206	-1.02959E-001	-4.60708E-005	0.00000E+000	-1.02000E-001	-9.29272E-004	10	..........a	-327.74
	609	0.122	-1.10059E-001	-4.60708E-005	0.00000E+000	-1.09000E-001	-9.29272E-004	10	..........a	-327.74
	616	0.1234	-1.17109E-001	-4.75747E-005	0.00000E+000	-1.16000E-001	-8.29272E-004	10	..........a	-327.74
	623	0.1248	-1.24009E-001	-4.40656E-005	0.00000E+000	-1.23000E-001	-9.29272E-004	10	..........a	-327.74
	630	0.1262	-1.30709E-001	-4.70734E-005	0.00000E+000	-1.30000E-001	-9.29272E-004	10	..........a	-327.74
	637	0.1276	-1.37809E-001	-4.75747E-005	0.00000E+000	-1.37000E-001	-9.29272E-004	10	..........a	-327.74
	644	0.129	-1.44909E-001	-4.35643E-005	0.00000E+000	-1.44000E-001	-9.29272E-004	10	..........a	-327.74
	651	0.1304	-1.51959E-001	-4.60708E-005	0.00000E+000	-1.51000E-001	-7.29272E-004	10	..........a	-327.74
	658	0.1318	-1.58959E-001	-4.70734E-005	0.00000E+000	-1.58000E-001	-6.29272E-004	10	..........a	-327.74
	665	0.1332	-1.65609E-001	-4.80760E-005	0.00000E+000	-1.65000E-001	-6.29272E-004	10	..........a	-327.74
	672	0.1346	-1.73159E-001	-4.60708E-005	0.00000E+000	-1.72000E-001	-9.29272E-004	10	..........a	-327.74
	679	0.136	-1.79959E-001	-4.75747E-005	0.00000E+000	-1.79000E-001	-6.29272E-004	10	..........a	-327.74
	686	0.1374	-1.87209E-001	-4.50682E-005	0.00000E+000	-1.86000E-001	-9.29272E-004	10	..........a	-327.74
	693	0.1388	-1.94009E-001	-4.50682E-005	0.00000E+000	-1.93000E-001	-9.29272E-004	10	..........a	-327.74
	700	0.1402	-2.00909E-001	-4.75747E-005	0.00000E+000	-2.00000E-001	-9.29272E-004	10	..........a	-327.74
	707	0.1416	-2.08009E-001	-4.90786E-005	0.00000E+000	-2.07000E-001	-7.29272E-004	10	..........a	-327.74
	714	0.143	-2.14609E-001	-4.60708E-005	0.00000E+000	-2.14000E-001	-9.29272E-004	10	..........a	-327.74
	721	0.1444	-2.21909E-001	-4.65721E-005	0.00000E+000	-2.21000E-001	-2.29272E-004	10	..........a	-327.74
	728	0.1458	-2.28959E-001	-5.00812E-005	0.00000E+000	-2.28000E-001	-9.29272E-004	10	..........a	-327.74
	735	0.1472	-2.35809E-001	-4.85773E-005	0.00000E+000	-2.35000E-001	-6.29272E-004	10	..........a	-327.74
	742	0.1486	-2.42859E-001	-5.05825E-005	0.00000E+000	-2.42000E-001	-9.29272E-004	10	..........a	-327.74
	749	0.15	-2.50009E-001	-5.10838E-005	0.00000E+000	-2.49000E-001	-9.29272E-004	10	..........a	-327.74
	756	0.1514	-2.56809E-001	-4.90786E-005	0.00000E+000	-2.56000E-001	-9.29272E-004	10	..........a	-327.74
	763	0.1528	-2.64159E-001	-5.30890E-005	0.00000E+000	-2.63000E-001	-9.29272E-004	10	..........a	-327.74
	770	0.1542	-2.70959E-001	-5.05825E-005	0.00000E+000	-2.70000E-001	-7.29272E-004	10	..........a	-327.74
	777	0.1556	-2.77809E-001	-5.30890E-005	0.00000E+000	-2.77000E-001	-5.29272E-004	10	..........a	-327.74
	784	0.157	-2.84909E-001	-5.60968E-005	0.00000E+000	-2.84000E-001	-9.29272E-004	10	..........a	-327.74
	791	0.1584	-2.92009E-001	-5.65981E-005	0.00000E+000	-2.91000E-001	-1.12927E-003	10	..........a	-327.74
	798	0.1598	-2.99109E-001	-5.70994E-005	0.00000E+000	-2.98000E-001	-7.29272E-004	10	..........a	-327.74
	805	0.1612	-3.05809E-001	-6.01071E-005	0.00000E+000	-3.05000E-001	-9.29272E-004	10	..........a	-327.74
	812	0.1626	-3.12859E-001	-6.01071E-005	0.00000E+000	-3.12000E-001	-9.29272E-004	10	..........a	-327.74
	819	0.164	-3.19909E-001	-6.11097E-005	0.00000E+000	-3.19000E-001	-1.02927E-003	10	..........a	-327.74
	826	0.1654	-3.26909E-001	-6.21123E-005	0.00000E+000	-3.26000E-001	-9.29272E-004	10	..........a	-327.74
	833	0.1668	-3.33809E-001	-6.16110E-005	0.00000E+000	-3.33000E-001	-6.29272E-004	10	..........a	-327.74
	840	0.1682	-3.40809E-001	-6.66240E-005	0.00000E+000	-3.40000E-001	-9.29272E-004	10	..........a	-327.74
	847	0.1696	-3.47959E-001	-6.81279E-005	0.00000E+000	-3.47000E-001	-9.29272E-004	10	..........a	-327.74
	854	0.171	-3.54959E-001	-6.81279E-005	0.00000E+000	-3.54000E-001	-9.29272E-004	10	..........a	-327.74
	861	0.1724	-3.61909E-001	-7.36422E-005	0.00000E+000	-3.61000E-001	-9.29272E-004	10	..........a	-327.74
	868	0.1738	-3.68809E-001	-7.41435E-005	0.00000E+000	-3.68000E-001	-8.29272E-004	10	..........a	-327.74
	875	0.1752	-3.76009E-001	-7.86551E-005	0.00000E+000	-3.75000E-001	-8.29272E-004	10	..........a	-327.74
	882	0.1766	-3.83059E-001	-8.46707E-005	0.00000E+000	-3.82000E-001	-6.29272E-004	10	..........a	-327.74
	889	0.178	-3.89709E-001	-8.81798E-005	0.00000E+000	-3.89000E-001	-8.29272E-004	10	..........a	-327.74
	896	0.1794	-3.96809E-001	-9.11876E-005	0.00000E+000	-3.96000E-001	-9.29272E-004	10	..........a	-327.74
	903	0.1808	-4.03959E-001	-1.02717E-004	0.00000E+000	-4.03000E-001	-9.29272E-004	10	..........a	-327.74
	910	0.1822	-4.10859E-001	-1.12743E-004	0.00000E+000	-4.10000E-001	-9.29272E-004	10	..........a	-327.74
	917	0.1836	-4.18009E-001	-1.24774E-004	0.00000E+000	-4.17000E-001	-6.29272E-004	10	..........a	-327.74
	924	0.185	-4.25009E-001	-1.42821E-004	0.00000E+000	-4.24000E-001	-9.29272E-004	10	..........a	-327.74
	931	0.1864	-4.31959E-001	-1.62372E-004	0.00000E+000	-4.31000E-001	-6.29272E-004	10	..........a	-327.74
	938	0.1878	-4.38809E-001	-1.83426E-004	0.00000E+000	-4.38000E-001	-7.29272E-004	10	..........a	-327.74
	945	0.1892	-4.45609E-001	-2.09494E-004	0.00000E+000	-4.45000E-001	-7.29272E-004	10	..........a	-327.74
	952	0.1906	-4.52909E-001	-2.39571E-004	0.00000E+000	-4.52000E-001	-1.02927E-003	10	..........a	-327.74
	959	0.192	-4.59909E-001	-2.76166E-004	0.00000E+000	-4.59000E-001	-9.29272E-004	10	..........a	-327.74
	966	0.1934	-4.66959E-001	-3.22787E-004	0.00000E+000	-4.66000E-001	-1.12927E-003	10	..........a	-327.74
	973	0.1948	-4.73959E-001	-3.72415E-004	0.00000E+000	-4.73000E-001	-6.29272E-004	10	..........a	-327.74
	980	0.1962	-4.80909E-001	-4.27057E-004	0.00000E+000	-4.80000E-001	-9.29272E-004	10	..........a	-327.74
	987	0.1976	-4.88009E-001	-4.92225E-004	0.00000E+000	-4.87000E-001	-1.02927E-003	10	..........a	-327.74
	994	0.199	-4.94859E-001	-5.73435E-004	0.00000E+000	-4.94000E-001	-6.29272E-004	10	..........a	-327.74
	1001	0.2004	-5.01959E-001	-6.57653E-004	0.00000E+000	-5.01000E-001	-8.29272E-004	10	..........a	-327.74
	1008	0.2018	-5.08959E-001	-7.57411E-004	0.00000E+000	-5.08000E-001	-1.02927E-003	10	..........a	-327.74
	1015	0.2032	-5.16009E-001	-8.63185E-004	0.00000E+000	-5.15000E-001	-6.29272E-004	10	..........a	-327.74
	1022	0.2046	-5.22859E-001	-9.76979E-004	0.00000E+000	-5.22000E-001	-8.29272E-004	10	..........a	-327.74
	1029	0.206	-5.29909E-001	-1.09077E-003	0.00000E+000	-5.29000E-001	-9.29272E-004	10	..........a	-327.74
	1036	0.2074	-5.36809E-001	-1.20607E-003	0.00000E+000	-5.36000E-001	-1.12927E-003	10	..........a	-327.74
	1043	0.2088	-5.43909E-001	-1.32137E-003	0.00000E+000	-5.43000E-001	-9.29272E-004	10	..........a	-327.74
	1050	0.2102	-5.50809E-001	-1.43065E-003	0.00000E+000	-5.50000E-001	-6.29272E-004	10	..........a	-327.74
	1057	0.2116	-5.57809E-001	-1.53342E-003	0.00000E+000	-5.57000E-001	-8.29272E-004	10	..........a	-327.74
	1064	0.213	-5.64759E-001	-1.62666E-003	0.00000E+000	-5.64000E-001	-1.02927E-003	10	..........a	-327.74
	1071	0.2144	-5.71709E-001	-1.71088E-003	0.00000E+000	-5.71000E-001	-8.29272E-004	10	..........a	-327.74
	1078	0.2158	-5.78759E-001	-1.78908E-003	0.00000E+000	-5.78000E-001	-9.29272E-004	10	..........a	-327.74
	1085	0.2172	-5.85809E-001	-1.85776E-003	0.00000E+000	-5.85000E-001	-8.29272E-004	10	..........a	-327.74
	1092	0.2186	-5.92809E-001	-1.90789E-003	0.00000E+000	-5.92000E-001	-7.29272E-004	10	..........a	-327.74
	1099	0.22	-5.99909E-001	-1.94097E-003	0.00000E+000	-5.99000E-001	-9.29272E-004	10	..........a	-327.74
	1106	0.2214	-6.07009E-001	-1.94147E-003	0.00000E+000	-6.06000E-001	-2.29272E-004	10	..........a	-327.74
	1113	0.2228	-6.13809E-001	-1.90488E-003	0.00000E+000	-6.13000E-001	-9.29272E-004	10	..........a	-327.74
	1120	0.2242	-6.20809E-001	-1.84924E-003	0.00000E+000	-6.20000E-001	-9.29272E-004	10	..........a	-327.74
	1127	0.2256	-6.27859E-001	-1.77905E-003	0.00000E+000	-6.27000E-001	-9.29272E-004	10	..........a	-327.74
	1134	0.227	-6.34609E-001	-1.70386E-003	0.00000E+000	-6.34000E-001	-7.29272E-004	10	..........a	-327.74
	1141	0.2284	-6.41709E-001	-1.63217E-003	0.00000E+000	-6.41000E-001	-9.29272E-004	10	..........a	-327.74
	1148	0.2298	-6.48759E-001	-1.56550E-003	0.00000E+000	-6.48000E-001	-9.29272E-004	10	..........a	-327.74
	1155	0.2312	-6.55909E-001	-1.50785E-003	0.00000E+000	-6.55000E-001	-9.29272E-004	10	..........a	-327.74
	1162	0.2326	-6.62709E-001	-1.45772E-003	0.00000E+000	-6.62000E-001	-9.29272E-004	10	..........a	-327.74
	1169	0.234	-6.69709E-001	-1.41411E-003	0.00000E+000	-6.69000E-001	-9.29272E-004	10	..........a	-327.74
	1176	0.2354	-6.76759E-001	-1.36599E-003	0.00000E+000	-6.76000E-001	-9.29272E-004	10	..........a	-327.74
	1183	0.2368	-6.83809E-001	-1.33440E-003	0.00000E+000	-6.83000E-001	-2.29272E-004	10	..........a	-327.74
	1190	0.2382	-6.90609E-001	-1.29430E-003	0.00000E+000	-6.90000E-001	-9.29272E-004	10	..........a	-327.74
	1197	0.2396	-6.97609E-001	-1.26422E-003	0.00000E+000	-6.97000E-001	-8.29272E-004	10	..........a	-327.74
	1204	0.241	-7.04809E-001	-1.23615E-003	0.00000E+000	-7.04000E-001	-9.29272E-004	10	..........a	-327.74
	1211	0.2424	-7.11909E-001	-1.20006E-003	0.00000E+000	-7.11000E-001	-9.29272E-004	10	..........a	-327.74
	1218	0.2438	-7.18659E-001	-1.17900E-003	0.00000E+000	-7.18000E-001	-1.12927E-003	10	..........a	-327.74
	1225	0.2452	-7.25609E-001	-1.15344E-003	0.00000E+000	-7.25000E-001	-1.02927E-003	10	..........a	-327.74
	1232	0.2466	-7.32809E-001	-1.12987E-003	0.00000E+000	-7.32000E-001	-8.29272E-004	10	..........a	-327.74
	1239	0.248	-7.39709E-001	-1.10431E-003	0.00000E+000	-7.39000E-001	-9.29272E-004	10	..........a	-327.74
	1246	0.2494	-7.46609E-001	-1.08275E-003	0.00000E+000	-7.46000E-001	-6.29272E-004	10	..........a	-327.74
	1253	0.2508	-7.53609E-001	-1.06220E-003	0.00000E+000	-7.53000E-001	-2.29272E-004	10	..........a	-327.74
	1260	0.2522	-7.60809E-001	-1.04165E-003	0.00000E+000	-7.60000E-001	-9.29272E-004	10	..........a	-327.74
	1267	0.2536	-7.67659E-001	-1.02510E-003	0.00000E+000	-7.67000E-001	-5.29272E-004	10	..........a	-327.74
	1274	0.255	-7.74509E-001	-1.00505E-003	0.00000E+000	-7.74000E-001	-9.29272E-004	10	..........a	-327.74
	1281	0.2564	-7.81709E-001	-9.83496E-004	0.00000E+000	-7.81000E-001	-9.29272E-004	10	..........a	-327.74
	1288	0.2578	-7.88709E-001	-9.70463E-004	0.00000E+000	-7.88000E-001	-8.29272E-004	10	..........a	-327.74
	1295	0.2592	-7.95709E-001	-9.54922E-004	0.00000E+000	-7.95000E-001	-8.29272E-004	10	..........a	-327.74
	1302	0.2606	-8.02609E-001	-9.40886E-004	0.00000E+000	-8.02000E-001	-9.29272E-004	10	..........a	-327.74
	1309	0.262	-8.09709E-001	-9.24844E-004	0.00000E+000	-8.09000E-001	-9.29272E-004	10	..........a	-327.74
	1316	0.2634	-8.16709E-001	-9.08803E-004	0.00000E+000	-8.16000E-001	-8.29272E-004	10	..........a	-327.74
	1323	0.2648	-8.23409E-001	-8.95769E-004	0.00000E+000	-8.23000E-001	-1.02927E-003	10	..........a	-327.74
	1330	0.2662	-8.30609E-001	-8.84741E-004	0.00000E+000	-8.30000E-001	-6.29272E-004	10	..........a	-327.74
	1337	0.2676	-8.37709E-001	-8.70704E-004	0.00000E+000	-8.37000E-001	-9.29272E-004	10	..........a	-327.74
	1344	0.269	-8.44759E-001	-8.61681E-004	0.00000E+000	-8.44000E-001	-9.29272E-004	10	..........a	-327.74
	1351	0.2704	-8.51659E-001	-8.49149E-004	0.00000E+000	-8.51000E-001	-9.29272E-004	10	..........a	-327.74
	1358	0.2718	-8.58709E-001	-8.36616E-004	0.00000E+000	-8.58000E-001	-9.29272E-004	10	..........a	-327.74
	1365	0.2732	-8.65709E-001	-8.28094E-004	0.00000E+000	-8.65000E-001	-1.02927E-003	10	..........a	-327.74
	1372	0.2746	-8.72409E-001	-8.13055E-004	0.00000E+000	-8.72000E-001	-9.29272E-004	10	..........a	-327.74
	1379	0.276	-8.79909E-001	-8.03029E-004	0.00000E+000	-8.79000E-001	-9.29272E-004	10	..........a	-327.74
	1386	0.2774	-8.86709E-001	-7.95008E-004	0.00000E+000	-8.86000E-001	-7.29272E-004	10	..........a	-327.74
	1393	0.2788	-8.93609E-001	-7.86486E-004	0.00000E+000	-8.93000E-001	-9.29272E-004	10	..........a	-327.74
	1400	0.2802	-9.00759E-001	-7.78466E-004	0.00000E+000	-9.00000E-001	-8.29272E-004	10	..........a	-327.74
	1407	0.2816	-9.07409E-001	-7.62925E-004	0.00000E+000	-9.07000E-001	-6.29272E-004	10	..........a	-327.74
	1414	0.283	-9.14559E-001	-7.54403E-004	0.00000E+000	-9.14000E-001	-9.29272E-004	10	..........a	-327.74
	1421	0.2844	-9.21709E-001	-7.45881E-004	0.00000E+000	-9.21000E-001	-8.29272E-004	10	..........a	-327.74
	1428	0.2858	-9.28759E-001	-7.38863E-004	0.00000E+000	-9.28000E-001	-9.29272E-004	10	..........a	-327.74
	1435	0.2872	-9.35759E-001	-7.34352E-004	0.00000E+000	-9.35000E-001	-8.29272E-004	10	..........a	-327.74
	1442	0.2886	-9.42709E-001	-7.24326E-004	0.00000E+000	-9.42000E-001	-9.29272E-004	10	..........a	-327.74
	1449	0.29	-9.49609E-001	-7.15804E-004	0.00000E+000	-9.49000E-001	-5.29272E-004	10	..........a	-327.74
	1456	0.2914	-9.56709E-001	-7.06279E-004	0.00000E+000	-9.56000E-001	-9.29272E-004	10	..........a	-327.74
	1463	0.2928	-9.63709E-001	-7.00765E-004	0.00000E+000	-9.63000E-001	-8.29272E-004	10	..........a	-327.74
	1470	0.2942	-9.70559E-001	-6.93747E-004	0.00000E+000	-9.70000E-001	-9.29272E-004	10	..........a	-327.74
	1477	0.2956	-9.77559E-001	-6.91741E-004	0.00000E+000	-9.77000E-001	-9.29272E-004	10	..........a	-327.74
	1484	0.297	-9.84509E-001	-6.84723E-004	0.00000E+000	-9.84000E-001	-5.29272E-004	10	..........a	-327.74
	1491	0.2984	-9.91659E-001	-6.83721E-004	0.00000E+000	-9.91000E-001	-1.02927E-003	10	..........a	-327.74
	1498	0.2998	-9.98609E-001	-6.70687E-004	0.00000E+000	-9.98000E-001	-8.29272E-004	10	..........a	-327.74
	1505	0.3012	-9.95609E-001	-6.03513E-004	0.00000E+000	-9.95000E-001	-9.29272E-004	10	..........a	-327.74
	1512	0.3026	-9.88709E-001	-5.62407E-004	0.00000E+000	-9.88000E-001	-9.29272E-004	10	..........a	-327.74
	1519	0.304	-9.81709E-001	-5.37342E-004	0.00000E+000	-9.81000E-001	-6.29272E-004	10	..........a	-327.74
	1526	0.3054	-9.74509E-001	-5.20298E-004	0.00000E+000	-9.74000E-001	-8.29272E-004	10	..........a	-327.74
	1533	0.3068	-9.67659E-001	-5.04758E-004	0.00000E+000	-9.67000E-001	-8.29272E-004	10	..........a	-327.74
	1540	0.3082	-9.60609E-001	-4.88716E-004	0.00000E+000	-9.60000E-001	-6.29272E-004	10	..........a	-327.74
	1547	0.3096	-9.53609E-001	-4.76184E-004	0.00000E+000	-9.53000E-001	-8.29272E-004	10	..........a	-327.74
	1554	0.311	-9.46409E-001	-4.68163E-004	0.00000E+000	-9.46000E-001	-9.29272E-004	10	..........a	-327.74
	1561	0.3124	-9.39609E-001	-4.56132E-004	0.00000E+000	-9.39000E-001	-9.29272E-004	10	..........a	-327.74
	1568	0.3138	-9.32759E-001	-4.51620E-004	0.00000E+000	-9.32000E-001	-9.29272E-004	10	..........a	-327.74
	1575	0.3152	-9.25609E-001	-4.42597E-004	0.00000E+000	-9.25000E-001	-1.12927E-003	10	..........a	-327.74
	1582	0.3166	-9.18709E-001	-4.33072E-004	0.00000E+000	-9.18000E-001	-9.29272E-004	10	..........a	-327.74
	1589	0.318	-9.11559E-001	-4.28560E-004	0.00000E+000	-9.11000E-001	-9.29272E-004	10	..........a	-327.74
	1596	0.3194	-9.04409E-001	-4.19537E-004	0.00000E+000	-9.04000E-001	-8.29272E-004	10	..........a	-327.74
	1603	0.3208	-8.97659E-001	-4.15527E-004	0.00000E+000	-8.97000E-001	-9.29272E-004	10	..........a	-327.74
	1610	0.3222	-8.90709E-001	-4.04999E-004	0.00000E+000	-8.90000E-001	-9.29272E-004	10	..........a	-327.74
	1617	0.3236	-8.83709E-001	-4.07005E-004	0.00000E+000	-8.83000E-001	-9.29272E-004	10	..........a	-327.74
	1624	0.325	-8.76709E-001	-3.97480E-004	0.00000E+000	-8.76000E-001	-8.29272E-004	10	..........a	-327.74
	1631	0.3264	-8.69609E-001	-3.88958E-004	0.00000E+000	-8.69000E-001	-6.29272E-004	10	..........a	-327.74
	1638	0.3278	-8.62659E-001	-3.84948E-004	0.00000E+000	-8.62000E-001	-9.29272E-004	10	..........a	-327.74
	1645	0.3292	-8.55409E-001	-3.79935E-004	0.00000E+000	-8.55000E-001	-9.29272E-004	10	..........a	-327.74
	1652	0.3306	-8.48809E-001	-3.78431E-004	0.00000E+000	-8.48000E-001	-9.29272E-004	10	..........a	-327.74
	1659	0.332	-8.41609E-001	-3.71413E-004	0.00000E+000	-8.41000E-001	-9.29272E-004	10	..........a	-327.74
	1666	0.3334	-8.34509E-001	-3.64896E-004	0.00000E+000	-8.34000E-001	-9.29272E-004	10	..........a	-327.74
	1673	0.3348	-8.27659E-001	-3.61387E-004	0.00000E+000	-8.27000E-001	-1.02927E-003	10	..........a	-327.74
	1680	0.3362	-8.20709E-001	-3.54870E-004	0.00000E+000	-8.20000E-001	-8.29272E-004	10	..........a	-327.74
	1687	0.3376	-8.13809E-001	-3.52865E-004	0.00000E+000	-8.13000E-001	-7.29272E-004	10	..........a	-327.74
	1694	0.339	-8.06759E-001	-3.46849E-004	0.00000E+000	-8.06000E-001	-9.29272E-004	10	..........a	-327.74
	1701	0.3404	-7.99959E-001	-3.41335E-004	0.00000E+000	-7.99000E-001	-1.12927E-003	10	..........a	-327.74
	1708	0.3418	-7.92809E-001	-3.37324E-004	0.00000E+000	-7.92000E-001	-7.29272E-004	10	..........a	-327.74
	1715	0.3432	-7.85809E-001	-3.33815E-004	0.00000E+000	-7.85000E-001	-7.29272E-004	10	..........a	-327.74
	1722	0.3446	-7.78609E-001	-3.30306E-004	0.00000E+000	-7.78000E-001	-9.29272E-004	10	..........a	-327.74
	1729	0.346	-7.71509E-001	-3.23789E-004	0.00000E+000	-7.71000E-001	-9.29272E-004	10	..........a	-327.74
	1736	0.3474	-7.64809E-001	-3.23288E-004	0.00000E+000	-7.64000E-001	-9.29272E-004	10	..........a	-327.74
	1743	0.3488	-7.57709E-001	-3.18275E-004	0.00000E+000	-7.57000E-001	-9.29272E-004	10	..........a	-327.74
	1750	0.3502	-7.50709E-001	-3.17272E-004	0.00000E+000	-7.50000E-001	-9.29272E-004	10	..........a	-327.74
	1757	0.3516	-7.43959E-001	-3.14265E-004	0.00000E+000	-7.43000E-001	-9.29272E-004	10	..........a	-327.74
	1764	0.353	-7.36809E-001	-3.07748E-004	0.00000E+000	-7.36000E-001	-9.29272E-004	10	..........a	-327.74
	1771	0.3544	-7.29859E-001	-3.02234E-004	0.00000E+000	-7.29000E-001	-9.29272E-004	10	..........a	-327.74
	1778	0.3558	-7.22509E-001	-3.00228E-004	0.00000E+000	-7.22000E-001	-9.29272E-004	10	..........a	-327.74
	1785	0.3572	-7.15959E-001	-2.96218E-004	0.00000E+000	-7.15000E-001	-9.29272E-004	10	..........a	-327.74
	1792	0.3586	-7.08859E-001	-2.88197E-004	0.00000E+000	-7.08000E-001	-9.29272E-004	10	..........a	-327.74
	1799	0.36	-7.01609E-001	-2.79675E-004	0.00000E+000	-7.01000E-001	-9.29272E-004	10	..........a	-327.74
	1806	0.3614	-6.94759E-001	-2.77670E-004	0.00000E+000	-6.94000E-001	-6.29272E-004	10	..........a	-327.74
	1813	0.3628	-6.87909E-001	-2.71153E-004	0.00000E+000	-6.87000E-001	-1.32927E-003	10	..........a	-327.74
	1820	0.3642	-6.80859E-001	-2.67143E-004	0.00000E+000	-6.80000E-001	-9.29272E-004	10	..........a	-327.74
	1827	0.3656	-6.73709E-001	-2.58621E-004	0.00000E+000	-6.73000E-001	-6.29272E-004	10	..........a	-327.74
	1834	0.367	-6.66609E-001	-2.52605E-004	0.00000E+000	-6.66000E-001	-9.29272E-004	10	..........a	-327.74
	1841	0.3684	-6.59809E-001	-2.42078E-004	0.00000E+000	-6.59000E-001	-9.29272E-004	10	..........a	-327.74
	1848	0.3698	-6.52809E-001	-2.29546E-004	0.00000E+000	-6.52000E-001	-6.29272E-004	10	..........a	-327.74
	1855	0.3712	-6.45759E-001	-2.19018E-004	0.00000E+000	-6.45000E-001	-9.29272E-004	10	..........a	-327.74
	1862	0.3726	-6.38859E-001	-2.01473E-004	0.00000E+000	-6.38000E-001	-6.29272E-004	10	..........a	-327.74
	1869	0.374	-6.31859E-001	-1.90946E-004	0.00000E+000	-6.31000E-001	-9.29272E-004	10	..........a	-327.74
	1876	0.3754	-6.24809E-001	-1.72899E-004	0.00000E+000	-6.24000E-001	-9.29272E-004	10	..........a	-327.74
	1883	0.3768	-6.17809E-001	-1.54351E-004	0.00000E+000	-6.17000E-001	-1.02927E-003	10	..........a	-327.74
	1890	0.3782	-6.11059E-001	-1.29787E-004	0.00000E+000	-6.10000E-001	-1.02927E-003	10	..........a	-327.74
	1897	0.3796	-6.03759E-001	-1.02717E-004	0.00000E+000	-6.03000E-001	-9.29272E-004	10	..........a	-327.74
	1904	0.381	-5.96809E-001	-7.36422E-005	0.00000E+000	-5.96000E-001	-9.29272E-004	10	..........a	-327.74
	1911	0.3824	-5.89709E-001	-3.85514E-005	0.00000E+000	-5.89000E-001	-5.29272E-004	10	..........a	-327.74
	1918	0.3838	-5.82809E-001	2.05368E-006	0.00000E+000	-5.82000E-001	-9.29272E-004	10	..........a	-327.74
	1925	0.3852	-5.75809E-001	4.71704E-005	0.00000E+000	-5.75000E-001	-1.02927E-003	10	..........a	-327.74
	1932	0.3866	-5.68809E-001	1.01812E-004	0.00000E+000	-5.68000E-001	-9.29272E-004	10	..........a	-327.74
	1939	0.388	-5.61809E-001	1.66479E-004	0.00000E+000	-5.61000E-001	-1.02927E-003	10	..........a	-327.74
	1946	0.3894	-5.54909E-001	2.42175E-004	0.00000E+000	-5.54000E-001	-8.29272E-004	10	..........a	-327.74
	1953	0.3908	-5.47909E-001	3.32408E-004	0.00000E+000	-5.47000E-001	-6.29272E-004	10	..........a	-327.74
	1960	0.3922	-5.40809E-001	4.33670E-004	0.00000E+000	-5.40000E-001	-1.02927E-003	10	..........a	-327.74
	1967	0.3936	-5.33809E-001	5.50974E-004	0.00000E+000	-5.33000E-001	-8.29272E-004	10	..........a	-327.74
	1974	0.395	-5.26809E-001	6.85322E-004	0.00000E+000	-5.26000E-001	-9.29272E-004	10	..........a	-327.74
	1981	0.3964	-5.20159E-001	8.22677E-004	0.00000E+000	-5.19000E-001	-9.29272E-004	10	..........a	-327.74
	1988	0.3978	-5.12859E-001	9.64043E-004	0.00000E+000	-5.12000E-001	-9.29272E-004	10	..........a	-327.74
	1995	0.3992	-5.05909E-001	1.10441E-003	0.00000E+000	-5.05000E-001	-8.29272E-004	10	..........a	-327.74
	2002	0.4006	-4.98859E-001	1.23625E-003	0.00000E+000	-4.98000E-001	-9.29272E-004	10	..........a	-327.74
	2009	0.402	-4.91759E-001	1.33701E-003	0.00000E+000	-4.91000E-001	-8.29272E-004	10	..........a	-327.74
	2016	0.4034	-4.84809E-001	1.40769E-003	0.00000E+000	-4.84000E-001	-1.02927E-003	10	..........a	-327.74
	2023	0.4048	-4.78009E-001	1.45531E-003	0.00000E+000	-4.77000E-001	-1.12927E-003	10	..........a	-327.74
	2030	0.4062	-4.70909E-001	1.46233E-003	0.00000E+000	-4.70000E-001	-9.29272E-004	10	..........a	-327.74
	2037	0.4076	-4.63909E-001	1.44178E-003	0.00000E+000	-4.63000E-001	-9.29272E-004	10	..........a	-327.74
	2044	0.409	-4.57009E-001	1.39917E-003	0.00000E+000	-4.56000E-001	-9.29272E-004	10	..........a	-327.74
	2051	0.4104	-4.50009E-001	1.33350E-003	0.00000E+000	-4.49000E-001	-1.12927E-003	10	..........a	-327.74
	2058	0.4118	-4.42609E-001	1.26833E-003	0.00000E+000	-4.42000E-001	-8.29272E-004	10	..........a	-327.74
	2065	0.4132	-4.35959E-001	1.19765E-003	0.00000E+000	-4.35000E-001	-6.29272E-004	10	..........a	-327.74
	2072	0.4146	-4.28859E-001	1.12696E-003	0.00000E+000	-4.28000E-001	-8.29272E-004	10	..........a	-327.74
	2079	0.416	-4.21809E-001	1.06631E-003	0.00000E+000	-4.21000E-001	-8.29272E-004	10	..........a	-327.74
	2086	0.4174	-4.14709E-001	1.00866E-003	0.00000E+000	-4.14000E-001	-9.29272E-004	10	..........a	-327.74
	2093	0.4188	-4.08009E-001	9.56022E-004	0.00000E+000	-4.07000E-001	-6.29272E-004	10	..........a	-327.74
	2100	0.4202	-4.00959E-001	9.06393E-004	0.00000E+000	-4.00000E-001	-8.29272E-004	10	..........a	-327.74
	2107	0.4216	-3.93809E-001	8.69297E-004	0.00000E+000	-3.93000E-001	-1.02927E-003	10	..........a	-327.74
	2114	0.423	-3.86609E-001	8.29695E-004	0.00000E+000	-3.86000E-001	-9.29272E-004	10	..........a	-327.74
	2121	0.4244	-3.79909E-001	7.99617E-004	0.00000E+000	-3.79000E-001	-6.29272E-004	10	..........a	-327.74
	2128	0.4258	-3.73009E-001	7.66030E-004	0.00000E+000	-3.72000E-001	-6.29272E-004	10	..........a	-327.74
	2135	0.4272	-3.65709E-001	7.39462E-004	0.00000E+000	-3.65000E-001	-6.29272E-004	10	..........a	-327.74
	2142	0.4286	-3.58809E-001	7.16402E-004	0.00000E+000	-3.58000E-001	-9.29272E-004	10	..........a	-327.74
	2149	0.43	-3.51909E-001	6.91337E-004	0.00000E+000	-3.51000E-001	-6.29272E-004	10	..........a	-327.74
	2156	0.4314	-3.44809E-001	6.69280E-004	0.00000E+000	-3.44000E-001	-6.29272E-004	10	..........a	-327.74
	2163	0.4328	-3.37809E-001	6.51735E-004	0.00000E+000	-3.37000E-001	-8.29272E-004	10	..........a	-327.74
	2170	0.4342	-3.31159E-001	6.33187E-004	0.00000E+000	-3.30000E-001	-7.29272E-004	10	..........a	-327.74
	2177	0.4356	-3.23959E-001	6.15140E-004	0.00000E+000	-3.23000E-001	-9.29272E-004	10	..........a	-327.74
	2184	0.437	-3.16809E-001	6.01605E-004	0.00000E+000	-3.16000E-001	-6.29272E-004	10	..........a	-327.74
	2191	0.4384	-3.09809E-001	5.87067E-004	0.00000E+000	-3.09000E-001	-6.29272E-004	10	..........a	-327.74
	2198	0.4398	-3.03009E-001	5.75537E-004	0.00000E+000	-3.02000E-001	-1.02927E-003	10	..........a	-327.74
	2205	0.4412	-2.95909E-001	5.61000E-004	0.00000E+000	-2.95000E-001	-6.29272E-004	10	..........a	-327.74
	2212	0.4426	-2.88809E-001	5.48969E-004	0.00000E+000	-2.88000E-001	-1.02927E-003	10	..........a	-327.74
	2219	0.444	-2.81909E-001	5.37439E-004	0.00000E+000	-2.81000E-001	-8.29272E-004	10	..........a	-327.74
	2226	0.4454	-2.75109E-001	5.27914E-004	0.00000E+000	-2.74000E-001	-8.29272E-004	10	..........a	-327.74
	2233	0.4468	-2.67959E-001	5.15883E-004	0.00000E+000	-2.67000E-001	-9.29272E-004	10	..........a	-327.74
	2240	0.4482	-2.60909E-001	5.08364E-004	0.00000E+000	-2.60000E-001	-9.29272E-004	10	..........a	-327.74
	2247	0.4496	-2.53909E-001	5.00343E-004	0.00000E+000	-2.53000E-001	-9.29272E-004	10	..........a	-327.74
	2254	0.451	-2.47109E-001	4.90818E-004	0.00000E+000	-2.46000E-001	-7.29272E-004	10	..........a	-327.74
	2261	0.4524	-2.39909E-001	4.82296E-004	0.00000E+000	-2.39000E-001	-9.29272E-004	10	..........a	-327.74
	2268	0.4538	-2.32909E-001	4.74777E-004	0.00000E+000	-2.32000E-001	-9.29272E-004	10	..........a	-327.74
	2275	0.4552	-2.25809E-001	4.66756E-004	0.00000E+000	-2.25000E-001	-8.29272E-004	10	..........a	-327.74
	2282	0.4566	-2.18959E-001	4.62746E-004	0.00000E+000	-2.18000E-001	-6.29272E-004	10	..........a	-327.74
	2289	0.458	-2.12009E-001	4.52720E-004	0.00000E+000	-2.11000E-001	-8.29272E-004	10	..........a	-327.74
	2296	0.4594	-2.04859E-001	4.48208E-004	0.00000E+000	-2.04000E-001	-9.29272E-004	10	..........a	-327.74
	2303	0.4608	-1.97909E-001	4.41190E-004	0.00000E+000	-1.97000E-001	-1.02927E-003	10	..........a	-327.74
	2310	0.4622	-1.90709E-001	4.34673E-004	0.00000E+000	-1.90000E-001	-9.29272E-004	10	..........a	-327.74
	2317	0.4636	-1.84009E-001	4.27655E-004	0.00000E+000	-1.83000E-001	-6.29272E-004	10	..........a	-327.74
	2324	0.465	-1.76909E-001	4.25650E-004	0.00000E+000	-1.76000E-001	-9.29272E-004	10	..........a	-327.74
	2331	0.4664	-1.70009E-001	4.18632E-004	0.00000E+000	-1.69000E-001	-1.02927E-003	10	..........a	-327.74
	2338	0.4678	-1.63109E-001	4.11112E-004	0.00000E+000	-1.62000E-001	-8.29272E-004	10	..........a	-327.74
	2345	0.4692	-1.55909E-001	4.07603E-004	0.00000E+000	-1.55000E-001	-9.29272E-004	10	..........a	-327.74
	2352	0.4706	-1.49009E-001	4.04094E-004	0.00000E+000	-1.48000E-001	-8.29272E-004	10	..........a	-327.74
	2359	0.472	-1.42059E-001	3.94068E-004	0.00000E+000	-1.41000E-001	-6.29272E-004	10	..........a	-327.74
	2366	0.4734	-1.34859E-001	3.87050E-004	0.00000E+000	-1.34000E-001	-9.29272E-004	10	..........a	-327.74
	2373	0.4748	-1.28009E-001	3.85045E-004	0.00000E+000	-1.27000E-001	-1.12927E-003	10	..........a	-327.74
	2380	0.4762	-1.20959E-001	3.84543E-004	0.00000E+000	-1.20000E-001	-1.02927E-003	10	..........a	-327.74
	2387	0.4776	-1.13809E-001	3.79029E-004	0.00000E+000	-1.13000E-001	-6.29272E-004	10	..........a	-327.74
	2394	0.479	-1.06959E-001	3.71008E-004	0.00000E+000	-1.06000E-001	-9.29272E-004	10	..........a	-327.74
	2401	0.4804	-9.99590E-002	3.68502E-004	0.00000E+000	-9.90000E-002	-9.29272E-004	10	..........a	-327.74
	2408	0.4818	-9.30090E-002	3.67499E-004	0.00000E+000	-9.20000E-002	-9.29272E-004	10	..........a	-327.74
	2415	0.4832	-8.61590E-002	3.60982E-004	0.00000E+000	-8.50000E-002	-9.29272E-004	10	..........a	-327.74
	2422	0.4846	-7.91090E-002	3.54967E-004	0.00000E+000	-7.80000E-002	-7.29272E-004	10	..........a	-327.74
	2429	0.486	-7.21090E-002	3.53463E-004	0.00000E+000	-7.10000E-002	-9.29272E-004	10	..........a	-327.74
	2436	0.4874	-6.50590E-002	3.50455E-004	0.00000E+000	-6.40000E-002	-9.29272E-004	10	..........a	-327.74
	2443	0.4888	-5.79090E-002	3.46445E-004	0.00000E+000	-5.70000E-002	-8.29272E-004	10	..........a	-327.74
	2450	0.4902	-5.11090E-002	3.46946E-004	0.00000E+000	-5.00000E-002	-8.29272E-004	10	..........a	-327.74
	2457	0.4916	-4.41090E-002	3.42936E-004	0.00000E+000	-4.30000E-002	-1.02927E-003	10	..........a	-327.74
	2464	0.493	-3.69090E-002	3.35917E-004	0.00000E+000	-3.60000E-002	-9.29272E-004	10	..........a	-327.74
	2471	0.4944	-3.01590E-002	3.32910E-004	0.00000E+000	-2.90000E-002	-6.29272E-004	10	..........a	-327.74
	2478	0.4958	-2.31090E-002	3.34414E-004	0.00000E+000	-2.20000E-002	-1.12927E-003	10	..........a	-327.74
	2485	0.4972	-1.62090E-002	3.31907E-004	0.00000E+000	-1.50000E-002	-1.02927E-003	10	..........a	-327.74
	2492	0.4986	-8.90900E-003	3.29902E-004	0.00000E+000	-8.00000E-003	-8.29272E-004	10	..........a	-327.74
	2499	0.5	-1.95900E-003	3.25390E-004	0.00000E+000	-1.00000E-003	-1.02927E-003	10	..........a	-327.74
	2506	0.5014	4.89100E-003	3.23886E-004	0.00000E+000	5.99998E-003	-1.02927E-003	10	..........a	-327.74
	2513	0.5028	1.18910E-002	3.21380E-004	0.00000E+000	1.30000E-002	-1.02927E-003	10	..........a	-327.74
	2520	0.5042	1.90910E-002	3.16868E-004	0.00000E+000	2.00000E-002	-9.29272E-004	10	..........a	-327.74
	2527	0.5056	2.61910E-002	3.15866E-004	0.00000E+000	2.70000E-002	-1.02927E-003	10	..........a	-327.74
	2534	0.507	3.28410E-002	3.11855E-004	0.00000E+000	3.40000E-002	-8.29272E-004	10	..........a	-327.74
	2541	0.5084	3.99910E-002	3.06842E-004	0.00000E+000	4.10000E-002	-9.29272E-004	10	..........a	-327.74
	2548	0.5098	4.70410E-002	3.06842E-004	0.00000E+000	4.80000E-002	-9.29272E-004	10	..........a	-327.74
	2555	0.5112	5.38910E-002	3.01328E-004	0.00000E+000	5.50000E-002	-9.29272E-004	10	..........a	-327.74
	2562	0.5126	6.08410E-002	3.00827E-004	0.00000E+000	6.20000E-002	-1.02927E-003	10	..........a	-327.74
	2569	0.514	6.79910E-002	3.00325E-004	0.00000E+000	6.90000E-002	-1.12927E-003	10	..........a	-327.74
	2576	0.5154	7.50910E-002	2.96315E-004	0.00000E+000	7.60000E-002	-9.29272E-004	10	..........a	-327.74
	2583	0.5168	8.20910E-002	2.92305E-004	0.00000E+000	8.30000E-002	-9.29272E-004	10	..........a	-327.74
	2590	0.5182	8.88910E-002	2.90299E-004	0.00000E+000	9.00000E-002	-1.02927E-003	10	..........a	-327.74
	2597	0.5196	9.59910E-002	2.90801E-004	0.00000E+000	9.70000E-002	-9.29272E-004	10	..........a	-327.74
	2604	0.521	1.02941E-001	2.86289E-004	0.00000E+000	1.04000E-001	-1.12927E-003	10	..........a	-327.74
	2611	0.5224	1.09841E-001	2.84284E-004	0.00000E+000	1.11000E-001	-6.29272E-004	10	..........a	-327.74
	2618	0.5238	1.16841E-001	2.78268E-004	0.00000E+000	1.18000E-001	-1.02927E-003	10	..........a	-327.74
	2625	0.5252	1.23991E-001	2.76263E-004	0.00000E+000	1.25000E-001	-9.29272E-004	10	..........a	-327.74
	2632	0.5266	1.30991E-001	2.78770E-004	0.00000E+000	1.32000E-001	-9.29272E-004	10	..........a	-327.74
	2639	0.528	1.37791E-001	2.75261E-004	0.00000E+000	1.39000E-001	-9.29272E-004	10	..........a	-327.74
	2646	0.5294	1.44741E-001	2.72754E-004	0.00000E+000	1.46000E-001	-1.12927E-003	10	..........a	-327.74
	2653	0.5308	1.51991E-001	2.71751E-004	0.00000E+000	1.53000E-001	-9.29272E-004	10	..........a	-327.74
	2660	0.5322	1.58991E-001	2.70248E-004	0.00000E+000	1.60000E-001	-8.29272E-004	10	..........a	-327.74
	2667	0.5336	1.65841E-001	2.66237E-004	0.00000E+000	1.67000E-001	-1.02927E-003	10	..........a	-327.74
	2674	0.535	1.72891E-001	2.58718E-004	0.00000E+000	1.74000E-001	-1.02927E-003	10	..........a	-327.74
	2681	0.5364	1.79991E-001	2.63229E-004	0.00000E+000	1.81000E-001	-6.29272E-004	10	..........a	-327.74
	2688	0.5378	1.86891E-001	2.58216E-004	0.00000E+000	1.88000E-001	-6.29272E-004	10	..........a	-327.74
	2695	0.5392	1.93941E-001	2.59219E-004	0.00000E+000	1.95000E-001	-8.29272E-004	10	..........a	-327.74
	2702	0.5406	2.00841E-001	2.57214E-004	0.00000E+000	2.02000E-001	-1.02927E-003	10	..........a	-327.74
	2709	0.542	2.07841E-001	2.56211E-004	0.00000E+000	2.09000E-001	-6.29272E-004	10	..........a	-327.74
	2716	0.5434	2.14791E-001	2.51700E-004	0.00000E+000	2.16000E-001	-9.29272E-004	10	..........a	-327.74
	2723	0.5448	2.22041E-001	2.46687E-004	0.00000E+000	2.23000E-001	-9.29272E-004	10	..........a	-327.74
	2730	0.5462	2.28841E-001	2.50196E-004	0.00000E+000	2.30000E-001	-9.29272E-004	10	..........a	-327.74
	2737	0.5476	2.35941E-001	2.46687E-004	0.00000E+000	2.37000E-001	-1.02927E-003	10	..........a	-327.74
	2744	0.549	2.42891E-001	2.42175E-004	0.00000E+000	2.44000E-001	-8.29272E-004	10	..........a	-327.74
	2751	0.5504	2.50191E-001	2.41674E-004	0.00000E+000	2.51000E-001	-2.29272E-004	10	..........a	-327.74
	2758	0.5518	2.56841E-001	2.37162E-004	0.00000E+000	2.58000E-001	-9.29272E-004	10	..........a	-327.74
	2765	0.5532	2.63891E-001	2.36159E-004	0.00000E+000	2.65000E-001	-1.12927E-003	10	..........a	-327.74
	2772	0.5546	2.71091E-001	2.38165E-004	0.00000E+000	2.72000E-001	-9.29272E-004	10	..........a	-327.74
	2779	0.556	2.77841E-001	2.30144E-004	0.00000E+000	2.79000E-001	-1.02927E-003	10	..........a	-327.74
	2786	0.5574	2.84791E-001	2.33653E-004	0.00000E+000	2.86000E-001	-9.29272E-004	10	..........a	-327.74
	2793	0.5588	2.91791E-001	2.28139E-004	0.00000E+000	2.93000E-001	-9.29272E-004	10	..........a	-327.74
	2800	0.5602	2.98941E-001	2.26635E-004	0.00000E+000	3.00000E-001	-9.29272E-004	10	..........a	-327.74
	2807	0.5616	3.05941E-001	2.31146E-004	0.00000E+000	3.07000E-001	-8.29272E-004	10	..........a	-327.74
	2814	0.563	3.12841E-001	2.26635E-004	0.00000E+000	3.14000E-001	-1.12927E-003	10	..........a	-327.74
	2821	0.5644	3.19691E-001	2.24630E-004	0.00000E+000	3.21000E-001	-1.32927E-003	10	..........a	-327.74
	2828	0.5658	3.26841E-001	2.24630E-004	0.00000E+000	3.28000E-001	-1.12927E-003	10	..........a	-327.74
	2835	0.5672	3.33891E-001	2.24630E-004	0.00000E+000	3.35000E-001	-9.29272E-004	10	..........a	-327.74
	2842	0.5686	3.40791E-001	2.24630E-004	0.00000E+000	3.42000E-001	-9.29272E-004	10	..........a	-327.74
	2849	0.57	3.47991E-001	2.21120E-004	0.00000E+000	3.49000E-001	-9.29272E-004	10	..........a	-327.74
	2856	0.5714	3.55091E-001	2.19115E-004	0.00000E+000	3.56000E-001	-6.29272E-004	10	..........a	-327.74
	2863	0.5728	3.61791E-001	2.19617E-004	0.00000E+000	3.63000E-001	-9.29272E-004	10	..........a	-327.74
	2870	0.5742	3.68791E-001	2.16609E-004	0.00000E+000	3.70000E-001	-6.29272E-004	10	..........a	-327.74
	2877	0.5756	3.75991E-001	2.10593E-004	0.00000E+000	3.77000E-001	-9.29272E-004	10	..........a	-327.74
	2884	0.577	3.82991E-001	2.14604E-004	0.00000E+000	3.84000E-001	-6.29272E-004	10	..........a	-327.74
	2891	0.5784	3.89791E-001	2.10593E-004	0.00000E+000	3.91000E-001	-6.29272E-004	10	..........a	-327.74
	2898	0.5798	3.96691E-001	2.09089E-004	0.00000E+000	3.98000E-001	-1.12927E-003	10	..........a	-327.74
	2905	0.5812	4.03991E-001	2.11596E-004	0.00000E+000	4.05000E-001	-9.29272E-004	10	..........a	-327.74
	2912	0.5826	4.10791E-001	2.09591E-004	0.00000E+000	4.12000E-001	-1.12927E-003	10	..........a	-327.74
	2919	0.584	4.17841E-001	2.05580E-004	0.00000E+000	4.19000E-001	-9.29272E-004	10	..........a	-327.74
	2926	0.5854	4.24891E-001	2.06583E-004	0.00000E+000	4.26000E-001	-9.29272E-004	10	..........a	-327.74
	2933	0.5868	4.31791E-001	2.05580E-004	0.00000E+000	4.33000E-001	-9.29272E-004	10	..........a	-327.74
	2940	0.5882	4.38891E-001	2.00567E-004	0.00000E+000	4.40000E-001	-9.29272E-004	10	..........a	-327.74
	2947	0.5896	4.45741E-001	1.99063E-004	0.00000E+000	4.47000E-001	-8.29272E-004	10	..........a	-327.74
	2954	0.591	4.52841E-001	2.02572E-004	0.00000E+000	4.54000E-001	-9.29272E-004	10	..........a	-327.74
	2961	0.5924	4.59791E-001	1.99565E-004	0.00000E+000	4.61000E-001	-6.29272E-004	10	..........a	-327.74
	2968	0.5938	4.66691E-001	2.01069E-004	0.00000E+000	4.68000E-001	-1.02927E-003	10	..........a	-327.74
	2975	0.5952	4.73641E-001	1.99565E-004	0.00000E+000	4.75000E-001	-8.29272E-004	10	..........a	-327.74
	2982	0.5966	4.80691E-001	1.96056E-004	0.00000E+000	4.82000E-001	-8.29272E-004	10	..........a	-327.74
	2989	0.598	4.87791E-001	1.95554E-004	0.00000E+000	4.89000E-001	-1.02927E-003	10	..........a	-327.74
	2996	0.5994	4.94741E-001	1.99063E-004	0.00000E+000	4.96000E-001	-9.29272E-004	10	..........a	-327.74
	3000	0.6002	4.98741E-001	1.96557E-004	0.00000E+000	5.00000E-001	-1.12927E-003	10	..........a	-327.74
CURVE2	TABLE
	Pt	T	Vf	Im	Vu	Sig	Ach	IERange	Over	Temp
	#	s	V vs. Ref.	A	V	V	V	#	bits	deg C
	3001	0.6004	4.98641E-001	1.86030E-004	0.00000E+000	5.00000E-001	-9.29272E-004	10	..........a	-327.74