File: data/02-SI/Figures_S9_S11_RDE/18btmapaq-rde/1mkcl-18btmapaq-nitrogen-100mvpers.DTA
EXPLAIN
TAG	CV
TITLE	LABEL	Cyclic Voltammetry	Test &Identifier
DATE	LABEL	1/31/2023	Date
TIME	LABEL	15:19:32	Time
NOTES	NOTES	1	&Notes...

PSTAT	PSTAT	REF3000-21108	Potentiostat
VINIT	POTEN	5.00000E-001	F	Initial &E (V)
VLIMIT1	POTEN	-1.00000E+000	F	Scan Limit &1 (V)
VLIMIT2	POTEN	5.00000E-001	F	Scan Limit &2 (V)
VFINAL	POTEN	5.00000E-001	F	Final &E (V)
SCANRATE	QUANT	9.99998E+001	&Scan Rate (mV/s)
STEPSIZE	QUANT	1.00000E+000	St&ep Size (mV)
CYCLES	IQUANT	1	C&ycles (#)
IMODE	SELECTOR	1	I/E Range &Mode
IRANGE	QUANT	1.00000E+001	&Max Current (mA)
AREA	QUANT	1.00000E+000	Electrode &Area (cm^2)
ELECTRODETYPE	SELECTOR	0	Electrode Type
STRIPPING	TOGGLE	F	Used for Stripping
POLARITY	TOGGLE	F	Signal Polarity
CONDIT	TWOPARAM	F	1.50000E+001	0.00000E+000	Conditionin&g	Time(s)	E(V)
DELAY	TWOPARAM	F	5.00000E+000	0.00000E+000	Init. De&lay	Time(s)	Stab.(mV/s)
EQDELAY	QUANT	0.00000E+000	Equil. &Time (s)
IRCOMP	SELECTOR	0	IRCom&p
PFCOR	QUANT	5.00000E+001	PF Corr. (ohm)
SAMPLINGMODE	SELECTOR	1	Sampling &Mode
EOC	QUANT	0	Open Circuit (V)
PSTATMODEL	IQUANT	5	Pstat Model
PSTATSECTION	LABEL	REF3000-21108	Pstat Section
PSTATSERIALNO	LABEL	21108	Pstat Serial Number
CTRLMODE	IQUANT	1	Control Mode
ELECTROMETER	IQUANT	0	RE=0 or CS=1
IESTAB	IQUANT	2	I/E Stability
CASPEED	IQUANT	4	Control Amp Speed
CONVENTION	IQUANT	1	Current Convention
ICHRANGE	IQUANT	2	Ich Range
ICHRANGEMODE	TOGGLE	F	Ich Auto Range
ICHOFFSETENABLE	TOGGLE	F	Ich Offset Enable
ICHOFFSET	QUANT	0	Ich Offset (V)
ICHFILTER	IQUANT	2	Ich Filter
VCHRANGE	IQUANT	2	Vch Range
VCHRANGEMODE	TOGGLE	F	Vch Auto Range
VCHOFFSETENABLE	TOGGLE	F	Vch Offset Enable
VCHOFFSET	QUANT	0	Vch Offset (V)
VCHFILTER	IQUANT	2	Vch Filter
ACHRANGE	IQUANT	2	Ach Range
ACHOFFSETENABLE	TOGGLE	F	Ach Offset Enable
ACHOFFSET	QUANT	0	Ach Offset (V)
ACHFILTER	IQUANT	0	Ach Filter
IERANGELOWERLIMIT	IQUANT	2	I/E Range Lower Limit
IERANGEMODE	TOGGLE	F	I/E AutoRange
IERANGE	IQUANT	10	I/E Range
POSFEEDENABLE	TOGGLE	F	Positive Feedback IR Comp
POSFEEDRESISTANCE	QUANT	0	Positive Feedback Resistance (ohm)
ACHSELECT	IQUANT	0	Ach Select
SENSECABLEID	IQUANT	14	Sense Cable ID
PWRCABLEID	IQUANT	7	Power Cable ID
DCCALDATE	LABEL	11/9/2022	DC Calibration Date
ACCALDATE	LABEL	11/9/2022	AC Calibration Date
THERMOSELECT	IQUANT	1	Thermo Select
FRAMEWORKVERSION	LABEL	7.8.2	Framework Version
INSTRUMENTVERSION	LABEL	4.40	Instrument Version
COMPLIANCEVOLTAGE	IQUANT	0	Compliance Voltage
CURVE1	TABLE
	Pt	T	Vf	Im	Vu	Sig	Ach	IERange	Over	Temp
	#	s	V vs. Ref.	A	V	V	V	#	bits	deg C
	0	0.01	4.98806E-001	3.31288E-006	0.00000E+000	5.00000E-001	-7.67605E-004	10	..........a	-327.74
	7	0.08	4.91817E-001	1.35782E-006	0.00000E+000	4.93000E-001	-7.84272E-004	10	..........a	-327.74
	14	0.15	4.84819E-001	5.22326E-007	0.00000E+000	4.86000E-001	-7.35939E-004	10	..........a	-327.74
	21	0.22	4.77888E-001	4.31940E-009	0.00000E+000	4.79000E-001	-7.57606E-004	10	..........a	-327.74
	28	0.29	4.70814E-001	-8.75851E-008	0.00000E+000	4.72000E-001	-7.54272E-004	10	..........a	-327.74
	35	0.36	4.63833E-001	-3.54943E-007	0.00000E+000	4.65000E-001	-7.75939E-004	10	..........a	-327.74
	42	0.43	4.56884E-001	-5.80527E-007	0.00000E+000	4.58000E-001	-7.49272E-004	10	..........a	-327.74
	49	0.5	4.49806E-001	-5.63817E-007	0.00000E+000	4.51000E-001	-7.84272E-004	10	..........a	-327.74
	56	0.57	4.42811E-001	-5.72172E-007	0.00000E+000	4.44000E-001	-7.59272E-004	10	..........a	-327.74
	63	0.64	4.35824E-001	-5.55462E-007	0.00000E+000	4.37000E-001	-7.84272E-004	10	..........a	-327.74
	70	0.71	4.28811E-001	-5.22042E-007	0.00000E+000	4.30000E-001	-7.74272E-004	10	..........a	-327.74
	77	0.78	4.21849E-001	-4.96978E-007	0.00000E+000	4.23000E-001	-7.44272E-004	10	..........a	-327.74
	84	0.85	4.14824E-001	-7.22561E-007	0.00000E+000	4.16000E-001	-7.74272E-004	10	..........a	-327.74
	91	0.92	4.07829E-001	-8.81305E-007	0.00000E+000	4.09000E-001	-7.60939E-004	10	..........a	-327.74
	98	0.99	4.00922E-001	-8.47885E-007	0.00000E+000	4.02000E-001	-7.67605E-004	10	..........a	-327.74
	105	1.06	3.93835E-001	-9.98275E-007	0.00000E+000	3.95000E-001	-7.30939E-004	10	..........a	-327.74
	112	1.13	3.86804E-001	-9.98275E-007	0.00000E+000	3.88000E-001	-7.24272E-004	10	..........a	-327.74
	119	1.2	3.79843E-001	-1.04005E-006	0.00000E+000	3.81000E-001	-7.35939E-004	10	..........a	-327.74
	126	1.27	3.72825E-001	-1.18208E-006	0.00000E+000	3.74000E-001	-7.69272E-004	10	..........a	-327.74
	133	1.34	3.65877E-001	-1.46615E-006	0.00000E+000	3.67000E-001	-7.57606E-004	10	..........a	-327.74
	140	1.41	3.58821E-001	-1.18208E-006	0.00000E+000	3.60000E-001	-7.50939E-004	10	..........a	-327.74
	147	1.48	3.51799E-001	-1.52464E-006	0.00000E+000	3.53000E-001	-7.35939E-004	10	..........a	-327.74
	154	1.55	3.44887E-001	-1.70009E-006	0.00000E+000	3.46000E-001	-7.37606E-004	10	..........a	-327.74
	161	1.62	3.37870E-001	-1.57477E-006	0.00000E+000	3.39000E-001	-7.37606E-004	10	..........a	-327.74
	168	1.69	3.30878E-001	-1.44944E-006	0.00000E+000	3.32000E-001	-7.37606E-004	10	..........a	-327.74
	175	1.76	3.23777E-001	-1.83377E-006	0.00000E+000	3.25000E-001	-7.85939E-004	10	..........a	-327.74
	182	1.83	3.16874E-001	-1.80035E-006	0.00000E+000	3.18000E-001	-7.00939E-004	10	..........a	-327.74
	189	1.9	3.09909E-001	-1.54135E-006	0.00000E+000	3.11000E-001	-6.95939E-004	10	..........a	-327.74
	196	1.97	3.02873E-001	-1.56641E-006	0.00000E+000	3.04000E-001	-7.40939E-004	10	..........a	-327.74
	203	2.04	2.95789E-001	-1.72516E-006	0.00000E+000	2.97000E-001	-7.65939E-004	10	..........a	-327.74
	210	2.11	2.88931E-001	-1.75857E-006	0.00000E+000	2.90000E-001	-7.27605E-004	10	..........a	-327.74
	217	2.18	2.81885E-001	-1.70845E-006	0.00000E+000	2.83000E-001	-7.65939E-004	10	..........a	-327.74
	224	2.25	2.74886E-001	-1.75022E-006	0.00000E+000	2.76000E-001	-7.29272E-004	10	..........a	-327.74
	231	2.32	2.67918E-001	-1.98416E-006	0.00000E+000	2.69000E-001	-7.37606E-004	10	..........a	-327.74
	238	2.39	2.60889E-001	-1.96745E-006	0.00000E+000	2.62000E-001	-7.67605E-004	10	..........a	-327.74
	245	2.46	2.53932E-001	-2.10948E-006	0.00000E+000	2.55000E-001	-7.44272E-004	10	..........a	-327.74
	252	2.53	2.46890E-001	-2.13455E-006	0.00000E+000	2.48000E-001	-7.52606E-004	10	..........a	-327.74
	259	2.6	2.39866E-001	-2.02593E-006	0.00000E+000	2.41000E-001	-7.20939E-004	10	..........a	-327.74
	266	2.67	2.32986E-001	-2.08442E-006	0.00000E+000	2.34000E-001	-7.25939E-004	10	..........a	-327.74
	273	2.74	2.25882E-001	-2.00922E-006	0.00000E+000	2.27000E-001	-7.40939E-004	10	..........a	-327.74
	280	2.81	2.18874E-001	-1.92567E-006	0.00000E+000	2.20000E-001	-7.25939E-004	10	..........a	-327.74
	287	2.88	2.11890E-001	-2.01758E-006	0.00000E+000	2.13000E-001	-7.12606E-004	10	..........a	-327.74
	294	2.95	2.04934E-001	-1.81706E-006	0.00000E+000	2.06000E-001	-7.45939E-004	10	..........a	-327.74
	301	3.02	1.97949E-001	-1.98416E-006	0.00000E+000	1.99000E-001	-7.12606E-004	10	..........a	-327.74
	308	3.09	1.90933E-001	-2.10948E-006	0.00000E+000	1.92000E-001	-7.10939E-004	10	..........a	-327.74
	315	3.16	1.83940E-001	-1.93403E-006	0.00000E+000	1.85000E-001	-7.57606E-004	10	..........a	-327.74
	322	3.23	1.77027E-001	-1.90061E-006	0.00000E+000	1.78000E-001	-7.57606E-004	10	..........a	-327.74
	329	3.3	1.69914E-001	-2.37684E-006	0.00000E+000	1.71000E-001	-7.30939E-004	10	..........a	-327.74
	336	3.37	1.62933E-001	-2.14290E-006	0.00000E+000	1.64000E-001	-7.45939E-004	10	..........a	-327.74
	343	3.44	1.55954E-001	-2.38520E-006	0.00000E+000	1.57000E-001	-7.44272E-004	10	..........a	-327.74
	350	3.51	1.48949E-001	-2.36013E-006	0.00000E+000	1.50000E-001	-7.62605E-004	10	..........a	-327.74
	357	3.58	1.41949E-001	-2.35178E-006	0.00000E+000	1.43000E-001	-7.30939E-004	10	..........a	-327.74
	364	3.65	1.34933E-001	-2.15126E-006	0.00000E+000	1.36000E-001	-7.50939E-004	10	..........a	-327.74
	371	3.72	1.27975E-001	-2.17632E-006	0.00000E+000	1.29000E-001	-7.24272E-004	10	..........a	-327.74
	378	3.79	1.21054E-001	-2.43533E-006	0.00000E+000	1.22000E-001	-7.30939E-004	10	..........a	-327.74
	385	3.86	1.13964E-001	-2.20139E-006	0.00000E+000	1.15000E-001	-6.95939E-004	10	..........a	-327.74
	392	3.93	1.06943E-001	-2.15126E-006	0.00000E+000	1.08000E-001	-7.47606E-004	10	..........a	-327.74
	399	4	9.99952E-002	-2.12619E-006	0.00000E+000	1.01000E-001	-6.99272E-004	10	..........a	-327.74
	406	4.07	9.29452E-002	-2.31836E-006	0.00000E+000	9.40000E-002	-7.19272E-004	10	..........a	-327.74
	413	4.14	8.59927E-002	-2.01758E-006	0.00000E+000	8.70000E-002	-7.45939E-004	10	..........a	-327.74
	420	4.21	7.89386E-002	-2.08442E-006	0.00000E+000	8.00000E-002	-7.44272E-004	10	..........a	-327.74
	427	4.28	7.19752E-002	-1.76693E-006	0.00000E+000	7.30000E-002	-7.45939E-004	10	..........a	-327.74
	434	4.35	6.50852E-002	-1.85883E-006	0.00000E+000	6.60000E-002	-7.20939E-004	10	..........a	-327.74
	441	4.42	5.79694E-002	-1.90896E-006	0.00000E+000	5.90000E-002	-7.02605E-004	10	..........a	-327.74
	448	4.49	5.09427E-002	-2.06771E-006	0.00000E+000	5.20000E-002	-7.14272E-004	10	..........a	-327.74
	455	4.56	4.40427E-002	-1.99251E-006	0.00000E+000	4.50000E-002	-7.40939E-004	10	..........a	-327.74
	462	4.63	3.70069E-002	-1.74187E-006	0.00000E+000	3.80000E-002	-7.19272E-004	10	..........a	-327.74
	469	4.7	3.00036E-002	-1.90896E-006	0.00000E+000	3.10000E-002	-7.35939E-004	10	..........a	-327.74
	476	4.77	2.29786E-002	-2.04264E-006	0.00000E+000	2.40000E-002	-7.39272E-004	10	..........a	-327.74
	483	4.84	1.59302E-002	-2.06771E-006	0.00000E+000	1.70000E-002	-7.34272E-004	10	..........a	-327.74
	490	4.91	9.05023E-003	-1.85883E-006	0.00000E+000	9.99999E-003	-7.27605E-004	10	..........a	-327.74
	497	4.98	1.99190E-003	-1.80035E-006	0.00000E+000	2.99999E-003	-7.80939E-004	10	..........a	-327.74
	504	5.05	-5.04560E-003	-1.77528E-006	0.00000E+000	-4.00001E-003	-7.72606E-004	10	..........a	-327.74
	511	5.12	-1.19481E-002	-2.04264E-006	0.00000E+000	-1.10000E-002	-7.20939E-004	10	..........a	-327.74
	518	5.19	-1.89914E-002	-2.12619E-006	0.00000E+000	-1.80000E-002	-7.42605E-004	10	..........a	-327.74
	525	5.26	-2.59606E-002	-2.15126E-006	0.00000E+000	-2.50000E-002	-7.15939E-004	10	..........a	-327.74
	532	5.33	-3.30131E-002	-1.96745E-006	0.00000E+000	-3.20000E-002	-7.27605E-004	10	..........a	-327.74
	539	5.4	-3.99831E-002	-2.08442E-006	0.00000E+000	-3.90000E-002	-7.29272E-004	10	..........a	-327.74
	546	5.47	-4.69264E-002	-1.87554E-006	0.00000E+000	-4.60000E-002	-6.70939E-004	10	..........a	-327.74
	553	5.54	-5.39606E-002	-1.93403E-006	0.00000E+000	-5.30000E-002	-7.44272E-004	10	..........a	-327.74
	560	5.61	-6.10589E-002	-1.95074E-006	0.00000E+000	-6.00000E-002	-7.32606E-004	10	..........a	-327.74
	567	5.68	-6.79506E-002	-1.88390E-006	0.00000E+000	-6.70000E-002	-7.44272E-004	10	..........a	-327.74
	574	5.75	-7.49814E-002	-1.96745E-006	0.00000E+000	-7.40000E-002	-7.64272E-004	10	..........a	-327.74
	581	5.82	-8.19589E-002	-2.13455E-006	0.00000E+000	-8.10000E-002	-7.15939E-004	10	..........a	-327.74
	588	5.89	-8.90564E-002	-2.29329E-006	0.00000E+000	-8.80000E-002	-7.55939E-004	10	..........a	-327.74
	595	5.96	-9.59706E-002	-2.25987E-006	0.00000E+000	-9.50000E-002	-7.14272E-004	10	..........a	-327.74
	602	6.03	-1.02898E-001	-2.20974E-006	0.00000E+000	-1.02000E-001	-7.40939E-004	10	..........a	-327.74
	609	6.1	-1.09979E-001	-2.17632E-006	0.00000E+000	-1.09000E-001	-7.25939E-004	10	..........a	-327.74
	616	6.17	-1.16997E-001	-2.26823E-006	0.00000E+000	-1.16000E-001	-7.24272E-004	10	..........a	-327.74
	623	6.24	-1.23931E-001	-2.54394E-006	0.00000E+000	-1.23000E-001	-6.97606E-004	10	..........a	-327.74
	630	6.31	-1.30968E-001	-2.23481E-006	0.00000E+000	-1.30000E-001	-7.19272E-004	10	..........a	-327.74
	637	6.38	-1.37953E-001	-2.43533E-006	0.00000E+000	-1.37000E-001	-7.49272E-004	10	..........a	-327.74
	644	6.45	-1.44982E-001	-2.41026E-006	0.00000E+000	-1.44000E-001	-7.10939E-004	10	..........a	-327.74
	651	6.52	-1.51963E-001	-2.60242E-006	0.00000E+000	-1.51000E-001	-7.05939E-004	10	..........a	-327.74
	658	6.59	-1.58906E-001	-2.77788E-006	0.00000E+000	-1.58000E-001	-7.50939E-004	10	..........a	-327.74
	665	6.66	-1.65978E-001	-3.09537E-006	0.00000E+000	-1.65000E-001	-6.99272E-004	10	..........a	-327.74
	672	6.73	-1.72984E-001	-3.12879E-006	0.00000E+000	-1.72000E-001	-7.00939E-004	10	..........a	-327.74
	679	6.8	-1.79866E-001	-3.37944E-006	0.00000E+000	-1.79000E-001	-7.09272E-004	10	..........a	-327.74
	686	6.87	-1.86992E-001	-3.57995E-006	0.00000E+000	-1.86000E-001	-7.15939E-004	10	..........a	-327.74
	693	6.94	-1.93931E-001	-3.78883E-006	0.00000E+000	-1.93000E-001	-7.12606E-004	10	..........a	-327.74
	700	7.01	-2.01002E-001	-4.06454E-006	0.00000E+000	-2.00000E-001	-7.44272E-004	10	..........a	-327.74
	707	7.08	-2.07935E-001	-4.24835E-006	0.00000E+000	-2.07000E-001	-7.09272E-004	10	..........a	-327.74
	714	7.15	-2.14911E-001	-4.34025E-006	0.00000E+000	-2.14000E-001	-6.99272E-004	10	..........a	-327.74
	721	7.22	-2.21928E-001	-4.59926E-006	0.00000E+000	-2.21000E-001	-6.85939E-004	10	..........a	-327.74
	728	7.29	-2.28978E-001	-4.74965E-006	0.00000E+000	-2.28000E-001	-7.24272E-004	10	..........a	-327.74
	735	7.36	-2.35861E-001	-5.15904E-006	0.00000E+000	-2.35000E-001	-6.85939E-004	10	..........a	-327.74
	742	7.43	-2.42923E-001	-5.60185E-006	0.00000E+000	-2.42000E-001	-7.02605E-004	10	..........a	-327.74
	749	7.5	-2.49890E-001	-6.13657E-006	0.00000E+000	-2.49000E-001	-7.09272E-004	10	..........a	-327.74
	756	7.57	-2.56848E-001	-6.93864E-006	0.00000E+000	-2.56000E-001	-6.95939E-004	10	..........a	-327.74
	763	7.64	-2.63920E-001	-7.33968E-006	0.00000E+000	-2.63000E-001	-6.82606E-004	10	..........a	-327.74
	770	7.71	-2.70886E-001	-8.15847E-006	0.00000E+000	-2.70000E-001	-6.82606E-004	10	..........a	-327.74
	777	7.78	-2.77901E-001	-8.87699E-006	0.00000E+000	-2.77000E-001	-7.22606E-004	10	..........a	-327.74
	784	7.85	-2.84911E-001	-9.65400E-006	0.00000E+000	-2.84000E-001	-6.92606E-004	10	..........a	-327.74
	791	7.92	-2.91788E-001	-9.81275E-006	0.00000E+000	-2.91000E-001	-7.34272E-004	10	..........a	-327.74
	798	7.99	-2.98890E-001	-1.04811E-005	0.00000E+000	-2.98000E-001	-7.44272E-004	10	..........a	-327.74
	805	8.06	-3.05921E-001	-1.11412E-005	0.00000E+000	-3.05000E-001	-7.62605E-004	10	..........a	-327.74
	812	8.13	-3.12914E-001	-1.14754E-005	0.00000E+000	-3.12000E-001	-7.45939E-004	10	..........a	-327.74
	819	8.2	-3.19876E-001	-1.20185E-005	0.00000E+000	-3.19000E-001	-7.32606E-004	10	..........a	-327.74
	826	8.27	-3.26877E-001	-1.23527E-005	0.00000E+000	-3.26000E-001	-7.57606E-004	10	..........a	-327.74
	833	8.34	-3.33908E-001	-1.28289E-005	0.00000E+000	-3.33000E-001	-7.14272E-004	10	..........a	-327.74
	840	8.41	-3.40920E-001	-1.29375E-005	0.00000E+000	-3.40000E-001	-7.72606E-004	10	..........a	-327.74
	847	8.48	-3.47840E-001	-1.35056E-005	0.00000E+000	-3.47000E-001	-7.22606E-004	10	..........a	-327.74
	854	8.55	-3.54886E-001	-1.37062E-005	0.00000E+000	-3.54000E-001	-7.40939E-004	10	..........a	-327.74
	861	8.62	-3.61862E-001	-1.39234E-005	0.00000E+000	-3.61000E-001	-7.49272E-004	10	..........a	-327.74
	868	8.69	-3.68755E-001	-1.41824E-005	0.00000E+000	-3.68000E-001	-7.09272E-004	10	..........a	-327.74
	875	8.76	-3.75878E-001	-1.43913E-005	0.00000E+000	-3.75000E-001	-7.37606E-004	10	..........a	-327.74
	882	8.83	-3.82831E-001	-1.45500E-005	0.00000E+000	-3.82000E-001	-7.44272E-004	10	..........a	-327.74
	889	8.9	-3.89824E-001	-1.44748E-005	0.00000E+000	-3.89000E-001	-7.24272E-004	10	..........a	-327.74
	896	8.97	-3.96831E-001	-1.46001E-005	0.00000E+000	-3.96000E-001	-7.35939E-004	10	..........a	-327.74
	903	9.04	-4.03788E-001	-1.44080E-005	0.00000E+000	-4.03000E-001	-7.47606E-004	10	..........a	-327.74
	910	9.11	-4.10842E-001	-1.46503E-005	0.00000E+000	-4.10000E-001	-7.64272E-004	10	..........a	-327.74
	917	9.18	-4.17859E-001	-1.49761E-005	0.00000E+000	-4.17000E-001	-7.47606E-004	10	..........a	-327.74
	924	9.25	-4.24805E-001	-1.52936E-005	0.00000E+000	-4.24000E-001	-7.65939E-004	10	..........a	-327.74
	931	9.32	-4.31846E-001	-1.60706E-005	0.00000E+000	-4.31000E-001	-7.54272E-004	10	..........a	-327.74
	938	9.39	-4.38816E-001	-1.72403E-005	0.00000E+000	-4.38000E-001	-7.67605E-004	10	..........a	-327.74
	945	9.46	-4.45897E-001	-1.97050E-005	0.00000E+000	-4.45000E-001	-6.87606E-004	10	..........a	-327.74
	952	9.53	-4.52841E-001	-2.36235E-005	0.00000E+000	-4.52000E-001	-7.00939E-004	10	..........a	-327.74
	959	9.6	-4.59771E-001	-2.86114E-005	0.00000E+000	-4.59000E-001	-7.50939E-004	10	..........a	-327.74
	966	9.67	-4.66826E-001	-3.56713E-005	0.00000E+000	-4.66000E-001	-7.10939E-004	10	..........a	-327.74
	973	9.74	-4.73853E-001	-4.46445E-005	0.00000E+000	-4.73000E-001	-7.49272E-004	10	..........a	-327.74
	980	9.81	-4.80852E-001	-5.67676E-005	0.00000E+000	-4.80000E-001	-7.10939E-004	10	..........a	-327.74
	987	9.88	-4.87842E-001	-7.16394E-005	0.00000E+000	-4.87000E-001	-6.87606E-004	10	..........a	-327.74
	994	9.95	-4.94794E-001	-9.01623E-005	0.00000E+000	-4.94000E-001	-7.14272E-004	10	..........a	-327.74
	1001	10.02	-5.01817E-001	-1.12863E-004	0.00000E+000	-5.01000E-001	-7.75939E-004	10	..........a	-327.74
	1008	10.09	-5.08826E-001	-1.40016E-004	0.00000E+000	-5.08000E-001	-7.50939E-004	10	..........a	-327.74
	1015	10.16	-5.15749E-001	-1.70161E-004	0.00000E+000	-5.15000E-001	-7.40939E-004	10	..........a	-327.74
	1022	10.23	-5.22819E-001	-2.02386E-004	0.00000E+000	-5.22000E-001	-7.37606E-004	10	..........a	-327.74
	1029	10.3	-5.29804E-001	-2.33759E-004	0.00000E+000	-5.29000E-001	-7.40939E-004	10	..........a	-327.74
	1036	10.37	-5.36848E-001	-2.61280E-004	0.00000E+000	-5.36000E-001	-7.32606E-004	10	..........a	-327.74
	1043	10.44	-5.43839E-001	-2.81156E-004	0.00000E+000	-5.43000E-001	-7.12606E-004	10	..........a	-327.74
	1050	10.51	-5.50786E-001	-2.90272E-004	0.00000E+000	-5.50000E-001	-6.92606E-004	10	..........a	-327.74
	1057	10.58	-5.57806E-001	-2.88500E-004	0.00000E+000	-5.57000E-001	-7.59272E-004	10	..........a	-327.74
	1064	10.65	-5.64803E-001	-2.77505E-004	0.00000E+000	-5.64000E-001	-7.30939E-004	10	..........a	-327.74
	1071	10.72	-5.71841E-001	-2.61790E-004	0.00000E+000	-5.71000E-001	-6.90939E-004	10	..........a	-327.74
	1078	10.79	-5.78795E-001	-2.45180E-004	0.00000E+000	-5.78000E-001	-6.94272E-004	10	..........a	-327.74
	1085	10.86	-5.85831E-001	-2.29498E-004	0.00000E+000	-5.85000E-001	-7.02605E-004	10	..........a	-327.74
	1092	10.93	-5.92724E-001	-2.16706E-004	0.00000E+000	-5.92000E-001	-6.90939E-004	10	..........a	-327.74
	1099	11	-5.99822E-001	-2.04834E-004	0.00000E+000	-5.99000E-001	-7.60939E-004	10	..........a	-327.74
	1106	11.07	-6.06765E-001	-1.94524E-004	0.00000E+000	-6.06000E-001	-7.09272E-004	10	..........a	-327.74
	1113	11.14	-6.13844E-001	-1.86704E-004	0.00000E+000	-6.13000E-001	-7.39272E-004	10	..........a	-327.74
	1120	11.21	-6.20756E-001	-1.79134E-004	0.00000E+000	-6.20000E-001	-7.44272E-004	10	..........a	-327.74
	1127	11.28	-6.27734E-001	-1.72567E-004	0.00000E+000	-6.27000E-001	-7.35939E-004	10	..........a	-327.74
	1134	11.35	-6.34754E-001	-1.67262E-004	0.00000E+000	-6.34000E-001	-7.09272E-004	10	..........a	-327.74
	1141	11.42	-6.41794E-001	-1.62525E-004	0.00000E+000	-6.41000E-001	-7.52606E-004	10	..........a	-327.74
	1148	11.49	-6.48647E-001	-1.57771E-004	0.00000E+000	-6.48000E-001	-7.30939E-004	10	..........a	-327.74
	1155	11.56	-6.55741E-001	-1.54445E-004	0.00000E+000	-6.55000E-001	-7.14272E-004	10	..........a	-327.74
	1162	11.63	-6.62742E-001	-1.50101E-004	0.00000E+000	-6.62000E-001	-6.84272E-004	10	..........a	-327.74
	1169	11.7	-6.69791E-001	-1.46817E-004	0.00000E+000	-6.69000E-001	-6.85939E-004	10	..........a	-327.74
	1176	11.77	-6.76761E-001	-1.43425E-004	0.00000E+000	-6.76000E-001	-7.29272E-004	10	..........a	-327.74
	1183	11.84	-6.83721E-001	-1.40551E-004	0.00000E+000	-6.83000E-001	-7.57606E-004	10	..........a	-327.74
	1190	11.91	-6.90744E-001	-1.38629E-004	0.00000E+000	-6.90000E-001	-7.49272E-004	10	..........a	-327.74
	1197	11.98	-6.97700E-001	-1.36315E-004	0.00000E+000	-6.97000E-001	-7.10939E-004	10	..........a	-327.74
	1204	12.05	-7.04707E-001	-1.33240E-004	0.00000E+000	-7.04000E-001	-7.25939E-004	10	..........a	-327.74
	1211	12.12	-7.11715E-001	-1.32138E-004	0.00000E+000	-7.11000E-001	-7.30939E-004	10	..........a	-327.74
	1218	12.19	-7.18708E-001	-1.29865E-004	0.00000E+000	-7.18000E-001	-7.45939E-004	10	..........a	-327.74
	1225	12.26	-7.25681E-001	-1.28202E-004	0.00000E+000	-7.25000E-001	-7.10939E-004	10	..........a	-327.74
	1232	12.33	-7.32702E-001	-1.26456E-004	0.00000E+000	-7.32000E-001	-7.27605E-004	10	..........a	-327.74
	1239	12.4	-7.39716E-001	-1.25002E-004	0.00000E+000	-7.39000E-001	-7.35939E-004	10	..........a	-327.74
	1246	12.47	-7.46753E-001	-1.23407E-004	0.00000E+000	-7.46000E-001	-7.44272E-004	10	..........a	-327.74
	1253	12.54	-7.53763E-001	-1.21702E-004	0.00000E+000	-7.53000E-001	-7.15939E-004	10	..........a	-327.74
	1260	12.61	-7.60681E-001	-1.20499E-004	0.00000E+000	-7.60000E-001	-7.02605E-004	10	..........a	-327.74
	1267	12.68	-7.67725E-001	-1.18277E-004	0.00000E+000	-7.67000E-001	-7.09272E-004	10	..........a	-327.74
	1274	12.75	-7.74736E-001	-1.16739E-004	0.00000E+000	-7.74000E-001	-6.99272E-004	10	..........a	-327.74
	1281	12.82	-7.81685E-001	-1.15645E-004	0.00000E+000	-7.81000E-001	-6.99272E-004	10	..........a	-327.74
	1288	12.89	-7.88700E-001	-1.14977E-004	0.00000E+000	-7.88000E-001	-7.35939E-004	10	..........a	-327.74
	1295	12.96	-7.95691E-001	-1.13272E-004	0.00000E+000	-7.95000E-001	-7.47606E-004	10	..........a	-327.74
	1302	13.03	-8.02661E-001	-1.11618E-004	0.00000E+000	-8.02000E-001	-7.32606E-004	10	..........a	-327.74
	1309	13.1	-8.09674E-001	-1.11133E-004	0.00000E+000	-8.09000E-001	-7.30939E-004	10	..........a	-327.74
	1316	13.17	-8.16608E-001	-1.09855E-004	0.00000E+000	-8.16000E-001	-7.45939E-004	10	..........a	-327.74
	1323	13.24	-8.23648E-001	-1.08577E-004	0.00000E+000	-8.23000E-001	-7.45939E-004	10	..........a	-327.74
	1330	13.31	-8.30718E-001	-1.07716E-004	0.00000E+000	-8.30000E-001	-7.59272E-004	10	..........a	-327.74
	1337	13.38	-8.37592E-001	-1.06713E-004	0.00000E+000	-8.37000E-001	-7.10939E-004	10	..........a	-327.74
	1344	13.45	-8.44653E-001	-1.05945E-004	0.00000E+000	-8.44000E-001	-7.39272E-004	10	..........a	-327.74
	1351	13.52	-8.51624E-001	-1.05201E-004	0.00000E+000	-8.51000E-001	-6.99272E-004	10	..........a	-327.74
	1358	13.59	-8.58629E-001	-1.04332E-004	0.00000E+000	-8.58000E-001	-7.34272E-004	10	..........a	-327.74
	1365	13.66	-8.65626E-001	-1.03906E-004	0.00000E+000	-8.65000E-001	-7.00939E-004	10	..........a	-327.74
	1372	13.73	-8.72538E-001	-1.02912E-004	0.00000E+000	-8.72000E-001	-7.02605E-004	10	..........a	-327.74
	1379	13.8	-8.79643E-001	-1.02645E-004	0.00000E+000	-8.79000E-001	-6.82606E-004	10	..........a	-327.74
	1386	13.87	-8.86602E-001	-1.02787E-004	0.00000E+000	-8.86000E-001	-6.85939E-004	10	..........a	-327.74
	1393	13.94	-8.93589E-001	-1.02026E-004	0.00000E+000	-8.93000E-001	-7.07606E-004	10	..........a	-327.74
	1400	14.01	-9.00648E-001	-1.00932E-004	0.00000E+000	-9.00000E-001	-7.05939E-004	10	..........a	-327.74
	1407	14.08	-9.07652E-001	-1.00614E-004	0.00000E+000	-9.07000E-001	-7.09272E-004	10	..........a	-327.74
	1414	14.15	-9.14626E-001	-1.00347E-004	0.00000E+000	-9.14000E-001	-6.95939E-004	10	..........a	-327.74
	1421	14.22	-9.21607E-001	-9.94781E-005	0.00000E+000	-9.21000E-001	-6.84272E-004	10	..........a	-327.74
	1428	14.29	-9.28579E-001	-9.91857E-005	0.00000E+000	-9.28000E-001	-7.19272E-004	10	..........a	-327.74
	1435	14.36	-9.35573E-001	-9.83167E-005	0.00000E+000	-9.35000E-001	-7.24272E-004	10	..........a	-327.74
	1442	14.43	-9.42610E-001	-9.76734E-005	0.00000E+000	-9.42000E-001	-7.35939E-004	10	..........a	-327.74
	1449	14.5	-9.49504E-001	-9.73643E-005	0.00000E+000	-9.49000E-001	-7.44272E-004	10	..........a	-327.74
	1456	14.57	-9.56620E-001	-9.67376E-005	0.00000E+000	-9.56000E-001	-7.54272E-004	10	..........a	-327.74
	1463	14.64	-9.63581E-001	-9.63700E-005	0.00000E+000	-9.63000E-001	-7.74272E-004	10	..........a	-327.74
	1470	14.71	-9.70576E-001	-9.63283E-005	0.00000E+000	-9.70000E-001	-7.70939E-004	10	..........a	-327.74
	1477	14.78	-9.77576E-001	-9.58771E-005	0.00000E+000	-9.77000E-001	-6.99272E-004	10	..........a	-327.74
	1484	14.85	-9.84508E-001	-9.59272E-005	0.00000E+000	-9.84000E-001	-7.67605E-004	10	..........a	-327.74
	1491	14.92	-9.91570E-001	-9.57935E-005	0.00000E+000	-9.91000E-001	-7.42605E-004	10	..........a	-327.74
	1498	14.99	-9.98540E-001	-9.51418E-005	0.00000E+000	-9.98000E-001	-7.59272E-004	10	..........a	-327.74
	1505	15.06	-9.95598E-001	-9.35461E-005	0.00000E+000	-9.95000E-001	-7.32606E-004	10	..........a	-327.74
	1512	15.13	-9.88580E-001	-9.28275E-005	0.00000E+000	-9.88000E-001	-7.30939E-004	10	..........a	-327.74
	1519	15.2	-9.81491E-001	-9.18333E-005	0.00000E+000	-9.81000E-001	-7.44272E-004	10	..........a	-327.74
	1526	15.27	-9.74630E-001	-9.09226E-005	0.00000E+000	-9.74000E-001	-7.34272E-004	10	..........a	-327.74
	1533	15.34	-9.67600E-001	-9.04881E-005	0.00000E+000	-9.67000E-001	-7.42605E-004	10	..........a	-327.74
	1540	15.41	-9.60564E-001	-8.99284E-005	0.00000E+000	-9.60000E-001	-7.10939E-004	10	..........a	-327.74
	1547	15.48	-9.53601E-001	-8.96192E-005	0.00000E+000	-9.53000E-001	-7.24272E-004	10	..........a	-327.74
	1554	15.55	-9.46597E-001	-8.89675E-005	0.00000E+000	-9.46000E-001	-7.07606E-004	10	..........a	-327.74
	1561	15.62	-9.39603E-001	-8.79900E-005	0.00000E+000	-9.39000E-001	-6.97606E-004	10	..........a	-327.74
	1568	15.69	-9.32665E-001	-8.79315E-005	0.00000E+000	-9.32000E-001	-6.89272E-004	10	..........a	-327.74
	1575	15.76	-9.25565E-001	-8.76642E-005	0.00000E+000	-9.25000E-001	-6.72606E-004	10	..........a	-327.74
	1582	15.83	-9.18587E-001	-8.73300E-005	0.00000E+000	-9.18000E-001	-7.19272E-004	10	..........a	-327.74
	1589	15.9	-9.11583E-001	-8.67618E-005	0.00000E+000	-9.11000E-001	-6.70939E-004	10	..........a	-327.74
	1596	15.97	-9.04548E-001	-8.60517E-005	0.00000E+000	-9.04000E-001	-6.95939E-004	10	..........a	-327.74
	1603	16.04	-8.97586E-001	-8.59514E-005	0.00000E+000	-8.97000E-001	-6.77606E-004	10	..........a	-327.74
	1610	16.11	-8.90636E-001	-8.57509E-005	0.00000E+000	-8.90000E-001	-6.99272E-004	10	..........a	-327.74
	1617	16.18	-8.83605E-001	-8.52412E-005	0.00000E+000	-8.83000E-001	-7.10939E-004	10	..........a	-327.74
	1624	16.25	-8.76673E-001	-8.49572E-005	0.00000E+000	-8.76000E-001	-7.29272E-004	10	..........a	-327.74
	1631	16.32	-8.69653E-001	-8.50491E-005	0.00000E+000	-8.69000E-001	-7.14272E-004	10	..........a	-327.74
	1638	16.39	-8.62636E-001	-8.52914E-005	0.00000E+000	-8.62000E-001	-7.22606E-004	10	..........a	-327.74
	1645	16.46	-8.55686E-001	-8.47566E-005	0.00000E+000	-8.55000E-001	-7.10939E-004	10	..........a	-327.74
	1652	16.53	-8.48616E-001	-8.47232E-005	0.00000E+000	-8.48000E-001	-7.34272E-004	10	..........a	-327.74
	1659	16.6	-8.41661E-001	-8.47650E-005	0.00000E+000	-8.41000E-001	-6.92606E-004	10	..........a	-327.74
	1666	16.67	-8.34646E-001	-8.45896E-005	0.00000E+000	-8.34000E-001	-6.97606E-004	10	..........a	-327.74
	1673	16.74	-8.27667E-001	-8.42721E-005	0.00000E+000	-8.27000E-001	-6.97606E-004	10	..........a	-327.74
	1680	16.81	-8.20682E-001	-8.42971E-005	0.00000E+000	-8.20000E-001	-6.87606E-004	10	..........a	-327.74
	1687	16.88	-8.13698E-001	-8.43138E-005	0.00000E+000	-8.13000E-001	-7.10939E-004	10	..........a	-327.74
	1694	16.95	-8.06707E-001	-8.41885E-005	0.00000E+000	-8.06000E-001	-7.39272E-004	10	..........a	-327.74
	1701	17.02	-7.99727E-001	-8.41133E-005	0.00000E+000	-7.99000E-001	-7.52606E-004	10	..........a	-327.74
	1708	17.09	-7.92679E-001	-8.35702E-005	0.00000E+000	-7.92000E-001	-6.89272E-004	10	..........a	-327.74
	1715	17.16	-7.85722E-001	-8.31525E-005	0.00000E+000	-7.85000E-001	-7.29272E-004	10	..........a	-327.74
	1722	17.23	-7.78726E-001	-8.32026E-005	0.00000E+000	-7.78000E-001	-7.14272E-004	10	..........a	-327.74
	1729	17.3	-7.71662E-001	-8.32528E-005	0.00000E+000	-7.71000E-001	-7.09272E-004	10	..........a	-327.74
	1736	17.37	-7.64719E-001	-8.31943E-005	0.00000E+000	-7.64000E-001	-7.15939E-004	10	..........a	-327.74
	1743	17.44	-7.57711E-001	-8.34199E-005	0.00000E+000	-7.57000E-001	-6.84272E-004	10	..........a	-327.74
	1750	17.51	-7.50711E-001	-8.36789E-005	0.00000E+000	-7.50000E-001	-6.92606E-004	10	..........a	-327.74
	1757	17.58	-7.43701E-001	-8.34366E-005	0.00000E+000	-7.43000E-001	-7.10939E-004	10	..........a	-327.74
	1764	17.65	-7.36706E-001	-8.30606E-005	0.00000E+000	-7.36000E-001	-7.29272E-004	10	..........a	-327.74
	1771	17.72	-7.29731E-001	-8.33363E-005	0.00000E+000	-7.29000E-001	-6.70939E-004	10	..........a	-327.74
	1778	17.79	-7.22742E-001	-8.36956E-005	0.00000E+000	-7.22000E-001	-7.15939E-004	10	..........a	-327.74
	1785	17.86	-7.15738E-001	-8.34700E-005	0.00000E+000	-7.15000E-001	-7.09272E-004	10	..........a	-327.74
	1792	17.93	-7.08724E-001	-8.31107E-005	0.00000E+000	-7.08000E-001	-6.97606E-004	10	..........a	-327.74
	1799	18	-7.01844E-001	-8.34366E-005	0.00000E+000	-7.01000E-001	-7.12606E-004	10	..........a	-327.74
	1806	18.07	-6.94730E-001	-8.35786E-005	0.00000E+000	-6.94000E-001	-6.90939E-004	10	..........a	-327.74
	1813	18.14	-6.87725E-001	-8.35285E-005	0.00000E+000	-6.87000E-001	-7.22606E-004	10	..........a	-327.74
	1820	18.21	-6.80728E-001	-8.35452E-005	0.00000E+000	-6.80000E-001	-6.99272E-004	10	..........a	-327.74
	1827	18.28	-6.73741E-001	-8.37123E-005	0.00000E+000	-6.73000E-001	-7.25939E-004	10	..........a	-327.74
	1834	18.35	-6.66730E-001	-8.37457E-005	0.00000E+000	-6.66000E-001	-7.00939E-004	10	..........a	-327.74
	1841	18.42	-6.59726E-001	-8.34115E-005	0.00000E+000	-6.59000E-001	-7.02605E-004	10	..........a	-327.74
	1848	18.49	-6.52743E-001	-8.29770E-005	0.00000E+000	-6.52000E-001	-6.94272E-004	10	..........a	-327.74
	1855	18.56	-6.45804E-001	-8.28601E-005	0.00000E+000	-6.45000E-001	-7.14272E-004	10	..........a	-327.74
	1862	18.63	-6.38755E-001	-8.30689E-005	0.00000E+000	-6.38000E-001	-7.09272E-004	10	..........a	-327.74
	1869	18.7	-6.31729E-001	-8.27849E-005	0.00000E+000	-6.31000E-001	-7.15939E-004	10	..........a	-327.74
	1876	18.77	-6.24656E-001	-8.19494E-005	0.00000E+000	-6.24000E-001	-7.49272E-004	10	..........a	-327.74
	1883	18.84	-6.17775E-001	-8.10972E-005	0.00000E+000	-6.17000E-001	-7.60939E-004	10	..........a	-327.74
	1890	18.91	-6.10777E-001	-8.01865E-005	0.00000E+000	-6.10000E-001	-7.27605E-004	10	..........a	-327.74
	1897	18.98	-6.03741E-001	-7.90753E-005	0.00000E+000	-6.03000E-001	-7.65939E-004	10	..........a	-327.74
	1904	19.05	-5.96808E-001	-7.71954E-005	0.00000E+000	-5.96000E-001	-7.34272E-004	10	..........a	-327.74
	1911	19.12	-5.89836E-001	-7.50900E-005	0.00000E+000	-5.89000E-001	-7.39272E-004	10	..........a	-327.74
	1918	19.19	-5.82796E-001	-7.19903E-005	0.00000E+000	-5.82000E-001	-7.32606E-004	10	..........a	-327.74
	1925	19.26	-5.75775E-001	-6.77125E-005	0.00000E+000	-5.75000E-001	-7.04272E-004	10	..........a	-327.74
	1932	19.33	-5.68733E-001	-6.11790E-005	0.00000E+000	-5.68000E-001	-7.70939E-004	10	..........a	-327.74
	1939	19.4	-5.61867E-001	-5.20136E-005	0.00000E+000	-5.61000E-001	-7.15939E-004	10	..........a	-327.74
	1946	19.47	-5.54783E-001	-3.97652E-005	0.00000E+000	-5.54000E-001	-6.89272E-004	10	..........a	-327.74
	1953	19.54	-5.47730E-001	-2.17520E-005	0.00000E+000	-5.47000E-001	-6.99272E-004	10	..........a	-327.74
	1960	19.61	-5.40791E-001	1.85076E-006	0.00000E+000	-5.40000E-001	-7.52606E-004	10	..........a	-327.74
	1967	19.68	-5.33844E-001	3.02994E-005	0.00000E+000	-5.33000E-001	-7.50939E-004	10	..........a	-327.74
	1974	19.75	-5.26782E-001	6.06863E-005	0.00000E+000	-5.26000E-001	-7.24272E-004	10	..........a	-327.74
	1981	19.82	-5.19846E-001	8.87255E-005	0.00000E+000	-5.19000E-001	-7.12606E-004	10	..........a	-327.74
	1988	19.89	-5.12800E-001	1.10749E-004	0.00000E+000	-5.12000E-001	-7.37606E-004	10	..........a	-327.74
	1995	19.96	-5.05857E-001	1.24827E-004	0.00000E+000	-5.05000E-001	-7.32606E-004	10	..........a	-327.74
	2002	20.03	-4.98868E-001	1.32155E-004	0.00000E+000	-4.98000E-001	-7.64272E-004	10	..........a	-327.74
	2009	20.1	-4.91759E-001	1.33416E-004	0.00000E+000	-4.91000E-001	-7.59272E-004	10	..........a	-327.74
	2016	20.17	-4.84865E-001	1.31010E-004	0.00000E+000	-4.84000E-001	-7.65939E-004	10	..........a	-327.74
	2023	20.24	-4.77865E-001	1.25479E-004	0.00000E+000	-4.77000E-001	-7.47606E-004	10	..........a	-327.74
	2030	20.31	-4.70786E-001	1.18695E-004	0.00000E+000	-4.70000E-001	-7.55939E-004	10	..........a	-327.74
	2037	20.38	-4.63835E-001	1.11860E-004	0.00000E+000	-4.63000E-001	-7.79272E-004	10	..........a	-327.74
	2044	20.45	-4.56854E-001	1.03556E-004	0.00000E+000	-4.56000E-001	-7.50939E-004	10	..........a	-327.74
	2051	20.52	-4.49829E-001	9.63035E-005	0.00000E+000	-4.49000E-001	-8.02606E-004	10	..........a	-327.74
	2058	20.59	-4.42858E-001	8.91683E-005	0.00000E+000	-4.42000E-001	-7.17605E-004	10	..........a	-327.74
	2065	20.66	-4.35769E-001	8.19914E-005	0.00000E+000	-4.35000E-001	-7.30939E-004	10	..........a	-327.74
	2072	20.73	-4.28880E-001	7.53660E-005	0.00000E+000	-4.28000E-001	-7.64272E-004	10	..........a	-327.74
	2079	20.8	-4.21937E-001	6.96345E-005	0.00000E+000	-4.21000E-001	-7.72606E-004	10	..........a	-327.74
	2086	20.87	-4.14833E-001	6.41871E-005	0.00000E+000	-4.14000E-001	-7.65939E-004	10	..........a	-327.74
	2093	20.94	-4.07881E-001	5.96336E-005	0.00000E+000	-4.07000E-001	-7.50939E-004	10	..........a	-327.74
	2100	21.01	-4.00823E-001	5.47543E-005	0.00000E+000	-4.00000E-001	-7.37606E-004	10	..........a	-327.74
	2107	21.08	-3.93929E-001	5.13873E-005	0.00000E+000	-3.93000E-001	-8.05939E-004	10	..........a	-327.74
	2114	21.15	-3.86860E-001	4.76610E-005	0.00000E+000	-3.86000E-001	-7.75939E-004	10	..........a	-327.74
	2121	21.22	-3.79820E-001	4.44443E-005	0.00000E+000	-3.79000E-001	-7.17605E-004	10	..........a	-327.74
	2128	21.29	-3.72831E-001	4.18626E-005	0.00000E+000	-3.72000E-001	-7.02605E-004	10	..........a	-327.74
	2135	21.36	-3.65865E-001	3.89133E-005	0.00000E+000	-3.65000E-001	-7.45939E-004	10	..........a	-327.74
	2142	21.43	-3.58837E-001	3.67745E-005	0.00000E+000	-3.58000E-001	-7.52606E-004	10	..........a	-327.74
	2149	21.5	-3.51869E-001	3.48027E-005	0.00000E+000	-3.51000E-001	-7.62605E-004	10	..........a	-327.74
	2156	21.57	-3.44776E-001	3.25301E-005	0.00000E+000	-3.44000E-001	-7.80939E-004	10	..........a	-327.74
	2163	21.64	-3.37866E-001	3.10095E-005	0.00000E+000	-3.37000E-001	-7.45939E-004	10	..........a	-327.74
	2170	21.71	-3.30891E-001	2.89793E-005	0.00000E+000	-3.30000E-001	-6.82606E-004	10	..........a	-327.74
	2177	21.78	-3.23880E-001	2.76425E-005	0.00000E+000	-3.23000E-001	-7.30939E-004	10	..........a	-327.74
	2184	21.85	-3.16871E-001	2.60801E-005	0.00000E+000	-3.16000E-001	-7.00939E-004	10	..........a	-327.74
	2191	21.92	-3.09850E-001	2.46264E-005	0.00000E+000	-3.09000E-001	-7.05939E-004	10	..........a	-327.74
	2198	21.99	-3.02866E-001	2.30640E-005	0.00000E+000	-3.02000E-001	-7.25939E-004	10	..........a	-327.74
	2205	22.06	-2.95892E-001	2.21449E-005	0.00000E+000	-2.95000E-001	-7.19272E-004	10	..........a	-327.74
	2212	22.13	-2.88936E-001	2.09920E-005	0.00000E+000	-2.88000E-001	-7.75939E-004	10	..........a	-327.74
	2219	22.2	-2.81893E-001	2.02233E-005	0.00000E+000	-2.81000E-001	-7.44272E-004	10	..........a	-327.74
	2226	22.27	-2.74926E-001	1.95382E-005	0.00000E+000	-2.74000E-001	-7.49272E-004	10	..........a	-327.74
	2233	22.34	-2.67768E-001	1.85356E-005	0.00000E+000	-2.67000E-001	-7.34272E-004	10	..........a	-327.74
	2240	22.41	-2.60870E-001	1.73826E-005	0.00000E+000	-2.60000E-001	-7.49272E-004	10	..........a	-327.74
	2247	22.48	-2.53879E-001	1.66056E-005	0.00000E+000	-2.53000E-001	-7.70939E-004	10	..........a	-327.74
	2254	22.55	-2.46895E-001	1.59957E-005	0.00000E+000	-2.46000E-001	-7.69272E-004	10	..........a	-327.74
	2261	22.62	-2.39892E-001	1.53691E-005	0.00000E+000	-2.39000E-001	-7.59272E-004	10	..........a	-327.74
	2268	22.69	-2.32910E-001	1.48594E-005	0.00000E+000	-2.32000E-001	-7.47606E-004	10	..........a	-327.74
	2275	22.76	-2.25906E-001	1.44083E-005	0.00000E+000	-2.25000E-001	-7.42605E-004	10	..........a	-327.74
	2282	22.83	-2.18869E-001	1.36480E-005	0.00000E+000	-2.18000E-001	-7.57606E-004	10	..........a	-327.74
	2289	22.9	-2.11901E-001	1.31968E-005	0.00000E+000	-2.11000E-001	-7.05939E-004	10	..........a	-327.74
	2296	22.97	-2.04958E-001	1.24866E-005	0.00000E+000	-2.04000E-001	-7.12606E-004	10	..........a	-327.74
	2303	23.04	-1.97943E-001	1.20689E-005	0.00000E+000	-1.97000E-001	-7.12606E-004	10	..........a	-327.74
	2310	23.11	-1.90932E-001	1.17681E-005	0.00000E+000	-1.90000E-001	-7.32606E-004	10	..........a	-327.74
	2317	23.18	-1.83946E-001	1.13921E-005	0.00000E+000	-1.83000E-001	-7.12606E-004	10	..........a	-327.74
	2324	23.25	-1.77006E-001	1.10663E-005	0.00000E+000	-1.76000E-001	-7.37606E-004	10	..........a	-327.74
	2331	23.32	-1.69941E-001	1.07321E-005	0.00000E+000	-1.69000E-001	-7.22606E-004	10	..........a	-327.74
	2338	23.39	-1.63047E-001	1.02642E-005	0.00000E+000	-1.62000E-001	-6.90939E-004	10	..........a	-327.74
	2345	23.46	-1.55890E-001	1.01556E-005	0.00000E+000	-1.55000E-001	-7.04272E-004	10	..........a	-327.74
	2352	23.53	-1.48946E-001	9.70442E-006	0.00000E+000	-1.48000E-001	-7.35939E-004	10	..........a	-327.74
	2359	23.6	-1.41942E-001	9.39528E-006	0.00000E+000	-1.41000E-001	-7.05939E-004	10	..........a	-327.74
	2366	23.67	-1.34941E-001	9.12792E-006	0.00000E+000	-1.34000E-001	-6.87606E-004	10	..........a	-327.74
	2373	23.74	-1.27954E-001	8.91905E-006	0.00000E+000	-1.27000E-001	-6.92606E-004	10	..........a	-327.74
	2380	23.81	-1.20946E-001	8.88563E-006	0.00000E+000	-1.20000E-001	-6.99272E-004	10	..........a	-327.74
	2387	23.88	-1.13942E-001	8.59321E-006	0.00000E+000	-1.13000E-001	-7.55939E-004	10	..........a	-327.74
	2394	23.95	-1.07005E-001	8.46788E-006	0.00000E+000	-1.06000E-001	-7.37606E-004	10	..........a	-327.74
	2401	24.02	-9.99806E-002	8.29243E-006	0.00000E+000	-9.90000E-002	-6.97606E-004	10	..........a	-327.74
	2408	24.09	-9.29506E-002	8.43446E-006	0.00000E+000	-9.20000E-002	-6.95939E-004	10	..........a	-327.74
	2415	24.16	-8.59873E-002	8.58485E-006	0.00000E+000	-8.50000E-002	-6.85939E-004	10	..........a	-327.74
	2422	24.23	-7.89056E-002	8.75195E-006	0.00000E+000	-7.80000E-002	-6.82606E-004	10	..........a	-327.74
	2429	24.3	-7.19806E-002	8.85221E-006	0.00000E+000	-7.10000E-002	-7.00939E-004	10	..........a	-327.74
	2436	24.37	-6.49689E-002	8.85221E-006	0.00000E+000	-6.40000E-002	-7.19272E-004	10	..........a	-327.74
	2443	24.44	-5.79806E-002	9.26996E-006	0.00000E+000	-5.70000E-002	-7.14272E-004	10	..........a	-327.74
	2450	24.51	-5.10423E-002	9.32009E-006	0.00000E+000	-5.00000E-002	-6.90939E-004	10	..........a	-327.74
	2457	24.58	-4.39714E-002	9.83810E-006	0.00000E+000	-4.30000E-002	-6.99272E-004	10	..........a	-327.74
	2464	24.65	-3.69931E-002	9.93000E-006	0.00000E+000	-3.60000E-002	-6.94272E-004	10	..........a	-327.74
	2471	24.72	-2.99598E-002	1.02726E-005	0.00000E+000	-2.90000E-002	-7.14272E-004	10	..........a	-327.74
	2478	24.79	-2.29698E-002	1.00386E-005	0.00000E+000	-2.20000E-002	-7.17605E-004	10	..........a	-327.74
	2485	24.86	-1.60006E-002	1.03895E-005	0.00000E+000	-1.50000E-002	-7.39272E-004	10	..........a	-327.74
	2492	24.93	-9.00311E-003	1.01974E-005	0.00000E+000	-8.00000E-003	-6.94272E-004	10	..........a	-327.74
	2499	25	-1.99560E-003	1.03477E-005	0.00000E+000	-1.00000E-003	-7.49272E-004	10	..........a	-327.74
	2506	25.07	4.98189E-003	1.00052E-005	0.00000E+000	5.99998E-003	-7.00939E-004	10	..........a	-327.74
	2513	25.14	1.20294E-002	9.69606E-006	0.00000E+000	1.30000E-002	-6.97606E-004	10	..........a	-327.74
	2520	25.21	1.90219E-002	9.29502E-006	0.00000E+000	2.00000E-002	-7.07606E-004	10	..........a	-327.74
	2527	25.28	2.59469E-002	9.00260E-006	0.00000E+000	2.70000E-002	-7.25939E-004	10	..........a	-327.74
	2534	25.35	3.30261E-002	8.69347E-006	0.00000E+000	3.40000E-002	-7.25939E-004	10	..........a	-327.74
	2541	25.42	3.99536E-002	7.92481E-006	0.00000E+000	4.10000E-002	-7.50939E-004	10	..........a	-327.74
	2548	25.49	4.70261E-002	7.50706E-006	0.00000E+000	4.80000E-002	-7.12606E-004	10	..........a	-327.74
	2555	25.56	5.39827E-002	7.04754E-006	0.00000E+000	5.50000E-002	-7.25939E-004	10	..........a	-327.74
	2562	25.63	6.09544E-002	6.59638E-006	0.00000E+000	6.20000E-002	-7.57606E-004	10	..........a	-327.74
	2569	25.7	6.79777E-002	6.12850E-006	0.00000E+000	6.90000E-002	-7.30939E-004	10	..........a	-327.74
	2576	25.77	7.49277E-002	5.92798E-006	0.00000E+000	7.60000E-002	-7.52606E-004	10	..........a	-327.74
	2583	25.84	8.19436E-002	5.60214E-006	0.00000E+000	8.30000E-002	-7.57606E-004	10	..........a	-327.74
	2590	25.91	8.90111E-002	5.56872E-006	0.00000E+000	9.00000E-002	-7.57606E-004	10	..........a	-327.74
	2597	25.98	9.59294E-002	5.13426E-006	0.00000E+000	9.70000E-002	-7.37606E-004	10	..........a	-327.74
	2604	26.05	1.02893E-001	4.83348E-006	0.00000E+000	1.04000E-001	-7.80939E-004	10	..........a	-327.74
	2611	26.12	1.09954E-001	4.29876E-006	0.00000E+000	1.11000E-001	-7.87605E-004	10	..........a	-327.74
	2618	26.19	1.16946E-001	4.23192E-006	0.00000E+000	1.18000E-001	-7.70939E-004	10	..........a	-327.74
	2625	26.26	1.23935E-001	4.11495E-006	0.00000E+000	1.25000E-001	-7.85939E-004	10	..........a	-327.74
	2632	26.33	1.30904E-001	4.01470E-006	0.00000E+000	1.32000E-001	-7.92605E-004	10	..........a	-327.74
	2639	26.4	1.37934E-001	3.76405E-006	0.00000E+000	1.39000E-001	-8.12605E-004	10	..........a	-327.74
	2646	26.47	1.45049E-001	3.66379E-006	0.00000E+000	1.46000E-001	-7.87605E-004	10	..........a	-327.74
	2653	26.54	1.51885E-001	3.53011E-006	0.00000E+000	1.53000E-001	-7.42605E-004	10	..........a	-327.74
	2660	26.61	1.58908E-001	3.32123E-006	0.00000E+000	1.60000E-001	-7.49272E-004	10	..........a	-327.74
	2667	26.68	1.65959E-001	3.26275E-006	0.00000E+000	1.67000E-001	-7.94272E-004	10	..........a	-327.74
	2674	26.75	1.72933E-001	3.28781E-006	0.00000E+000	1.74000E-001	-7.34272E-004	10	..........a	-327.74
	2681	26.82	1.79864E-001	3.12907E-006	0.00000E+000	1.81000E-001	-7.74272E-004	10	..........a	-327.74
	2688	26.89	1.86899E-001	3.02046E-006	0.00000E+000	1.88000E-001	-7.82606E-004	10	..........a	-327.74
	2695	26.96	1.93868E-001	3.11236E-006	0.00000E+000	1.95000E-001	-7.54272E-004	10	..........a	-327.74
	2702	27.03	2.01024E-001	3.05388E-006	0.00000E+000	2.02000E-001	-7.67605E-004	10	..........a	-327.74
	2709	27.1	2.07851E-001	2.90349E-006	0.00000E+000	2.09000E-001	-7.72606E-004	10	..........a	-327.74
	2716	27.17	2.14881E-001	3.02881E-006	0.00000E+000	2.16000E-001	-7.80939E-004	10	..........a	-327.74
	2723	27.24	2.21918E-001	2.77816E-006	0.00000E+000	2.23000E-001	-7.75939E-004	10	..........a	-327.74
	2730	27.31	2.28886E-001	2.83665E-006	0.00000E+000	2.30000E-001	-7.42605E-004	10	..........a	-327.74
	2737	27.38	2.35870E-001	2.70297E-006	0.00000E+000	2.37000E-001	-7.40939E-004	10	..........a	-327.74
	2744	27.45	2.42893E-001	2.72803E-006	0.00000E+000	2.44000E-001	-7.22606E-004	10	..........a	-327.74
	2751	27.52	2.49869E-001	2.51916E-006	0.00000E+000	2.51000E-001	-7.74272E-004	10	..........a	-327.74
	2758	27.59	2.56973E-001	2.71132E-006	0.00000E+000	2.58000E-001	-7.44272E-004	10	..........a	-327.74
	2765	27.66	2.63864E-001	2.45232E-006	0.00000E+000	2.65000E-001	-7.35939E-004	10	..........a	-327.74
	2772	27.73	2.70895E-001	2.20167E-006	0.00000E+000	2.72000E-001	-7.55939E-004	10	..........a	-327.74
	2779	27.8	2.77915E-001	2.41890E-006	0.00000E+000	2.79000E-001	-7.54272E-004	10	..........a	-327.74
	2786	27.87	2.84849E-001	2.44396E-006	0.00000E+000	2.86000E-001	-7.75939E-004	10	..........a	-327.74
	2793	27.94	2.91875E-001	2.47738E-006	0.00000E+000	2.93000E-001	-7.49272E-004	10	..........a	-327.74
	2800	28.01	2.98874E-001	2.46067E-006	0.00000E+000	3.00000E-001	-7.70939E-004	10	..........a	-327.74
	2807	28.08	3.05863E-001	2.58600E-006	0.00000E+000	3.07000E-001	-7.72606E-004	10	..........a	-327.74
	2814	28.15	3.12913E-001	2.32700E-006	0.00000E+000	3.14000E-001	-7.37606E-004	10	..........a	-327.74
	2821	28.22	3.19853E-001	2.65284E-006	0.00000E+000	3.21000E-001	-7.55939E-004	10	..........a	-327.74
	2828	28.29	3.26860E-001	2.59435E-006	0.00000E+000	3.28000E-001	-7.52606E-004	10	..........a	-327.74
	2835	28.36	3.33890E-001	2.61106E-006	0.00000E+000	3.35000E-001	-7.74272E-004	10	..........a	-327.74
	2842	28.43	3.40840E-001	2.56929E-006	0.00000E+000	3.42000E-001	-7.64272E-004	10	..........a	-327.74
	2849	28.5	3.47809E-001	2.56093E-006	0.00000E+000	3.49000E-001	-7.80939E-004	10	..........a	-327.74
	2856	28.57	3.54843E-001	2.66119E-006	0.00000E+000	3.56000E-001	-7.52606E-004	10	..........a	-327.74
	2863	28.64	3.61839E-001	2.77816E-006	0.00000E+000	3.63000E-001	-7.69272E-004	10	..........a	-327.74
	2870	28.71	3.68866E-001	2.84500E-006	0.00000E+000	3.70000E-001	-7.84272E-004	10	..........a	-327.74
	2877	28.78	3.75792E-001	2.95362E-006	0.00000E+000	3.77000E-001	-7.69272E-004	10	..........a	-327.74
	2884	28.85	3.82836E-001	2.84500E-006	0.00000E+000	3.84000E-001	-7.42605E-004	10	..........a	-327.74
	2891	28.92	3.89864E-001	2.95362E-006	0.00000E+000	3.91000E-001	-7.79272E-004	10	..........a	-327.74
	2898	28.99	3.96812E-001	2.85336E-006	0.00000E+000	3.98000E-001	-7.87605E-004	10	..........a	-327.74
	2905	29.06	4.03775E-001	2.76981E-006	0.00000E+000	4.05000E-001	-7.64272E-004	10	..........a	-327.74
	2912	29.13	4.10809E-001	2.95362E-006	0.00000E+000	4.12000E-001	-7.74272E-004	10	..........a	-327.74
	2919	29.2	4.17812E-001	2.68626E-006	0.00000E+000	4.19000E-001	-7.45939E-004	10	..........a	-327.74
	2926	29.27	4.24969E-001	2.82829E-006	0.00000E+000	4.26000E-001	-7.77606E-004	10	..........a	-327.74
	2933	29.34	4.31754E-001	2.97033E-006	0.00000E+000	4.33000E-001	-7.32606E-004	10	..........a	-327.74
	2940	29.41	4.38790E-001	2.75310E-006	0.00000E+000	4.40000E-001	-7.49272E-004	10	..........a	-327.74
	2947	29.48	4.45842E-001	2.68626E-006	0.00000E+000	4.47000E-001	-7.55939E-004	10	..........a	-327.74
	2954	29.55	4.52799E-001	2.77816E-006	0.00000E+000	4.54000E-001	-7.59272E-004	10	..........a	-327.74
	2961	29.62	4.59790E-001	2.58600E-006	0.00000E+000	4.61000E-001	-7.50939E-004	10	..........a	-327.74
	2968	29.69	4.66793E-001	2.76981E-006	0.00000E+000	4.68000E-001	-7.57606E-004	10	..........a	-327.74
	2975	29.76	4.73821E-001	2.63613E-006	0.00000E+000	4.75000E-001	-7.74272E-004	10	..........a	-327.74
	2982	29.83	4.80928E-001	2.62777E-006	0.00000E+000	4.82000E-001	-7.75939E-004	10	..........a	-327.74
	2989	29.9	4.87764E-001	2.66119E-006	0.00000E+000	4.89000E-001	-7.65939E-004	10	..........a	-327.74
	2996	29.97	4.94793E-001	2.66955E-006	0.00000E+000	4.96000E-001	-7.59272E-004	10	..........a	-327.74
	3000	30.01	4.98813E-001	2.63613E-006	0.00000E+000	5.00000E-001	-7.89272E-004	10	..........a	-327.74
CURVE2	TABLE
	Pt	T	Vf	Im	Vu	Sig	Ach	IERange	Over	Temp
	#	s	V vs. Ref.	A	V	V	V	#	bits	deg C
	3001	30.02	4.98821E-001	2.28522E-006	0.00000E+000	5.00000E-001	-7.57606E-004	10	..........a	-327.74